{
  "resourceType": "Bundle",
  "id": "60f82c3098086b570510e2d6",
  "type": "transaction",
  "entry": [ {
    "fullUrl": "https://madie.cms.gov/Patient/f1d38509-ab13-4afe-9dc5-4dbc6ac213c3",
    "resource": {
      "resourceType": "Patient",
      "id": "f1d38509-ab13-4afe-9dc5-4dbc6ac213c3",
      "meta": {
        "profile": [ "http://hl7.org/fhir/us/qicore/StructureDefinition/qicore-patient" ]
      },
      "text": {
        "status": "generated",
        "div": "<div xmlns=\"http://www.w3.org/1999/xhtml\"><div class=\"hapiHeaderText\">CMP_DayOf_RelvDat_OnEDEnd_EDEndLT1hrB4Obs_ObsEndLT1hrB4IP <b>DENEXPASS </b></div><table class=\"hapiPropertyTable\"><tbody><tr><td>Date of birth</td><td><span>01 January 1980</span></td></tr></tbody></table></div>"
      },
      "extension": [ {
        "url": "http://hl7.org/fhir/us/core/StructureDefinition/us-core-race",
        "extension": [ {
          "url": "ombCategory",
          "valueCoding": {
            "system": "urn:oid:2.16.840.1.113883.6.238",
            "code": "2106-3",
            "display": "White",
            "userSelected": true
          }
        }, {
          "url": "text",
          "valueString": "White"
        } ]
      }, {
        "url": "http://hl7.org/fhir/us/core/StructureDefinition/us-core-ethnicity",
        "extension": [ {
          "url": "ombCategory",
          "valueCoding": {
            "system": "urn:oid:2.16.840.1.113883.6.238",
            "code": "2186-5",
            "display": "Not Hispanic or Latino",
            "userSelected": true
          }
        }, {
          "url": "text",
          "valueString": "Not Hispanic or Latino"
        } ]
      } ],
      "identifier": [ {
        "type": {
          "coding": [ {
            "system": "http://terminology.hl7.org/CodeSystem/v2-0203",
            "code": "MR"
          } ]
        },
        "system": "https://bonnie-fhir.healthit.gov/",
        "value": "60f82c3098086b570510e2d6"
      } ],
      "active": true,
      "name": [ {
        "use": "usual",
        "family": "DENEXPass",
        "given": [ "CMP_DayOf_RelvDat_OnEDEnd_EDEndLT1hrB4Obs_ObsEndLT1hrB4IP" ]
      } ],
      "gender": "female",
      "birthDate": "1981-01-01"
    },
    "request": {
      "method": "PUT",
      "url": "Patient/f1d38509-ab13-4afe-9dc5-4dbc6ac213c3"
    }
  }, {
    "fullUrl": "https://madie.cms.gov/Encounter/a1310cdb-0587-4f70-929a-9d722cb740e0",
    "resource": {
      "resourceType": "Encounter",
      "id": "a1310cdb-0587-4f70-929a-9d722cb740e0",
      "meta": {
        "profile": [ "http://hl7.org/fhir/us/qicore/StructureDefinition/qicore-encounter" ]
      },
      "status": "finished",
      "class": {
        "system": "http://terminology.hl7.org/CodeSystem/v3-ActCode",
        "code": "EMER",
        "display": "emergency"
      },
      "type": [ {
        "coding": [ {
          "system": "http://snomed.info/sct",
          "code": "4525004"
        } ]
      } ],
      "subject": {
        "reference": "Patient/f1d38509-ab13-4afe-9dc5-4dbc6ac213c3"
      },
      "period": {
        "start": "2026-11-18T07:00:00.000+00:00",
        "end": "2026-11-18T08:01:00.000+00:00"
      },
      "reasonReference": [ {
        "reference": "Condition/30f9fe41-66f6-42ff-b662-e1b21b3e5523"
      } ]
    },
    "request": {
      "method": "PUT",
      "url": "Encounter/a1310cdb-0587-4f70-929a-9d722cb740e0"
    }
  }, {
    "fullUrl": "https://madie.cms.gov/Encounter/54ef45fb-4d49-401d-81cc-2f026d868ade",
    "resource": {
      "resourceType": "Encounter",
      "id": "54ef45fb-4d49-401d-81cc-2f026d868ade",
      "meta": {
        "profile": [ "http://hl7.org/fhir/us/qicore/StructureDefinition/qicore-encounter" ]
      },
      "status": "finished",
      "class": {
        "system": "http://terminology.hl7.org/CodeSystem/v3-ActCode",
        "code": "OBSENC",
        "display": "observation encounter"
      },
      "type": [ {
        "coding": [ {
          "system": "http://snomed.info/sct",
          "code": "448951000124107"
        } ]
      } ],
      "subject": {
        "reference": "Patient/f1d38509-ab13-4afe-9dc5-4dbc6ac213c3"
      },
      "period": {
        "start": "2026-11-18T09:00:00.000+00:00",
        "end": "2026-11-18T10:01:00.000+00:00"
      }
    },
    "request": {
      "method": "PUT",
      "url": "Encounter/54ef45fb-4d49-401d-81cc-2f026d868ade"
    }
  }, {
    "fullUrl": "https://madie.cms.gov/Encounter/cf006e56-e651-47ae-84ef-ea5a3ddb0d24",
    "resource": {
      "resourceType": "Encounter",
      "id": "cf006e56-e651-47ae-84ef-ea5a3ddb0d24",
      "meta": {
        "profile": [ "http://hl7.org/fhir/us/qicore/StructureDefinition/qicore-encounter" ]
      },
      "status": "finished",
      "class": {
        "system": "http://terminology.hl7.org/CodeSystem/v3-ActCode",
        "code": "IMP",
        "display": "inpatient encounter"
      },
      "type": [ {
        "coding": [ {
          "system": "http://snomed.info/sct",
          "code": "183452005"
        } ]
      } ],
      "subject": {
        "reference": "Patient/f1d38509-ab13-4afe-9dc5-4dbc6ac213c3"
      },
      "period": {
        "start": "2026-11-18T11:00:00.000+00:00",
        "end": "2026-11-20T08:15:00.000+00:00"
      },
      "reasonReference": [ {
        "reference": "Condition/30f9fe41-66f6-42ff-b662-e1b21b3e5523"
      } ]
    },
    "request": {
      "method": "PUT",
      "url": "Encounter/cf006e56-e651-47ae-84ef-ea5a3ddb0d24"
    }
  }, {
    "fullUrl": "https://madie.cms.gov/Procedure/cc88d1d9-6329-4ef1-b873-039788fc4988",
    "resource": {
      "resourceType": "Procedure",
      "id": "cc88d1d9-6329-4ef1-b873-039788fc4988",
      "meta": {
        "profile": [ "http://hl7.org/fhir/us/qicore/StructureDefinition/qicore-procedure" ]
      },
      "extension": [ {
        "url": "http://hl7.org/fhir/us/qicore/StructureDefinition/qicore-recorded",
        "valueDateTime": "2026-11-18T08:01:00.000+00:00"
      } ],
      "status": "completed",
      "code": {
        "coding": [ {
          "system": "http://snomed.info/sct",
          "code": "133918004"
        } ]
      },
      "subject": {
        "reference": "Patient/f1d38509-ab13-4afe-9dc5-4dbc6ac213c3"
      },
      "performedDateTime": "2026-11-18T08:01:00.000+00:00"
    },
    "request": {
      "method": "PUT",
      "url": "Procedure/cc88d1d9-6329-4ef1-b873-039788fc4988"
    }
  }, {
    "fullUrl": "https://madie.cms.gov/Condition/30f9fe41-66f6-42ff-b662-e1b21b3e5523",
    "resource": {
      "resourceType": "Condition",
      "id": "30f9fe41-66f6-42ff-b662-e1b21b3e5523",
      "meta": {
        "profile": [ "http://hl7.org/fhir/us/qicore/StructureDefinition/qicore-condition-encounter-diagnosis" ]
      },
      "clinicalStatus": {
        "coding": [ {
          "system": "http://terminology.hl7.org/CodeSystem/condition-clinical",
          "code": "active"
        } ]
      },
      "verificationStatus": {
        "coding": [ {
          "system": "http://terminology.hl7.org/CodeSystem/condition-ver-status",
          "code": "confirmed"
        } ]
      },
      "category": [ {
        "coding": [ {
          "system": "http://terminology.hl7.org/CodeSystem/condition-category",
          "code": "encounter-diagnosis",
          "display": "Encounter Diagnosis"
        } ]
      } ],
      "code": {
        "coding": [ {
          "system": "http://snomed.info/sct",
          "version": "2020-09",
          "code": "111297002",
          "display": "Nonparalytic stroke (disorder)",
          "userSelected": true
        } ]
      },
      "subject": {
        "reference": "Patient/f1d38509-ab13-4afe-9dc5-4dbc6ac213c3"
      },
      "encounter": {
        "reference": "Encounter/cf006e56-e651-47ae-84ef-ea5a3ddb0d24"
      },
      "recordedDate": "2026-08-13T08:00:00.000+00:00"
    },
    "request": {
      "method": "PUT",
      "url": "Condition/30f9fe41-66f6-42ff-b662-e1b21b3e5523"
    }
  }, {
    "fullUrl": "https://madie.cms.gov/claim/5ca62962b8484628b8de1ec5",
    "resource": {
      "resourceType": "Claim",
      "id": "5ca62962b8484628b8de1ec5",
      "meta": {
        "profile": [ "http://hl7.org/fhir/us/qicore/StructureDefinition/qicore-claim" ]
      },
      "status": "active",
      "type": {
        "coding": [ {
          "system": "http://terminology.hl7.org/CodeSystem/claim-type",
          "code": "institutional"
        } ]
      },
      "use": "claim",
      "patient": {
        "reference": "Patient/f1d38509-ab13-4afe-9dc5-4dbc6ac213c3"
      },
      "created": "2026-12-01",
      "provider": {
        "reference": "Practitioner/practitioner-123456"
      },
      "priority": {
        "coding": [ {
          "system": "http://terminology.hl7.org/CodeSystem/processpriority",
          "code": "normal"
        } ]
      },
      "diagnosis": [ {
        "sequence": 1,
        "diagnosisCodeableConcept": {
          "coding": [ {
            "system": "http://hl7.org/fhir/sid/icd-10-cm",
            "code": "I63.00"
          } ]
        },
        "type": [ {
          "coding": [ {
            "system": "http://terminology.hl7.org/CodeSystem/ex-diagnosistype",
            "code": "principal"
          } ]
        } ]
      } ],
      "insurance": [ {
        "sequence": 1,
        "focal": true,
        "coverage": {
          "reference": "Coverage/5fa041661c76ba66d9959367"
        }
      } ],
      "item": [ {
        "sequence": 1,
        "diagnosisSequence": [ 1 ],
        "productOrService": {
          "coding": [ {
            "system": "http://terminology.hl7.org/CodeSystem/ex-USCLS",
            "code": "99555"
          } ]
        },
        "encounter": [ {
          "reference": "Encounter/cf006e56-e651-47ae-84ef-ea5a3ddb0d24"
        } ]
      } ]
    },
    "request": {
      "method": "PUT",
      "url": "Claim/5ca62962b8484628b8de1ec5"
    }
  }, {
    "fullUrl": "https://madie.cms.gov/Coverage/5ac79c41-22a3-48de-8797-7a8a603a3b15",
    "resource": {
      "resourceType": "Coverage",
      "id": "5ac79c41-22a3-48de-8797-7a8a603a3b15",
      "meta": {
        "profile": [ "http://hl7.org/fhir/us/qicore/StructureDefinition/qicore-coverage" ]
      },
      "status": "active",
      "beneficiary": {
        "reference": "Patient/f1d38509-ab13-4afe-9dc5-4dbc6ac213c3"
      },
      "payor": [ {
        "reference": "Organization/0d884bcb-b0a7-4137-9223-1c6b83b887a2"
      } ]
    },
    "request": {
      "method": "PUT",
      "url": "Coverage/5ac79c41-22a3-48de-8797-7a8a603a3b15"
    }
  }, {
    "fullUrl": "https://madie.cms.gov/Organization/0d884bcb-b0a7-4137-9223-1c6b83b887a2",
    "resource": {
      "resourceType": "Organization",
      "id": "0d884bcb-b0a7-4137-9223-1c6b83b887a2",
      "meta": {
        "profile": [ "http://hl7.org/fhir/us/qicore/StructureDefinition/qicore-organization" ]
      },
      "identifier": [ {
        "use": "temp",
        "system": "urn:oid:2.16.840.1.113883.4.4",
        "value": "21-3259825"
      } ],
      "active": true,
      "type": [ {
        "coding": [ {
          "system": "http://terminology.hl7.org/CodeSystem/organization-type",
          "code": "pay",
          "display": "Payer"
        } ]
      } ],
      "name": "Blue Cross Blue Shield of Texas",
      "telecom": [ {
        "system": "phone",
        "value": "(+1) 972-766-6900"
      } ],
      "address": [ {
        "use": "billing",
        "type": "postal",
        "line": [ "P.O. Box 660044" ],
        "city": "Dallas",
        "state": "TX",
        "postalCode": "75266-0044",
        "country": "USA"
      } ]
    },
    "request": {
      "method": "PUT",
      "url": "Organization/0d884bcb-b0a7-4137-9223-1c6b83b887a2"
    }
  }, {
    "fullUrl": "https://madie.cms.gov/MeasureReport/1ef1dd0f-32d4-423f-8d56-9865d313deff",
    "resource": {
      "resourceType": "MeasureReport",
      "id": "1ef1dd0f-32d4-423f-8d56-9865d313deff",
      "meta": {
        "profile": [ "http://hl7.org/fhir/us/cqfmeasures/StructureDefinition/test-case-cqfm" ]
      },
      "contained": [ {
        "resourceType": "Parameters",
        "id": "d59d184f-da3a-4b87-a8b1-0c36eea5a075-parameters",
        "parameter": [ {
          "name": "subject",
          "valueString": "f1d38509-ab13-4afe-9dc5-4dbc6ac213c3"
        } ]
      } ],
      "extension": [ {
        "url": "http://hl7.org/fhir/StructureDefinition/cqf-inputParameters",
        "valueReference": {
          "reference": "#d59d184f-da3a-4b87-a8b1-0c36eea5a075-parameters"
        }
      }, {
        "url": "http://hl7.org/fhir/us/cqfmeasures/StructureDefinition/cqfm-testCaseDescription",
        "valueMarkdown": "Patient receives comfort measures performed on the day of hospital arrival, on ED end. ED ends less than 1 hour before Obs Start, Obs ends less than 1 hour before IP start.\n"
      } ],
      "modifierExtension": [ {
        "url": "http://hl7.org/fhir/us/cqfmeasures/StructureDefinition/cqfm-isTestCase",
        "valueBoolean": true
      } ],
      "status": "complete",
      "type": "individual",
      "measure": "https://madie.cms.gov/Measure/CMS72FHIRSTKAntithromboticDay2",
      "period": {
        "start": "2026-01-01",
        "end": "2026-12-31"
      },
      "group": [ {
        "id": "Group_1",
        "population": [ {
          "id": "InitialPopulation_1",
          "code": {
            "coding": [ {
              "system": "http://terminology.hl7.org/CodeSystem/measure-population",
              "code": "initial-population",
              "display": "Initial Population"
            } ]
          },
          "count": 1
        }, {
          "id": "Denominator_1",
          "code": {
            "coding": [ {
              "system": "http://terminology.hl7.org/CodeSystem/measure-population",
              "code": "denominator",
              "display": "Denominator"
            } ]
          },
          "count": 1
        }, {
          "id": "DenominatorExclusion_1",
          "code": {
            "coding": [ {
              "system": "http://terminology.hl7.org/CodeSystem/measure-population",
              "code": "denominator-exclusion",
              "display": "Denominator Exclusion"
            } ]
          },
          "count": 1
        }, {
          "id": "Numerator_1",
          "code": {
            "coding": [ {
              "system": "http://terminology.hl7.org/CodeSystem/measure-population",
              "code": "numerator",
              "display": "Numerator"
            } ]
          },
          "count": 0
        }, {
          "id": "DenominatorException_1",
          "code": {
            "coding": [ {
              "system": "http://terminology.hl7.org/CodeSystem/measure-population",
              "code": "denominator-exception",
              "display": "Denominator Exception"
            } ]
          },
          "count": 0
        } ],
        "measureScore": {
          "value": 0.0
        }
      } ],
      "evaluatedResource": [ {
        "reference": "Patient/f1d38509-ab13-4afe-9dc5-4dbc6ac213c3"
      }, {
        "reference": "Encounter/a1310cdb-0587-4f70-929a-9d722cb740e0"
      }, {
        "reference": "Encounter/54ef45fb-4d49-401d-81cc-2f026d868ade"
      }, {
        "reference": "Encounter/cf006e56-e651-47ae-84ef-ea5a3ddb0d24"
      }, {
        "reference": "Procedure/cc88d1d9-6329-4ef1-b873-039788fc4988"
      }, {
        "reference": "Condition/30f9fe41-66f6-42ff-b662-e1b21b3e5523"
      }, {
        "reference": "Claim/5ca62962b8484628b8de1ec5"
      }, {
        "reference": "Coverage/5ac79c41-22a3-48de-8797-7a8a603a3b15"
      }, {
        "reference": "Organization/0d884bcb-b0a7-4137-9223-1c6b83b887a2"
      } ]
    },
    "request": {
      "method": "PUT",
      "url": "MeasureReport/1ef1dd0f-32d4-423f-8d56-9865d313deff"
    }
  } ]
}