{
  "resourceType": "Bundle",
  "id": "63487c2e0968f80122540169",
  "type": "transaction",
  "entry": [ {
    "fullUrl": "https://madie.cms.gov/Patient/d5827ad0-6e0a-4e2c-b2f5-c8200ddd5f1f",
    "resource": {
      "resourceType": "Patient",
      "id": "d5827ad0-6e0a-4e2c-b2f5-c8200ddd5f1f",
      "meta": {
        "profile": [ "http://hl7.org/fhir/us/qicore/StructureDefinition/qicore-patient" ]
      },
      "text": {
        "status": "generated",
        "div": "<div xmlns=\"http://www.w3.org/1999/xhtml\"><div class=\"hapiHeaderText\">AssessP0RelDtTimeGTTimeOfDeliv<b>DENOMFail</b></div><table class=\"hapiPropertyTable\"><tbody><tr><td>Identifier</td><td>e81d53306e1d072e364f4cb1fe55e687c8eb216973693a9d8d3b7a70bc8067a7</td></tr><tr><td>Date of birth</td><td><span>14 February 1985</span></td></tr></tbody></table></div>"
      },
      "extension": [ {
        "url": "http://hl7.org/fhir/us/core/StructureDefinition/us-core-race",
        "extension": [ {
          "url": "ombCategory",
          "valueCoding": {
            "system": "urn:oid:2.16.840.1.113883.6.238",
            "code": "1002-5",
            "display": "American Indian or Alaska Native",
            "userSelected": true
          }
        }, {
          "url": "text",
          "valueString": "American Indian or Alaska Native"
        } ]
      }, {
        "url": "http://hl7.org/fhir/us/core/StructureDefinition/us-core-ethnicity",
        "extension": [ {
          "url": "ombCategory",
          "valueCoding": {
            "system": "urn:oid:2.16.840.1.113883.6.238",
            "code": "2135-2",
            "display": "Hispanic or Latino",
            "userSelected": true
          }
        }, {
          "url": "text",
          "valueString": "Hispanic or Latino"
        } ]
      } ],
      "identifier": [ {
        "type": {
          "coding": [ {
            "system": "http://terminology.hl7.org/CodeSystem/v2-0203",
            "code": "MR"
          } ]
        },
        "system": "https://bonnie-fhir.healthit.gov/",
        "value": "63487c2e0968f80122540169"
      } ],
      "active": true,
      "name": [ {
        "use": "usual",
        "family": "DENOMFail",
        "given": [ "AssessP0RelDtTimeGTTimeOfDeliv" ]
      } ],
      "gender": "female",
      "birthDate": "1998-02-14"
    },
    "request": {
      "method": "PUT",
      "url": "Patient/d5827ad0-6e0a-4e2c-b2f5-c8200ddd5f1f"
    }
  }, {
    "fullUrl": "https://madie.cms.gov/Observation/999737b9-8220-4cb2-9311-ae5a9eea7748",
    "resource": {
      "resourceType": "Observation",
      "id": "999737b9-8220-4cb2-9311-ae5a9eea7748",
      "meta": {
        "profile": [ "http://hl7.org/fhir/us/qicore/StructureDefinition/qicore-simple-observation" ]
      },
      "status": "final",
      "category": [ {
        "coding": [ {
          "system": "http://terminology.hl7.org/CodeSystem/observation-category",
          "code": "exam",
          "display": "exam",
          "userSelected": true
        } ]
      } ],
      "code": {
        "coding": [ {
          "system": "http://loinc.org",
          "code": "11884-4"
        } ]
      },
      "subject": {
        "reference": "Patient/d5827ad0-6e0a-4e2c-b2f5-c8200ddd5f1f"
      },
      "issued": "2026-06-08T20:00:00.000+00:00",
      "valueQuantity": {
        "value": 37,
        "system": "http://unitsofmeasure.org",
        "code": "wk"
      }
    },
    "request": {
      "method": "PUT",
      "url": "Observation/999737b9-8220-4cb2-9311-ae5a9eea7748"
    }
  }, {
    "fullUrl": "https://madie.cms.gov/Observation/4fba50f8-128a-4ee2-8c94-d38f7d0551bd",
    "resource": {
      "resourceType": "Observation",
      "id": "4fba50f8-128a-4ee2-8c94-d38f7d0551bd",
      "meta": {
        "profile": [ "http://hl7.org/fhir/us/qicore/StructureDefinition/qicore-simple-observation" ]
      },
      "status": "final",
      "category": [ {
        "coding": [ {
          "system": "http://terminology.hl7.org/CodeSystem/observation-category",
          "code": "exam",
          "display": "exam",
          "userSelected": true
        } ]
      } ],
      "code": {
        "coding": [ {
          "system": "http://loinc.org",
          "code": "11977-6"
        } ]
      },
      "subject": {
        "reference": "Patient/d5827ad0-6e0a-4e2c-b2f5-c8200ddd5f1f"
      },
      "effectiveDateTime": "2026-06-08T20:01:00.000+00:00",
      "valueInteger": 0
    },
    "request": {
      "method": "PUT",
      "url": "Observation/4fba50f8-128a-4ee2-8c94-d38f7d0551bd"
    }
  }, {
    "fullUrl": "https://madie.cms.gov/Observation/06cbae74-8103-4ddd-892e-4cce909fb2cb",
    "resource": {
      "resourceType": "Observation",
      "id": "06cbae74-8103-4ddd-892e-4cce909fb2cb",
      "meta": {
        "profile": [ "http://hl7.org/fhir/us/qicore/StructureDefinition/qicore-simple-observation" ]
      },
      "status": "final",
      "category": [ {
        "coding": [ {
          "system": "http://terminology.hl7.org/CodeSystem/observation-category",
          "code": "exam",
          "display": "exam",
          "userSelected": true
        } ]
      } ],
      "code": {
        "coding": [ {
          "system": "http://loinc.org",
          "code": "93857-1"
        } ]
      },
      "subject": {
        "reference": "Patient/d5827ad0-6e0a-4e2c-b2f5-c8200ddd5f1f"
      },
      "effectiveDateTime": "2026-06-08T20:00:00.000+00:00",
      "valueDateTime": "2026-06-08T20:00:00.000+00:00"
    },
    "request": {
      "method": "PUT",
      "url": "Observation/06cbae74-8103-4ddd-892e-4cce909fb2cb"
    }
  }, {
    "fullUrl": "https://madie.cms.gov/Encounter/35353783-51ba-41e3-852a-6ac41fa521b9",
    "resource": {
      "resourceType": "Encounter",
      "id": "35353783-51ba-41e3-852a-6ac41fa521b9",
      "meta": {
        "profile": [ "http://hl7.org/fhir/us/qicore/StructureDefinition/qicore-encounter" ]
      },
      "status": "finished",
      "class": {
        "system": "http://terminology.hl7.org/CodeSystem/v3-ActCode",
        "code": "IMP",
        "display": "inpatient encounter"
      },
      "type": [ {
        "coding": [ {
          "system": "http://snomed.info/sct",
          "code": "8715000"
        } ]
      } ],
      "subject": {
        "reference": "Patient/d5827ad0-6e0a-4e2c-b2f5-c8200ddd5f1f"
      },
      "period": {
        "start": "2026-06-08T08:00:00.000+00:00",
        "end": "2026-06-10T08:15:00.000+00:00"
      },
      "length": {
        "value": 2,
        "unit": "days"
      },
      "reasonReference": [ {
        "reference": "Condition/47e54bf2-91cb-474a-9e6a-397570f50401"
      } ]
    },
    "request": {
      "method": "PUT",
      "url": "Encounter/35353783-51ba-41e3-852a-6ac41fa521b9"
    }
  }, {
    "fullUrl": "https://madie.cms.gov/Procedure/0c4069d4-3bf6-4b6e-be0f-82de77f4cea3",
    "resource": {
      "resourceType": "Procedure",
      "id": "0c4069d4-3bf6-4b6e-be0f-82de77f4cea3",
      "meta": {
        "profile": [ "http://hl7.org/fhir/us/qicore/StructureDefinition/qicore-procedure" ]
      },
      "extension": [ {
        "url": "http://hl7.org/fhir/us/qicore/StructureDefinition/qicore-recorded",
        "valueDateTime": "2014-04-05T13:35:00.000+00:00"
      } ],
      "status": "completed",
      "code": {
        "coding": [ {
          "system": "http://www.cms.gov/Medicare/Coding/ICD10",
          "code": "10D00Z0"
        }, {
          "system": "http://snomed.info/sct",
          "code": "4504004"
        } ]
      },
      "subject": {
        "reference": "Patient/d5827ad0-6e0a-4e2c-b2f5-c8200ddd5f1f"
      },
      "performedPeriod": {
        "start": "2026-06-08T20:00:00.000+00:00",
        "end": "2026-06-08T20:15:00.000+00:00"
      }
    },
    "request": {
      "method": "PUT",
      "url": "Procedure/0c4069d4-3bf6-4b6e-be0f-82de77f4cea3"
    }
  }, {
    "fullUrl": "https://madie.cms.gov/Condition/47e54bf2-91cb-474a-9e6a-397570f50401",
    "resource": {
      "resourceType": "Condition",
      "id": "47e54bf2-91cb-474a-9e6a-397570f50401",
      "meta": {
        "profile": [ "http://hl7.org/fhir/us/qicore/StructureDefinition/qicore-condition-encounter-diagnosis" ]
      },
      "category": [ {
        "coding": [ {
          "system": "http://terminology.hl7.org/CodeSystem/condition-category",
          "code": "encounter-diagnosis",
          "display": "Encounter Diagnosis"
        } ]
      } ],
      "code": {
        "coding": [ {
          "system": "http://snomed.info/sct",
          "version": "2022-09",
          "code": "169826009",
          "display": "Single live birth from singleton pregnancy (finding)",
          "userSelected": true
        } ]
      },
      "subject": {
        "reference": "Patient/d5827ad0-6e0a-4e2c-b2f5-c8200ddd5f1f"
      },
      "encounter": {
        "reference": "Encounter/35353783-51ba-41e3-852a-6ac41fa521b9"
      },
      "recordedDate": "2026-10-21T08:00:00.000+00:00"
    },
    "request": {
      "method": "PUT",
      "url": "Condition/47e54bf2-91cb-474a-9e6a-397570f50401"
    }
  }, {
    "fullUrl": "https://madie.cms.gov/Coverage/9035af04-8d89-47e8-8961-94475be7f739",
    "resource": {
      "resourceType": "Coverage",
      "id": "9035af04-8d89-47e8-8961-94475be7f739",
      "meta": {
        "profile": [ "http://hl7.org/fhir/us/qicore/StructureDefinition/qicore-coverage" ]
      },
      "status": "active",
      "subscriberId": "523435",
      "beneficiary": {
        "reference": "Patient/d5827ad0-6e0a-4e2c-b2f5-c8200ddd5f1f"
      },
      "relationship": {
        "coding": [ {
          "system": "http://terminology.hl7.org/CodeSystem/subscriber-relationship",
          "code": "self"
        } ]
      },
      "payor": [ {
        "reference": "Organization/1ca5f1b1-d477-41a4-9bc5-d83c816ee924"
      } ]
    },
    "request": {
      "method": "PUT",
      "url": "Coverage/9035af04-8d89-47e8-8961-94475be7f739"
    }
  }, {
    "fullUrl": "https://madie.cms.gov/Organization/1ca5f1b1-d477-41a4-9bc5-d83c816ee924",
    "resource": {
      "resourceType": "Organization",
      "id": "1ca5f1b1-d477-41a4-9bc5-d83c816ee924",
      "meta": {
        "profile": [ "http://hl7.org/fhir/us/qicore/StructureDefinition/qicore-organization" ]
      },
      "identifier": [ {
        "use": "temp",
        "system": "urn:oid:2.16.840.1.113883.4.4",
        "value": "21-3259825"
      } ],
      "active": true,
      "type": [ {
        "coding": [ {
          "system": "http://terminology.hl7.org/CodeSystem/organization-type",
          "code": "pay",
          "display": "Payer"
        } ]
      } ],
      "name": "Blue Cross Blue Shield of Texas",
      "telecom": [ {
        "system": "phone",
        "value": "(+1) 972-766-6900"
      } ],
      "address": [ {
        "use": "billing",
        "type": "postal",
        "line": [ "P.O. Box 660044" ],
        "city": "Dallas",
        "state": "TX",
        "postalCode": "75266-0044",
        "country": "USA"
      } ]
    },
    "request": {
      "method": "PUT",
      "url": "Organization/1ca5f1b1-d477-41a4-9bc5-d83c816ee924"
    }
  }, {
    "fullUrl": "https://madie.cms.gov/Practitioner/6e8b3613-b5ba-4b0a-9eca-d42c809d7038",
    "resource": {
      "resourceType": "Practitioner",
      "id": "6e8b3613-b5ba-4b0a-9eca-d42c809d7038",
      "meta": {
        "profile": [ "http://hl7.org/fhir/us/qicore/StructureDefinition/qicore-practitioner" ]
      },
      "identifier": [ {
        "system": "http://hl7.org/fhir/sid/us-npi",
        "value": "1234567890"
      } ],
      "name": [ {
        "family": "Evil",
        "prefix": [ "Dr" ]
      } ]
    },
    "request": {
      "method": "PUT",
      "url": "Practitioner/6e8b3613-b5ba-4b0a-9eca-d42c809d7038"
    }
  }, {
    "fullUrl": "https://madie.cms.gov/MeasureReport/35abb539-85ee-46bb-b462-8749a0f22649",
    "resource": {
      "resourceType": "MeasureReport",
      "id": "35abb539-85ee-46bb-b462-8749a0f22649",
      "meta": {
        "profile": [ "http://hl7.org/fhir/us/cqfmeasures/StructureDefinition/test-case-cqfm" ]
      },
      "contained": [ {
        "resourceType": "Parameters",
        "id": "27be6f06-36e7-4091-9994-458ea114ec51-parameters",
        "parameter": [ {
          "name": "subject",
          "valueString": "d5827ad0-6e0a-4e2c-b2f5-c8200ddd5f1f"
        } ]
      } ],
      "extension": [ {
        "url": "http://hl7.org/fhir/StructureDefinition/cqf-inputParameters",
        "valueReference": {
          "reference": "#27be6f06-36e7-4091-9994-458ea114ec51-parameters"
        }
      }, {
        "url": "http://hl7.org/fhir/us/cqfmeasures/StructureDefinition/cqfm-testCaseDescription",
        "valueMarkdown": "Parity=0, relevant date/time after delivery date and time\n"
      } ],
      "modifierExtension": [ {
        "url": "http://hl7.org/fhir/us/cqfmeasures/StructureDefinition/cqfm-isTestCase",
        "valueBoolean": true
      } ],
      "status": "complete",
      "type": "individual",
      "measure": "https://madie.cms.gov/Measure/CMS0334FHIRPCCesareanBirth",
      "period": {
        "start": "2026-01-01",
        "end": "2026-12-31"
      },
      "group": [ {
        "id": "Group_1",
        "population": [ {
          "id": "InitialPopulation_1",
          "code": {
            "coding": [ {
              "system": "http://terminology.hl7.org/CodeSystem/measure-population",
              "code": "initial-population",
              "display": "Initial Population"
            } ]
          },
          "count": 1
        }, {
          "id": "Denominator_1",
          "code": {
            "coding": [ {
              "system": "http://terminology.hl7.org/CodeSystem/measure-population",
              "code": "denominator",
              "display": "Denominator"
            } ]
          },
          "count": 0
        }, {
          "id": "DenominatorExclusion_1",
          "code": {
            "coding": [ {
              "system": "http://terminology.hl7.org/CodeSystem/measure-population",
              "code": "denominator-exclusion",
              "display": "Denominator Exclusion"
            } ]
          },
          "count": 0
        }, {
          "id": "Numerator_1",
          "code": {
            "coding": [ {
              "system": "http://terminology.hl7.org/CodeSystem/measure-population",
              "code": "numerator",
              "display": "Numerator"
            } ]
          },
          "count": 0
        } ],
        "measureScore": {
          "value": 0.0
        }
      } ],
      "evaluatedResource": [ {
        "reference": "Patient/d5827ad0-6e0a-4e2c-b2f5-c8200ddd5f1f"
      }, {
        "reference": "Observation/999737b9-8220-4cb2-9311-ae5a9eea7748"
      }, {
        "reference": "Observation/4fba50f8-128a-4ee2-8c94-d38f7d0551bd"
      }, {
        "reference": "Observation/06cbae74-8103-4ddd-892e-4cce909fb2cb"
      }, {
        "reference": "Encounter/35353783-51ba-41e3-852a-6ac41fa521b9"
      }, {
        "reference": "Procedure/0c4069d4-3bf6-4b6e-be0f-82de77f4cea3"
      }, {
        "reference": "Condition/47e54bf2-91cb-474a-9e6a-397570f50401"
      }, {
        "reference": "Coverage/9035af04-8d89-47e8-8961-94475be7f739"
      }, {
        "reference": "Organization/1ca5f1b1-d477-41a4-9bc5-d83c816ee924"
      }, {
        "reference": "Practitioner/6e8b3613-b5ba-4b0a-9eca-d42c809d7038"
      } ]
    },
    "request": {
      "method": "PUT",
      "url": "MeasureReport/35abb539-85ee-46bb-b462-8749a0f22649"
    }
  } ]
}