{
  "resourceType": "Bundle",
  "id": "60ec6943bc72857e238afa20",
  "type": "collection",
  "entry": [ {
    "fullUrl": "https://madie.cms.gov/Patient/61ca9664-580e-4f01-8015-8cb3bcf00a01",
    "resource": {
      "resourceType": "Patient",
      "id": "61ca9664-580e-4f01-8015-8cb3bcf00a01",
      "meta": {
        "profile": [ "http://hl7.org/fhir/us/qicore/StructureDefinition/qicore-patient" ]
      },
      "extension": [ {
        "url": "http://hl7.org/fhir/us/core/StructureDefinition/us-core-race",
        "extension": [ {
          "url": "ombCategory",
          "valueCoding": {
            "system": "urn:oid:2.16.840.1.113883.6.238",
            "code": "1002-5",
            "display": "American Indian or Alaska Native",
            "userSelected": true
          }
        }, {
          "url": "text",
          "valueString": "American Indian or Alaska Native"
        } ]
      }, {
        "url": "http://hl7.org/fhir/us/core/StructureDefinition/us-core-ethnicity",
        "extension": [ {
          "url": "ombCategory",
          "valueCoding": {
            "system": "urn:oid:2.16.840.1.113883.6.238",
            "code": "2186-5",
            "display": "Not Hispanic or Latino",
            "userSelected": true
          }
        }, {
          "url": "text",
          "valueString": "Not Hispanic or Latino"
        } ]
      } ],
      "identifier": [ {
        "type": {
          "coding": [ {
            "system": "http://terminology.hl7.org/CodeSystem/v2-0203",
            "code": "MR"
          } ]
        },
        "system": "https://bonnie-fhir.healthit.gov/",
        "value": "60ec6943bc72857e238afa20"
      } ],
      "name": [ {
        "family": "DENEXFail",
        "given": [ "ScleritisEndB4CatSurg" ]
      } ],
      "gender": "male",
      "birthDate": "1969-06-15"
    }
  }, {
    "fullUrl": "https://madie.cms.gov/Condition/7ea72b01-17df-4d00-8aec-dacb64cadc9a",
    "resource": {
      "resourceType": "Condition",
      "id": "7ea72b01-17df-4d00-8aec-dacb64cadc9a",
      "meta": {
        "profile": [ "http://hl7.org/fhir/us/qicore/StructureDefinition/qicore-condition-problems-health-concerns" ]
      },
      "category": [ {
        "coding": [ {
          "system": "http://terminology.hl7.org/CodeSystem/condition-category",
          "code": "problem-list-item",
          "display": "Problem List Item"
        } ]
      } ],
      "code": {
        "coding": [ {
          "system": "http://snomed.info/sct",
          "version": "http://snomed.info/sct/731000124108/version/20250301",
          "code": "78370002"
        } ]
      },
      "subject": {
        "reference": "Patient/61ca9664-580e-4f01-8015-8cb3bcf00a01"
      },
      "recordedDate": "2026-08-12T02:00:00.000+00:00"
    }
  }, {
    "fullUrl": "https://madie.cms.gov/Procedure/0dbb5287-3366-4720-bafe-d76924336abf",
    "resource": {
      "resourceType": "Procedure",
      "id": "0dbb5287-3366-4720-bafe-d76924336abf",
      "meta": {
        "profile": [ "http://hl7.org/fhir/us/qicore/StructureDefinition/qicore-procedure" ]
      },
      "extension": [ {
        "url": "http://hl7.org/fhir/us/qicore/StructureDefinition/qicore-recorded",
        "valueDateTime": "2026-08-30T17:35:00.000+00:00"
      } ],
      "status": "completed",
      "code": {
        "coding": [ {
          "system": "http://snomed.info/sct",
          "version": "http://snomed.info/sct/731000124108/version/20230301",
          "code": "5130002"
        } ]
      },
      "subject": {
        "reference": "Patient/61ca9664-580e-4f01-8015-8cb3bcf00a01"
      },
      "performedDateTime": "2026-08-15T08:00:00.000+00:00"
    }
  }, {
    "fullUrl": "https://madie.cms.gov/Coverage/19b43c4e-6f95-4463-ab4d-b60dfe4202e0",
    "resource": {
      "resourceType": "Coverage",
      "id": "19b43c4e-6f95-4463-ab4d-b60dfe4202e0",
      "meta": {
        "profile": [ "http://hl7.org/fhir/us/qicore/StructureDefinition/qicore-coverage" ]
      },
      "status": "active",
      "subscriberId": "123456",
      "beneficiary": {
        "reference": "Patient/61ca9664-580e-4f01-8015-8cb3bcf00a01"
      },
      "relationship": {
        "coding": [ {
          "system": "http://terminology.hl7.org/CodeSystem/subscriber-relationship",
          "code": "self",
          "display": "Self"
        } ]
      },
      "payor": [ {
        "reference": "Organization/e395cacf-215a-4e1e-bc54-b8e3d576f043"
      } ]
    }
  }, {
    "fullUrl": "https://madie.cms.gov/Organization/e395cacf-215a-4e1e-bc54-b8e3d576f043",
    "resource": {
      "resourceType": "Organization",
      "id": "e395cacf-215a-4e1e-bc54-b8e3d576f043",
      "meta": {
        "profile": [ "http://hl7.org/fhir/us/qicore/StructureDefinition/qicore-organization" ]
      },
      "identifier": [ {
        "use": "temp",
        "system": "urn:oid:2.16.840.1.113883.4.4",
        "value": "21-3259825"
      } ],
      "active": true,
      "type": [ {
        "coding": [ {
          "system": "http://terminology.hl7.org/CodeSystem/organization-type",
          "code": "pay",
          "display": "Payer"
        } ]
      } ],
      "name": "Blue Cross Blue Shield of Texas",
      "telecom": [ {
        "system": "phone",
        "value": "(+1) 972-766-6900"
      } ],
      "address": [ {
        "use": "billing",
        "type": "postal",
        "line": [ "P.O. Box 660044" ],
        "city": "Dallas",
        "state": "TX",
        "postalCode": "75266-0044",
        "country": "USA"
      } ]
    }
  }, {
    "fullUrl": "https://madie.cms.gov/Practitioner/7bd21e1c-b074-4284-a643-6d34e41b45bc",
    "resource": {
      "resourceType": "Practitioner",
      "id": "7bd21e1c-b074-4284-a643-6d34e41b45bc",
      "meta": {
        "profile": [ "http://hl7.org/fhir/us/qicore/StructureDefinition/qicore-practitioner" ]
      },
      "identifier": [ {
        "system": "http://hl7.org/fhir/sid/us-npi",
        "value": "1689411712"
      } ],
      "name": [ {
        "family": "Smith",
        "prefix": [ "Dr" ]
      } ]
    }
  }, {
    "fullUrl": "https://madie.cms.gov/MeasureReport/5241f8cb-05ec-4a3c-8059-eeaa742d8809",
    "resource": {
      "resourceType": "MeasureReport",
      "id": "5241f8cb-05ec-4a3c-8059-eeaa742d8809",
      "meta": {
        "profile": [ "http://hl7.org/fhir/us/cqfmeasures/StructureDefinition/test-case-cqfm" ]
      },
      "contained": [ {
        "resourceType": "Parameters",
        "id": "ba011536-57bb-4eb9-8426-3c28bc6c4b5b-parameters",
        "parameter": [ {
          "name": "subject",
          "valueString": "61ca9664-580e-4f01-8015-8cb3bcf00a01"
        } ]
      } ],
      "extension": [ {
        "url": "http://hl7.org/fhir/StructureDefinition/cqf-inputParameters",
        "valueReference": {
          "reference": "#ba011536-57bb-4eb9-8426-3c28bc6c4b5b-parameters"
        }
      }, {
        "url": "http://hl7.org/fhir/us/cqfmeasures/StructureDefinition/cqfm-testCaseDescription",
        "valueMarkdown": "Patient with scleritis started but ended before cataract surgery. "
      } ],
      "modifierExtension": [ {
        "url": "http://hl7.org/fhir/us/cqfmeasures/StructureDefinition/cqfm-isTestCase",
        "valueBoolean": true
      } ],
      "status": "complete",
      "type": "individual",
      "measure": "https://madie.cms.gov/Measure/CMS133FHIRCataracts2040BCVA90Days",
      "period": {
        "start": "2026-01-01",
        "end": "2026-12-31"
      },
      "group": [ {
        "id": "Group_1",
        "population": [ {
          "id": "InitialPopulation_1",
          "code": {
            "coding": [ {
              "system": "http://terminology.hl7.org/CodeSystem/measure-population",
              "code": "initial-population",
              "display": "Initial Population"
            } ]
          },
          "count": 1
        }, {
          "id": "Denominator_1",
          "code": {
            "coding": [ {
              "system": "http://terminology.hl7.org/CodeSystem/measure-population",
              "code": "denominator",
              "display": "Denominator"
            } ]
          },
          "count": 1
        }, {
          "id": "DenominatorExclusion_1",
          "code": {
            "coding": [ {
              "system": "http://terminology.hl7.org/CodeSystem/measure-population",
              "code": "denominator-exclusion",
              "display": "Denominator Exclusion"
            } ]
          },
          "count": 0
        }, {
          "id": "Numerator_1",
          "code": {
            "coding": [ {
              "system": "http://terminology.hl7.org/CodeSystem/measure-population",
              "code": "numerator",
              "display": "Numerator"
            } ]
          },
          "count": 0
        } ],
        "measureScore": {
          "value": 0.0
        }
      } ],
      "evaluatedResource": [ {
        "reference": "Patient/61ca9664-580e-4f01-8015-8cb3bcf00a01"
      }, {
        "reference": "Condition/7ea72b01-17df-4d00-8aec-dacb64cadc9a"
      }, {
        "reference": "Procedure/0dbb5287-3366-4720-bafe-d76924336abf"
      }, {
        "reference": "Coverage/19b43c4e-6f95-4463-ab4d-b60dfe4202e0"
      }, {
        "reference": "Organization/e395cacf-215a-4e1e-bc54-b8e3d576f043"
      }, {
        "reference": "Practitioner/7bd21e1c-b074-4284-a643-6d34e41b45bc"
      } ]
    }
  } ]
}