{
  "resourceType": "Bundle",
  "id": "612e6ea302c62a011f2ef23d",
  "type": "transaction",
  "entry": [ {
    "fullUrl": "https://madie.cms.gov/Patient/362755f7-cf57-4178-b0c0-a0fc22b376fe",
    "resource": {
      "resourceType": "Patient",
      "id": "362755f7-cf57-4178-b0c0-a0fc22b376fe",
      "meta": {
        "profile": [ "http://hl7.org/fhir/us/qicore/StructureDefinition/qicore-patient" ]
      },
      "text": {
        "status": "generated",
        "div": "<div xmlns=\"http://www.w3.org/1999/xhtml\"><div class=\"hapiHeaderText\">OralXa2DaysAFICU1DayAfAnesHipWRvlntDT <b>NUMERPASS </b></div><table class=\"hapiPropertyTable\"><tbody><tr><td>Identifier</td><td>8693e02c1b94abdc9b9428b41412eae6</td></tr><tr><td>Date of birth</td><td><span>03 March 1974</span></td></tr></tbody></table></div>"
      },
      "extension": [ {
        "url": "http://hl7.org/fhir/us/core/StructureDefinition/us-core-race",
        "extension": [ {
          "url": "ombCategory",
          "valueCoding": {
            "system": "urn:oid:2.16.840.1.113883.6.238",
            "code": "1002-5",
            "display": "American Indian or Alaska Native",
            "userSelected": true
          }
        }, {
          "url": "text",
          "valueString": "American Indian or Alaska Native"
        } ]
      }, {
        "url": "http://hl7.org/fhir/us/core/StructureDefinition/us-core-ethnicity",
        "extension": [ {
          "url": "ombCategory",
          "valueCoding": {
            "system": "urn:oid:2.16.840.1.113883.6.238",
            "code": "2135-2",
            "display": "Hispanic or Latino",
            "userSelected": true
          }
        }, {
          "url": "text",
          "valueString": "Hispanic or Latino"
        } ]
      } ],
      "identifier": [ {
        "type": {
          "coding": [ {
            "system": "http://terminology.hl7.org/CodeSystem/v2-0203",
            "code": "MR"
          } ]
        },
        "system": "https://bonnie-fhir.healthit.gov/",
        "value": "612e6ea302c62a011f2ef23d"
      } ],
      "active": true,
      "name": [ {
        "use": "usual",
        "family": "NUMERPass",
        "given": [ "OralXa2DaysAFICU1DayAfAnesHipWRvlntDT" ]
      } ],
      "gender": "female",
      "birthDate": "1975-03-03"
    },
    "request": {
      "method": "PUT",
      "url": "Patient/362755f7-cf57-4178-b0c0-a0fc22b376fe"
    }
  }, {
    "fullUrl": "https://madie.cms.gov/Encounter/230c72db-6cdf-4a36-87a9-6d29050c8bee",
    "resource": {
      "resourceType": "Encounter",
      "id": "230c72db-6cdf-4a36-87a9-6d29050c8bee",
      "meta": {
        "profile": [ "http://hl7.org/fhir/us/qicore/StructureDefinition/qicore-encounter" ]
      },
      "status": "finished",
      "class": {
        "system": "http://terminology.hl7.org/CodeSystem/v3-ActCode",
        "code": "IMP",
        "display": "inpatient encounter"
      },
      "type": [ {
        "coding": [ {
          "system": "http://snomed.info/sct",
          "code": "8715000"
        } ]
      } ],
      "subject": {
        "reference": "Patient/362755f7-cf57-4178-b0c0-a0fc22b376fe"
      },
      "period": {
        "start": "2026-12-04T08:00:00.000+00:00",
        "end": "2026-12-30T08:15:00.000+00:00"
      },
      "length": {
        "value": 26.0,
        "unit": "days"
      },
      "location": [ {
        "location": {
          "reference": "Location/145eda3d-a3ef-4d37-886c-719fa2f5dfc9"
        },
        "period": {
          "start": "2026-12-06T08:00:00.000+00:00",
          "end": "2026-12-08T08:15:00.000+00:00"
        }
      } ]
    },
    "request": {
      "method": "PUT",
      "url": "Encounter/230c72db-6cdf-4a36-87a9-6d29050c8bee"
    }
  }, {
    "fullUrl": "https://madie.cms.gov/Coverage/d1dd1048-4978-4d51-9ab8-42a40dc880f9",
    "resource": {
      "resourceType": "Coverage",
      "id": "d1dd1048-4978-4d51-9ab8-42a40dc880f9",
      "status": "active",
      "beneficiary": {
        "reference": "Patient/362755f7-cf57-4178-b0c0-a0fc22b376fe"
      },
      "period": {
        "start": "1975-03-03T08:00:00.000+00:00"
      },
      "payor": [ {
        "reference": "Organization/ff5e237b-d2aa-47f8-a5b4-3ff8d0cc7aea"
      } ]
    },
    "request": {
      "method": "PUT",
      "url": "Coverage/d1dd1048-4978-4d51-9ab8-42a40dc880f9"
    }
  }, {
    "fullUrl": "https://madie.cms.gov/MedicationAdministration/b5dd5819-a732-4b7c-927e-c4265f868811",
    "resource": {
      "resourceType": "MedicationAdministration",
      "id": "b5dd5819-a732-4b7c-927e-c4265f868811",
      "meta": {
        "profile": [ "http://hl7.org/fhir/us/qicore/StructureDefinition/qicore-medicationadministration" ]
      },
      "status": "completed",
      "medicationCodeableConcept": {
        "coding": [ {
          "system": "http://www.nlm.nih.gov/research/umls/rxnorm",
          "code": "1364435",
          "display": "apixaban 2.5 MG Oral Tablet",
          "userSelected": true
        } ]
      },
      "subject": {
        "reference": "Patient/362755f7-cf57-4178-b0c0-a0fc22b376fe"
      },
      "effectiveDateTime": "2026-12-08T08:00:00.000+00:00"
    },
    "request": {
      "method": "PUT",
      "url": "MedicationAdministration/b5dd5819-a732-4b7c-927e-c4265f868811"
    }
  }, {
    "fullUrl": "https://madie.cms.gov/Procedure/74ad5103-1b8d-42ee-9da2-98378ae7d690",
    "resource": {
      "resourceType": "Procedure",
      "id": "74ad5103-1b8d-42ee-9da2-98378ae7d690",
      "meta": {
        "profile": [ "http://hl7.org/fhir/us/qicore/StructureDefinition/qicore-procedure" ]
      },
      "extension": [ {
        "url": "http://hl7.org/fhir/us/qicore/StructureDefinition/qicore-recorded",
        "valueDateTime": "2013-12-04T13:35:00.000+00:00"
      } ],
      "status": "completed",
      "code": {
        "coding": [ {
          "system": "http://snomed.info/sct",
          "code": "7989006"
        } ]
      },
      "subject": {
        "reference": "Patient/362755f7-cf57-4178-b0c0-a0fc22b376fe"
      },
      "performedPeriod": {
        "start": "2026-12-07T05:00:00.000+00:00",
        "end": "2026-12-07T08:15:00.000+00:00"
      }
    },
    "request": {
      "method": "PUT",
      "url": "Procedure/74ad5103-1b8d-42ee-9da2-98378ae7d690"
    }
  }, {
    "fullUrl": "https://madie.cms.gov/Procedure/bc0c04d8-63a7-4431-adde-1c2fb996b064",
    "resource": {
      "resourceType": "Procedure",
      "id": "bc0c04d8-63a7-4431-adde-1c2fb996b064",
      "meta": {
        "profile": [ "http://hl7.org/fhir/us/qicore/StructureDefinition/qicore-procedure" ]
      },
      "extension": [ {
        "url": "http://hl7.org/fhir/us/qicore/StructureDefinition/qicore-recorded",
        "valueDateTime": "2013-12-08T13:35:00.000+00:00"
      } ],
      "status": "completed",
      "code": {
        "coding": [ {
          "system": "http://snomed.info/sct",
          "code": "18946005"
        } ]
      },
      "subject": {
        "reference": "Patient/362755f7-cf57-4178-b0c0-a0fc22b376fe"
      },
      "performedDateTime": "2026-12-07T05:00:00.000+00:00"
    },
    "request": {
      "method": "PUT",
      "url": "Procedure/bc0c04d8-63a7-4431-adde-1c2fb996b064"
    }
  }, {
    "fullUrl": "https://madie.cms.gov/Location/145eda3d-a3ef-4d37-886c-719fa2f5dfc9",
    "resource": {
      "resourceType": "Location",
      "id": "145eda3d-a3ef-4d37-886c-719fa2f5dfc9",
      "meta": {
        "profile": [ "http://hl7.org/fhir/us/qicore/StructureDefinition/qicore-location" ]
      },
      "identifier": [ {
        "use": "usual",
        "system": "http://exampleoflocation.com",
        "value": "B1-S.F2"
      } ],
      "name": "Medical Surgical East, first floor",
      "type": [ {
        "coding": [ {
          "system": "https://www.cdc.gov/nhsn/cdaportal/terminology/codesystem/hsloc.html",
          "code": "1025-6",
          "display": "Trauma Critical Care",
          "userSelected": true
        } ]
      } ]
    },
    "request": {
      "method": "PUT",
      "url": "Location/145eda3d-a3ef-4d37-886c-719fa2f5dfc9"
    }
  }, {
    "fullUrl": "https://madie.cms.gov/Organization/ff5e237b-d2aa-47f8-a5b4-3ff8d0cc7aea",
    "resource": {
      "resourceType": "Organization",
      "id": "ff5e237b-d2aa-47f8-a5b4-3ff8d0cc7aea",
      "meta": {
        "profile": [ "http://hl7.org/fhir/us/qicore/StructureDefinition/qicore-organization" ]
      },
      "identifier": [ {
        "use": "temp",
        "system": "urn:oid:2.16.840.1.113883.4.4",
        "value": "21-3259825"
      } ],
      "active": true,
      "type": [ {
        "coding": [ {
          "system": "http://terminology.hl7.org/CodeSystem/organization-type",
          "code": "pay",
          "display": "Payer"
        } ]
      } ],
      "name": "Blue Cross Blue Shield of Texas",
      "telecom": [ {
        "system": "phone",
        "value": "(+1) 972-766-6900"
      } ],
      "address": [ {
        "use": "billing",
        "type": "postal",
        "line": [ "P.O. Box 660044" ],
        "city": "Dallas",
        "state": "TX",
        "postalCode": "75266-0044",
        "country": "USA"
      } ]
    },
    "request": {
      "method": "PUT",
      "url": "Organization/ff5e237b-d2aa-47f8-a5b4-3ff8d0cc7aea"
    }
  }, {
    "fullUrl": "https://madie.cms.gov/Practitioner/db3f9f16-106d-41f8-80d0-6a45fbafaaf2",
    "resource": {
      "resourceType": "Practitioner",
      "id": "db3f9f16-106d-41f8-80d0-6a45fbafaaf2",
      "identifier": [ {
        "system": "http://hl7.org/fhir/sid/us-npi",
        "value": "123456"
      } ],
      "name": [ {
        "family": "Evil",
        "prefix": [ "Dr" ]
      } ]
    },
    "request": {
      "method": "PUT",
      "url": "Practitioner/db3f9f16-106d-41f8-80d0-6a45fbafaaf2"
    }
  }, {
    "fullUrl": "https://madie.cms.gov/MeasureReport/ebbf100b-c8f4-4614-a2fb-f07488be0863",
    "resource": {
      "resourceType": "MeasureReport",
      "id": "ebbf100b-c8f4-4614-a2fb-f07488be0863",
      "meta": {
        "profile": [ "http://hl7.org/fhir/us/cqfmeasures/StructureDefinition/test-case-cqfm" ]
      },
      "contained": [ {
        "resourceType": "Parameters",
        "id": "06d90700-3106-486b-97e9-953228892e1d-parameters",
        "parameter": [ {
          "name": "subject",
          "valueString": "362755f7-cf57-4178-b0c0-a0fc22b376fe"
        } ]
      } ],
      "extension": [ {
        "url": "http://hl7.org/fhir/StructureDefinition/cqf-inputParameters",
        "valueReference": {
          "reference": "#06d90700-3106-486b-97e9-953228892e1d-parameters"
        }
      }, {
        "url": "http://hl7.org/fhir/us/cqfmeasures/StructureDefinition/cqfm-testCaseDescription",
        "valueMarkdown": "Oral Factor Xa Inhibitor administered 1 day after neuraxial anesthesia, which is 1 day after ICU start. Hip Fx not principal by using Medication Adm and Procedure performed anesthesia  relevant Datetime\n"
      } ],
      "modifierExtension": [ {
        "url": "http://hl7.org/fhir/us/cqfmeasures/StructureDefinition/cqfm-isTestCase",
        "valueBoolean": true
      } ],
      "status": "complete",
      "type": "individual",
      "measure": "https://madie.cms.gov/Measure/CMS190FHIRVTEProphylaxisICU",
      "period": {
        "start": "2026-01-01",
        "end": "2026-12-31"
      },
      "group": [ {
        "id": "Group_1",
        "population": [ {
          "id": "InitialPopulation_1",
          "code": {
            "coding": [ {
              "system": "http://terminology.hl7.org/CodeSystem/measure-population",
              "code": "initial-population",
              "display": "Initial Population"
            } ]
          },
          "count": 1
        }, {
          "id": "Denominator_1",
          "code": {
            "coding": [ {
              "system": "http://terminology.hl7.org/CodeSystem/measure-population",
              "code": "denominator",
              "display": "Denominator"
            } ]
          },
          "count": 1
        }, {
          "id": "DenominatorExclusion_1",
          "code": {
            "coding": [ {
              "system": "http://terminology.hl7.org/CodeSystem/measure-population",
              "code": "denominator-exclusion",
              "display": "Denominator Exclusion"
            } ]
          },
          "count": 0
        }, {
          "id": "Numerator_1",
          "code": {
            "coding": [ {
              "system": "http://terminology.hl7.org/CodeSystem/measure-population",
              "code": "numerator",
              "display": "Numerator"
            } ]
          },
          "count": 1
        }, {
          "id": "DenominatorException_1",
          "code": {
            "coding": [ {
              "system": "http://terminology.hl7.org/CodeSystem/measure-population",
              "code": "denominator-exception",
              "display": "Denominator Exception"
            } ]
          },
          "count": 0
        } ],
        "measureScore": {
          "value": 0.0
        }
      } ],
      "evaluatedResource": [ {
        "reference": "Patient/362755f7-cf57-4178-b0c0-a0fc22b376fe"
      }, {
        "reference": "Encounter/230c72db-6cdf-4a36-87a9-6d29050c8bee"
      }, {
        "reference": "Coverage/d1dd1048-4978-4d51-9ab8-42a40dc880f9"
      }, {
        "reference": "MedicationAdministration/b5dd5819-a732-4b7c-927e-c4265f868811"
      }, {
        "reference": "Procedure/74ad5103-1b8d-42ee-9da2-98378ae7d690"
      }, {
        "reference": "Procedure/bc0c04d8-63a7-4431-adde-1c2fb996b064"
      }, {
        "reference": "Location/145eda3d-a3ef-4d37-886c-719fa2f5dfc9"
      }, {
        "reference": "Organization/ff5e237b-d2aa-47f8-a5b4-3ff8d0cc7aea"
      }, {
        "reference": "Practitioner/db3f9f16-106d-41f8-80d0-6a45fbafaaf2"
      } ]
    },
    "request": {
      "method": "PUT",
      "url": "MeasureReport/ebbf100b-c8f4-4614-a2fb-f07488be0863"
    }
  } ]
}