{
  "resourceType": "Bundle",
  "id": "62fd0b5a85b0356a7c28532c",
  "type": "collection",
  "entry": [ {
    "fullUrl": "https://madie.cms.gov/Patient/ab445b6e-be4b-46d3-b2bb-9c5abac8ae36",
    "resource": {
      "resourceType": "Patient",
      "id": "ab445b6e-be4b-46d3-b2bb-9c5abac8ae36",
      "meta": {
        "profile": [ "http://hl7.org/fhir/us/qicore/StructureDefinition/qicore-patient" ]
      },
      "extension": [ {
        "url": "http://hl7.org/fhir/us/core/StructureDefinition/us-core-race",
        "extension": [ {
          "url": "ombCategory",
          "valueCoding": {
            "system": "urn:oid:2.16.840.1.113883.6.238",
            "code": "1002-5",
            "display": "American Indian or Alaska Native",
            "userSelected": true
          }
        }, {
          "url": "text",
          "valueString": "American Indian or Alaska Native"
        } ]
      }, {
        "url": "http://hl7.org/fhir/us/core/StructureDefinition/us-core-ethnicity",
        "extension": [ {
          "url": "ombCategory",
          "valueCoding": {
            "system": "urn:oid:2.16.840.1.113883.6.238",
            "code": "2135-2",
            "display": "Hispanic or Latino",
            "userSelected": true
          }
        }, {
          "url": "text",
          "valueString": "Hispanic or Latino"
        } ]
      }, {
        "url": "http://hl7.org/fhir/us/core/StructureDefinition/us-core-sex",
        "valueCode": "248153007"
      } ],
      "identifier": [ {
        "type": {
          "coding": [ {
            "system": "http://terminology.hl7.org/CodeSystem/v2-0203",
            "code": "MR"
          } ]
        },
        "system": "https://bonnie-fhir.healthit.gov/",
        "value": "62fd0b5a85b0356a7c28532c"
      } ],
      "name": [ {
        "family": "IPFail",
        "given": [ "NoDiagnosis" ]
      } ],
      "gender": "male",
      "birthDate": "1980-12-31"
    }
  }, {
    "fullUrl": "https://madie.cms.gov/Procedure/8e813e92-37b5-427b-8c01-22265ecc47b3",
    "resource": {
      "resourceType": "Procedure",
      "id": "8e813e92-37b5-427b-8c01-22265ecc47b3",
      "meta": {
        "profile": [ "http://hl7.org/fhir/us/qicore/StructureDefinition/qicore-procedure" ]
      },
      "extension": [ {
        "url": "http://hl7.org/fhir/us/qicore/StructureDefinition/qicore-recorded",
        "valueDateTime": "2026-02-01T09:00:00.000+00:00"
      } ],
      "status": "completed",
      "code": {
        "coding": [ {
          "system": "http://snomed.info/sct",
          "code": "38915000",
          "display": "Radionuclide therapy for gland ablation (procedure)",
          "userSelected": true
        } ]
      },
      "subject": {
        "reference": "Patient/ab445b6e-be4b-46d3-b2bb-9c5abac8ae36"
      },
      "performedDateTime": "2026-04-28T08:00:00.000+00:00"
    }
  }, {
    "fullUrl": "https://madie.cms.gov/Observation/ef994763-cb2d-4dde-8140-5fc18debb519",
    "resource": {
      "resourceType": "Observation",
      "id": "ef994763-cb2d-4dde-8140-5fc18debb519",
      "meta": {
        "profile": [ "http://hl7.org/fhir/us/qicore/StructureDefinition/qicore-observation-lab" ]
      },
      "status": "final",
      "category": [ {
        "coding": [ {
          "system": "http://terminology.hl7.org/CodeSystem/observation-category",
          "code": "laboratory",
          "display": "Laboratory"
        } ]
      } ],
      "code": {
        "coding": [ {
          "system": "http://loinc.org",
          "version": "2.72",
          "code": "10508-0",
          "display": "Prostate specific Ag [Presence] in Tissue by Immune stain",
          "userSelected": true
        } ]
      },
      "subject": {
        "reference": "Patient/ab445b6e-be4b-46d3-b2bb-9c5abac8ae36"
      },
      "issued": "2026-04-22T08:00:00.000+00:00",
      "valueQuantity": {
        "value": 11,
        "system": "http://unitsofmeasure.org",
        "code": "ng/mL"
      }
    }
  }, {
    "fullUrl": "https://madie.cms.gov/Observation/967315f7-4dd5-44f7-bb9d-0f7b221df613",
    "resource": {
      "resourceType": "Observation",
      "id": "967315f7-4dd5-44f7-bb9d-0f7b221df613",
      "meta": {
        "profile": [ "http://hl7.org/fhir/us/qicore/StructureDefinition/qicore-observation-lab" ]
      },
      "status": "corrected",
      "category": [ {
        "coding": [ {
          "system": "http://terminology.hl7.org/CodeSystem/observation-category",
          "code": "laboratory",
          "display": "Laboratory"
        } ]
      } ],
      "code": {
        "coding": [ {
          "system": "http://loinc.org",
          "version": "2.72",
          "code": "10508-0",
          "display": "Prostate specific Ag [Presence] in Tissue by Immune stain",
          "userSelected": true
        } ]
      },
      "subject": {
        "reference": "Patient/ab445b6e-be4b-46d3-b2bb-9c5abac8ae36"
      },
      "effectiveDateTime": "2026-04-24T08:00:00.000+00:00",
      "valueQuantity": {
        "value": 8,
        "system": "http://unitsofmeasure.org",
        "code": "ng/mL"
      }
    }
  }, {
    "fullUrl": "https://madie.cms.gov/Observation/1ad407d5-a56a-47aa-94ba-a742fe8d7343",
    "resource": {
      "resourceType": "Observation",
      "id": "1ad407d5-a56a-47aa-94ba-a742fe8d7343",
      "meta": {
        "profile": [ "http://hl7.org/fhir/us/qicore/StructureDefinition/qicore-observation-clinical-result" ]
      },
      "status": "final",
      "category": [ {
        "coding": [ {
          "system": "http://terminology.hl7.org/CodeSystem/observation-category",
          "code": "procedure",
          "display": "Procedure"
        } ]
      } ],
      "code": {
        "coding": [ {
          "system": "http://loinc.org",
          "code": "35266-6",
          "display": "Gleason score in Specimen Qualitative",
          "userSelected": true
        } ]
      },
      "subject": {
        "reference": "Patient/ab445b6e-be4b-46d3-b2bb-9c5abac8ae36"
      },
      "effectiveDateTime": "2026-01-02T08:00:00.000+00:00",
      "valueInteger": 5
    }
  }, {
    "fullUrl": "https://madie.cms.gov/Observation/eb204460-ae7d-46a8-8d63-6fc17e750886",
    "resource": {
      "resourceType": "Observation",
      "id": "eb204460-ae7d-46a8-8d63-6fc17e750886",
      "meta": {
        "profile": [ "http://hl7.org/fhir/us/qicore/StructureDefinition/qicore-observation-clinical-result" ]
      },
      "status": "final",
      "category": [ {
        "coding": [ {
          "system": "http://terminology.hl7.org/CodeSystem/observation-category",
          "code": "procedure",
          "display": "Procedure"
        } ]
      } ],
      "code": {
        "coding": [ {
          "system": "http://snomed.info/sct",
          "code": "254292007",
          "display": "Tumor staging (tumor staging)",
          "userSelected": true
        } ]
      },
      "subject": {
        "reference": "Patient/ab445b6e-be4b-46d3-b2bb-9c5abac8ae36"
      },
      "effectiveDateTime": "2026-04-26T08:00:00.000+00:00",
      "valueCodeableConcept": {
        "coding": [ {
          "system": "http://snomed.info/sct",
          "code": "1228931008",
          "display": "American Joint Committee on Cancer cT2a (qualifier value)",
          "userSelected": true
        } ]
      }
    }
  }, {
    "fullUrl": "https://madie.cms.gov/Observation/1d3c6fbe-4dc7-4afc-b012-b1395726f15e",
    "resource": {
      "resourceType": "Observation",
      "id": "1d3c6fbe-4dc7-4afc-b012-b1395726f15e",
      "meta": {
        "profile": [ "http://hl7.org/fhir/us/qicore/StructureDefinition/qicore-observation-clinical-result" ]
      },
      "status": "final",
      "category": [ {
        "coding": [ {
          "system": "http://terminology.hl7.org/CodeSystem/observation-category",
          "code": "procedure",
          "display": "Procedure"
        } ]
      } ],
      "code": {
        "coding": [ {
          "system": "http://loinc.org",
          "version": "2.72",
          "code": "25031-6",
          "display": "NM Bone Views",
          "userSelected": true
        } ]
      },
      "subject": {
        "reference": "Patient/ab445b6e-be4b-46d3-b2bb-9c5abac8ae36"
      },
      "effectiveDateTime": "2026-06-07T08:00:00.000+00:00",
      "valueString": "Normal results found"
    }
  }, {
    "fullUrl": "https://madie.cms.gov/Coverage/1006661c-149d-4b20-8909-c7db7f0ac4d1",
    "resource": {
      "resourceType": "Coverage",
      "id": "1006661c-149d-4b20-8909-c7db7f0ac4d1",
      "meta": {
        "profile": [ "http://hl7.org/fhir/us/qicore/StructureDefinition/qicore-coverage" ]
      },
      "status": "active",
      "subscriberId": "123456789",
      "beneficiary": {
        "reference": "Patient/ab445b6e-be4b-46d3-b2bb-9c5abac8ae36"
      },
      "relationship": {
        "coding": [ {
          "system": "http://terminology.hl7.org/CodeSystem/subscriber-relationship",
          "code": "self",
          "display": "Self",
          "userSelected": true
        } ]
      },
      "payor": [ {
        "reference": "Organization/25961102-dfa1-4ca8-afca-3532c299085f"
      } ]
    }
  }, {
    "fullUrl": "https://madie.cms.gov/Organization/25961102-dfa1-4ca8-afca-3532c299085f",
    "resource": {
      "resourceType": "Organization",
      "id": "25961102-dfa1-4ca8-afca-3532c299085f",
      "meta": {
        "profile": [ "http://hl7.org/fhir/us/qicore/StructureDefinition/qicore-organization" ]
      },
      "identifier": [ {
        "use": "temp",
        "system": "urn:oid:2.16.840.1.113883.4.4",
        "value": "21-3259825"
      } ],
      "active": true,
      "type": [ {
        "coding": [ {
          "system": "http://terminology.hl7.org/CodeSystem/organization-type",
          "code": "pay",
          "display": "Payer"
        } ]
      } ],
      "name": "Blue Cross Blue Shield of Texas",
      "telecom": [ {
        "system": "phone",
        "value": "(+1) 972-766-6900"
      } ],
      "address": [ {
        "use": "billing",
        "type": "postal",
        "line": [ "P.O. Box 660044" ],
        "city": "Dallas",
        "state": "TX",
        "postalCode": "75266-0044",
        "country": "USA"
      } ]
    }
  }, {
    "fullUrl": "https://madie.cms.gov/Practitioner/f3725be4-4bb9-402b-834a-10249983a33b",
    "resource": {
      "resourceType": "Practitioner",
      "id": "f3725be4-4bb9-402b-834a-10249983a33b",
      "meta": {
        "profile": [ "http://hl7.org/fhir/us/qicore/StructureDefinition/qicore-practitioner" ]
      },
      "identifier": [ {
        "system": "http://hl7.org/fhir/sid/us-npi",
        "value": "1234567893"
      } ],
      "name": [ {
        "family": "Evil",
        "prefix": [ "Dr" ]
      } ]
    }
  }, {
    "fullUrl": "https://madie.cms.gov/MeasureReport/f0dc880d-373c-4509-a792-4341f3f09bfe",
    "resource": {
      "resourceType": "MeasureReport",
      "id": "f0dc880d-373c-4509-a792-4341f3f09bfe",
      "meta": {
        "profile": [ "http://hl7.org/fhir/us/cqfmeasures/StructureDefinition/test-case-cqfm" ]
      },
      "contained": [ {
        "resourceType": "Parameters",
        "id": "e8b1c87c-0326-4d26-a882-591905bf4641-parameters",
        "parameter": [ {
          "name": "subject",
          "valueString": "ab445b6e-be4b-46d3-b2bb-9c5abac8ae36"
        } ]
      } ],
      "extension": [ {
        "url": "http://hl7.org/fhir/StructureDefinition/cqf-inputParameters",
        "valueReference": {
          "reference": "#e8b1c87c-0326-4d26-a882-591905bf4641-parameters"
        }
      }, {
        "url": "http://hl7.org/fhir/us/cqfmeasures/StructureDefinition/cqfm-testCaseDescription",
        "valueMarkdown": "No Prostate Cancer Diagnosis. Meets all other denominator criteria (first treatment, tumor staging, PSA test, Gleason).\n"
      } ],
      "modifierExtension": [ {
        "url": "http://hl7.org/fhir/us/cqfmeasures/StructureDefinition/cqfm-isTestCase",
        "valueBoolean": true
      } ],
      "status": "complete",
      "type": "individual",
      "measure": "https://madie.cms.gov/Measure/CMS129FHIRProstCaBoneScanUse",
      "period": {
        "start": "2026-01-01",
        "end": "2026-12-31"
      },
      "group": [ {
        "id": "Group_1",
        "population": [ {
          "id": "InitialPopulation_1",
          "code": {
            "coding": [ {
              "system": "http://terminology.hl7.org/CodeSystem/measure-population",
              "code": "initial-population",
              "display": "Initial Population"
            } ]
          },
          "count": 0
        }, {
          "id": "Denominator_1",
          "code": {
            "coding": [ {
              "system": "http://terminology.hl7.org/CodeSystem/measure-population",
              "code": "denominator",
              "display": "Denominator"
            } ]
          },
          "count": 0
        }, {
          "id": "Numerator_1",
          "code": {
            "coding": [ {
              "system": "http://terminology.hl7.org/CodeSystem/measure-population",
              "code": "numerator",
              "display": "Numerator"
            } ]
          },
          "count": 0
        }, {
          "id": "DenominatorException_1",
          "code": {
            "coding": [ {
              "system": "http://terminology.hl7.org/CodeSystem/measure-population",
              "code": "denominator-exception",
              "display": "Denominator Exception"
            } ]
          },
          "count": 0
        } ],
        "measureScore": {
          "value": 1.0
        }
      } ],
      "evaluatedResource": [ {
        "reference": "Patient/ab445b6e-be4b-46d3-b2bb-9c5abac8ae36"
      }, {
        "reference": "Procedure/8e813e92-37b5-427b-8c01-22265ecc47b3"
      }, {
        "reference": "Observation/ef994763-cb2d-4dde-8140-5fc18debb519"
      }, {
        "reference": "Observation/967315f7-4dd5-44f7-bb9d-0f7b221df613"
      }, {
        "reference": "Observation/1ad407d5-a56a-47aa-94ba-a742fe8d7343"
      }, {
        "reference": "Observation/eb204460-ae7d-46a8-8d63-6fc17e750886"
      }, {
        "reference": "Observation/1d3c6fbe-4dc7-4afc-b012-b1395726f15e"
      }, {
        "reference": "Coverage/1006661c-149d-4b20-8909-c7db7f0ac4d1"
      }, {
        "reference": "Organization/25961102-dfa1-4ca8-afca-3532c299085f"
      }, {
        "reference": "Practitioner/f3725be4-4bb9-402b-834a-10249983a33b"
      } ]
    }
  } ]
}