{
  "resourceType": "Bundle",
  "id": "633b3f9f0968f80122503cdb",
  "type": "transaction",
  "entry": [ {
    "fullUrl": "https://madie.cms.gov/Patient/83db4135-8018-4a54-8059-cc0f9f785a82",
    "resource": {
      "resourceType": "Patient",
      "id": "83db4135-8018-4a54-8059-cc0f9f785a82",
      "meta": {
        "profile": [ "http://hl7.org/fhir/us/qicore/StructureDefinition/qicore-patient" ]
      },
      "text": {
        "status": "generated",
        "div": "<div xmlns=\"http://www.w3.org/1999/xhtml\"><div class=\"hapiHeaderText\">HystWithIncreta<b>NUMEXPass</b></div><table class=\"hapiPropertyTable\"><tbody><tr><td>Date of birth</td><td><span>01 February 2004</span></td></tr></tbody></table></div>"
      },
      "extension": [ {
        "url": "http://hl7.org/fhir/us/core/StructureDefinition/us-core-race",
        "extension": [ {
          "url": "ombCategory",
          "valueCoding": {
            "system": "urn:oid:2.16.840.1.113883.6.238",
            "code": "1002-5",
            "display": "American Indian or Alaska Native",
            "userSelected": true
          }
        }, {
          "url": "text",
          "valueString": "American Indian or Alaska Native"
        } ]
      }, {
        "url": "http://hl7.org/fhir/us/core/StructureDefinition/us-core-ethnicity",
        "extension": [ {
          "url": "ombCategory",
          "valueCoding": {
            "system": "urn:oid:2.16.840.1.113883.6.238",
            "code": "2135-2",
            "display": "Hispanic or Latino",
            "userSelected": true
          }
        }, {
          "url": "text",
          "valueString": "Hispanic or Latino"
        } ]
      } ],
      "identifier": [ {
        "type": {
          "coding": [ {
            "system": "http://terminology.hl7.org/CodeSystem/v2-0203",
            "code": "MR"
          } ]
        },
        "system": "https://bonnie-fhir.healthit.gov/",
        "value": "633b3f9f0968f80122503cdb"
      } ],
      "active": true,
      "name": [ {
        "use": "usual",
        "family": "NUMEXPass",
        "given": [ "HystWithIncreta" ]
      } ],
      "gender": "female",
      "birthDate": "2005-02-01"
    },
    "request": {
      "method": "PUT",
      "url": "Patient/83db4135-8018-4a54-8059-cc0f9f785a82"
    }
  }, {
    "fullUrl": "https://madie.cms.gov/Observation/063b8225-fc77-48a5-bc7b-991f05fd36ef",
    "resource": {
      "resourceType": "Observation",
      "id": "063b8225-fc77-48a5-bc7b-991f05fd36ef",
      "meta": {
        "profile": [ "http://hl7.org/fhir/us/qicore/StructureDefinition/qicore-simple-observation" ]
      },
      "status": "final",
      "category": [ {
        "coding": [ {
          "system": "http://terminology.hl7.org/CodeSystem/observation-category",
          "code": "exam",
          "display": "exam",
          "userSelected": true
        } ]
      } ],
      "code": {
        "coding": [ {
          "system": "http://loinc.org",
          "code": "93857-1"
        } ]
      },
      "subject": {
        "reference": "Patient/83db4135-8018-4a54-8059-cc0f9f785a82"
      },
      "effectiveDateTime": "2026-02-01T08:00:00.000+00:00",
      "performer": [ {
        "reference": "Organization/example1",
        "display": "Hendricks Country Hospital"
      } ],
      "valueDateTime": "2026-02-01T08:00:00.000+00:00"
    },
    "request": {
      "method": "PUT",
      "url": "Observation/063b8225-fc77-48a5-bc7b-991f05fd36ef"
    }
  }, {
    "fullUrl": "https://madie.cms.gov/Observation/547f69fa-60d0-41cb-aa0a-98cfc1719d58",
    "resource": {
      "resourceType": "Observation",
      "id": "547f69fa-60d0-41cb-aa0a-98cfc1719d58",
      "meta": {
        "profile": [ "http://hl7.org/fhir/us/qicore/StructureDefinition/qicore-simple-observation" ]
      },
      "status": "final",
      "category": [ {
        "coding": [ {
          "system": "http://terminology.hl7.org/CodeSystem/observation-category",
          "code": "exam",
          "display": "exam",
          "userSelected": true
        } ]
      } ],
      "code": {
        "coding": [ {
          "system": "http://loinc.org",
          "code": "11884-4"
        } ]
      },
      "subject": {
        "reference": "Patient/83db4135-8018-4a54-8059-cc0f9f785a82"
      },
      "effectiveDateTime": "2026-02-01T08:00:00.000+00:00",
      "performer": [ {
        "reference": "Organization/example1",
        "display": "Hendricks Country Hospital"
      } ],
      "valueQuantity": {
        "value": 20,
        "system": "http://unitsofmeasure.org",
        "code": "wk"
      }
    },
    "request": {
      "method": "PUT",
      "url": "Observation/547f69fa-60d0-41cb-aa0a-98cfc1719d58"
    }
  }, {
    "fullUrl": "https://madie.cms.gov/Encounter/302d78b4-6b67-4295-bcab-5ba2b784c4a9",
    "resource": {
      "resourceType": "Encounter",
      "id": "302d78b4-6b67-4295-bcab-5ba2b784c4a9",
      "meta": {
        "profile": [ "http://hl7.org/fhir/us/qicore/StructureDefinition/qicore-encounter" ]
      },
      "status": "finished",
      "class": {
        "system": "http://terminology.hl7.org/CodeSystem/v3-ActCode",
        "code": "IMP",
        "display": "inpatient encounter"
      },
      "type": [ {
        "coding": [ {
          "system": "http://snomed.info/sct",
          "code": "183452005"
        } ]
      } ],
      "subject": {
        "reference": "Patient/83db4135-8018-4a54-8059-cc0f9f785a82"
      },
      "period": {
        "start": "2026-02-01T08:00:00.000+00:00",
        "end": "2026-02-05T08:15:00.000+00:00"
      },
      "reasonReference": [ {
        "reference": "Condition/9c9815e6-8883-4e57-8d50-90cbb56b5cf2"
      }, {
        "reference": "Condition/14cc563d-1884-4ad3-b984-c7789ff5e914"
      } ]
    },
    "request": {
      "method": "PUT",
      "url": "Encounter/302d78b4-6b67-4295-bcab-5ba2b784c4a9"
    }
  }, {
    "fullUrl": "https://madie.cms.gov/Claim/c9e5e96a-984e-456d-a547-83ddaf66ba8e",
    "resource": {
      "resourceType": "Claim",
      "id": "c9e5e96a-984e-456d-a547-83ddaf66ba8e",
      "meta": {
        "profile": [ "http://hl7.org/fhir/us/qicore/StructureDefinition/qicore-claim" ]
      },
      "status": "active",
      "type": {
        "coding": [ {
          "system": "http://terminology.hl7.org/CodeSystem/claim-type",
          "code": "institutional",
          "display": "Institutional"
        } ]
      },
      "use": "claim",
      "patient": {
        "reference": "Patient/83db4135-8018-4a54-8059-cc0f9f785a82"
      },
      "created": "2026-11-08",
      "provider": {
        "reference": "Practitioner/2d919ccf-086e-4401-b7f4-a415790cc753"
      },
      "priority": {
        "coding": [ {
          "system": "http://terminology.hl7.org/CodeSystem/processpriority",
          "code": "normal"
        } ]
      },
      "diagnosis": [ {
        "sequence": 1,
        "diagnosisCodeableConcept": {
          "coding": [ {
            "system": "http://hl7.org/fhir/sid/icd-10-cm",
            "code": "O43.229",
            "display": "Placenta increta, unspecified trimester"
          } ]
        },
        "type": [ {
          "coding": [ {
            "system": "http://terminology.hl7.org/CodeSystem/ex-diagnosistype",
            "code": "discharge",
            "display": "Discharge Diagnosis"
          } ]
        } ],
        "onAdmission": {
          "coding": [ {
            "system": "https://www.cms.gov/Medicare/Medicare-Fee-for-Service-Payment/HospitalAcqCond/Coding",
            "code": "Y"
          } ]
        }
      } ],
      "insurance": [ {
        "sequence": 1,
        "focal": true,
        "coverage": {
          "reference": "Coverage/Coverage-1"
        }
      } ],
      "item": [ {
        "sequence": 1,
        "careTeamSequence": [ 1 ],
        "diagnosisSequence": [ 1 ],
        "productOrService": {
          "coding": [ {
            "system": "http://www.ama-assn.org/go/cpt",
            "code": "99232"
          } ]
        },
        "encounter": [ {
          "reference": "Encounter/302d78b4-6b67-4295-bcab-5ba2b784c4a9"
        } ]
      }, {
        "sequence": 2,
        "careTeamSequence": [ 1 ],
        "diagnosisSequence": [ 2 ],
        "productOrService": {
          "coding": [ {
            "system": "http://www.ama-assn.org/go/cpt",
            "code": "99233"
          } ]
        },
        "encounter": [ {
          "reference": "Encounter/302d78b4-6b67-4295-bcab-5ba2b784c4a9"
        } ]
      } ],
      "total": {
        "value": 3800,
        "currency": "USD"
      }
    },
    "request": {
      "method": "PUT",
      "url": "Claim/c9e5e96a-984e-456d-a547-83ddaf66ba8e"
    }
  }, {
    "fullUrl": "https://madie.cms.gov/Condition/9c9815e6-8883-4e57-8d50-90cbb56b5cf2",
    "resource": {
      "resourceType": "Condition",
      "id": "9c9815e6-8883-4e57-8d50-90cbb56b5cf2",
      "meta": {
        "profile": [ "http://hl7.org/fhir/us/qicore/StructureDefinition/qicore-condition-encounter-diagnosis" ]
      },
      "category": [ {
        "coding": [ {
          "system": "http://terminology.hl7.org/CodeSystem/condition-category",
          "code": "encounter-diagnosis",
          "display": "Encounter Diagnosis"
        } ]
      } ],
      "code": {
        "coding": [ {
          "system": "http://hl7.org/fhir/sid/icd-10-cm",
          "version": "2023",
          "code": "Z3A.20",
          "display": "20 weeks gestation",
          "userSelected": true
        } ]
      },
      "subject": {
        "reference": "Patient/83db4135-8018-4a54-8059-cc0f9f785a82"
      },
      "recordedDate": "2026-10-26T08:00:00.000+00:00"
    },
    "request": {
      "method": "PUT",
      "url": "Condition/9c9815e6-8883-4e57-8d50-90cbb56b5cf2"
    }
  }, {
    "fullUrl": "https://madie.cms.gov/Condition/14cc563d-1884-4ad3-b984-c7789ff5e914",
    "resource": {
      "resourceType": "Condition",
      "id": "14cc563d-1884-4ad3-b984-c7789ff5e914",
      "meta": {
        "profile": [ "http://hl7.org/fhir/us/qicore/StructureDefinition/qicore-condition-encounter-diagnosis" ]
      },
      "category": [ {
        "coding": [ {
          "system": "http://terminology.hl7.org/CodeSystem/condition-category",
          "code": "encounter-diagnosis",
          "display": "Encounter Diagnosis"
        } ]
      } ],
      "code": {
        "coding": [ {
          "system": "http://hl7.org/fhir/sid/icd-10-cm",
          "code": "O43.229",
          "display": "Placenta increta, unspecified trimester",
          "userSelected": true
        } ]
      },
      "subject": {
        "reference": "Patient/83db4135-8018-4a54-8059-cc0f9f785a82"
      },
      "recordedDate": "2026-02-01T08:00:00.000+00:00"
    },
    "request": {
      "method": "PUT",
      "url": "Condition/14cc563d-1884-4ad3-b984-c7789ff5e914"
    }
  }, {
    "fullUrl": "https://madie.cms.gov/Coverage/5e7efad3-5627-467e-8fac-09593ac66367",
    "resource": {
      "resourceType": "Coverage",
      "id": "5e7efad3-5627-467e-8fac-09593ac66367",
      "status": "active",
      "subscriberId": "523435",
      "beneficiary": {
        "reference": "Patient/83db4135-8018-4a54-8059-cc0f9f785a82"
      },
      "relationship": {
        "coding": [ {
          "system": "http://terminology.hl7.org/CodeSystem/subscriber-relationship",
          "code": "self"
        } ]
      },
      "period": {
        "start": "2005-02-01T08:00:00.000+00:00"
      },
      "payor": [ {
        "reference": "Organization/047fc871-bea8-4373-9089-b73308939102"
      } ]
    },
    "request": {
      "method": "PUT",
      "url": "Coverage/5e7efad3-5627-467e-8fac-09593ac66367"
    }
  }, {
    "fullUrl": "https://madie.cms.gov/Procedure/5b2fc558-f5db-49c1-b954-efe5dfacc055",
    "resource": {
      "resourceType": "Procedure",
      "id": "5b2fc558-f5db-49c1-b954-efe5dfacc055",
      "meta": {
        "profile": [ "http://hl7.org/fhir/us/qicore/StructureDefinition/qicore-procedure" ]
      },
      "extension": [ {
        "url": "http://hl7.org/fhir/us/qicore/StructureDefinition/qicore-recorded",
        "valueDateTime": "2014-04-05T13:35:00.000+00:00"
      } ],
      "status": "completed",
      "code": {
        "coding": [ {
          "system": "http://snomed.info/sct",
          "code": "10745001"
        } ]
      },
      "subject": {
        "reference": "Patient/83db4135-8018-4a54-8059-cc0f9f785a82"
      },
      "performedPeriod": {
        "start": "2026-02-01T08:00:00.000+00:00",
        "end": "2026-02-01T08:00:00.000+00:00"
      }
    },
    "request": {
      "method": "PUT",
      "url": "Procedure/5b2fc558-f5db-49c1-b954-efe5dfacc055"
    }
  }, {
    "fullUrl": "https://madie.cms.gov/Procedure/d948e356-02ea-4db1-b34a-bd5740c58e66",
    "resource": {
      "resourceType": "Procedure",
      "id": "d948e356-02ea-4db1-b34a-bd5740c58e66",
      "meta": {
        "profile": [ "http://hl7.org/fhir/us/qicore/StructureDefinition/qicore-procedure" ]
      },
      "extension": [ {
        "url": "http://hl7.org/fhir/us/qicore/StructureDefinition/qicore-recorded",
        "valueDateTime": "2026-02-01T04:01:00.000+00:00"
      } ],
      "status": "completed",
      "code": {
        "coding": [ {
          "system": "http://snomed.info/sct",
          "code": "11050006"
        } ]
      },
      "subject": {
        "reference": "Patient/83db4135-8018-4a54-8059-cc0f9f785a82"
      },
      "performedPeriod": {
        "start": "2026-02-04T00:00:00.000+00:00",
        "end": "2026-02-04T11:59:00.000+00:00"
      }
    },
    "request": {
      "method": "PUT",
      "url": "Procedure/d948e356-02ea-4db1-b34a-bd5740c58e66"
    }
  }, {
    "fullUrl": "https://madie.cms.gov/Procedure/fffadd5d-ee58-4107-9e27-a1d49c51fac8",
    "resource": {
      "resourceType": "Procedure",
      "id": "fffadd5d-ee58-4107-9e27-a1d49c51fac8",
      "meta": {
        "profile": [ "http://hl7.org/fhir/us/qicore/StructureDefinition/qicore-procedure" ]
      },
      "extension": [ {
        "url": "http://hl7.org/fhir/us/qicore/StructureDefinition/qicore-recorded",
        "valueDateTime": "2026-02-01T04:01:00.000+00:00"
      } ],
      "status": "completed",
      "code": {
        "coding": [ {
          "system": "http://snomed.info/sct",
          "code": "11397000"
        } ]
      },
      "subject": {
        "reference": "Patient/83db4135-8018-4a54-8059-cc0f9f785a82"
      },
      "performedPeriod": {
        "start": "2026-02-04T00:00:00.000+00:00",
        "end": "2026-02-04T11:59:00.000+00:00"
      }
    },
    "request": {
      "method": "PUT",
      "url": "Procedure/fffadd5d-ee58-4107-9e27-a1d49c51fac8"
    }
  }, {
    "fullUrl": "https://madie.cms.gov/Organization/047fc871-bea8-4373-9089-b73308939102",
    "resource": {
      "resourceType": "Organization",
      "id": "047fc871-bea8-4373-9089-b73308939102",
      "meta": {
        "profile": [ "http://hl7.org/fhir/us/qicore/StructureDefinition/qicore-organization" ]
      },
      "identifier": [ {
        "use": "temp",
        "system": "urn:oid:2.16.840.1.113883.4.4",
        "value": "21-3259825"
      } ],
      "active": true,
      "type": [ {
        "coding": [ {
          "system": "http://terminology.hl7.org/CodeSystem/organization-type",
          "code": "pay",
          "display": "Payer"
        } ]
      } ],
      "name": "Blue Cross Blue Shield of Texas",
      "telecom": [ {
        "system": "phone",
        "value": "(+1) 972-766-6900"
      } ],
      "address": [ {
        "use": "billing",
        "type": "postal",
        "line": [ "P.O. Box 660044" ],
        "city": "Dallas",
        "state": "TX",
        "postalCode": "75266-0044",
        "country": "USA"
      } ]
    },
    "request": {
      "method": "PUT",
      "url": "Organization/047fc871-bea8-4373-9089-b73308939102"
    }
  }, {
    "fullUrl": "https://madie.cms.gov/Practitioner/2d919ccf-086e-4401-b7f4-a415790cc753",
    "resource": {
      "resourceType": "Practitioner",
      "id": "2d919ccf-086e-4401-b7f4-a415790cc753",
      "meta": {
        "profile": [ "http://hl7.org/fhir/us/qicore/StructureDefinition/qicore-practitioner" ]
      },
      "identifier": [ {
        "system": "http://hl7.org/fhir/sid/us-npi",
        "value": "9999999896"
      } ],
      "name": [ {
        "family": "Evil",
        "prefix": [ "Dr" ]
      } ]
    },
    "request": {
      "method": "PUT",
      "url": "Practitioner/2d919ccf-086e-4401-b7f4-a415790cc753"
    }
  }, {
    "fullUrl": "https://madie.cms.gov/MeasureReport/62960f96-fd8a-4720-a5fa-ccecba3e34f2",
    "resource": {
      "resourceType": "MeasureReport",
      "id": "62960f96-fd8a-4720-a5fa-ccecba3e34f2",
      "meta": {
        "profile": [ "http://hl7.org/fhir/us/cqfmeasures/StructureDefinition/test-case-cqfm" ]
      },
      "contained": [ {
        "resourceType": "Parameters",
        "id": "7adeb516-1e06-4b0e-a859-7ac2fd76461d-parameters",
        "parameter": [ {
          "name": "subject",
          "valueString": "83db4135-8018-4a54-8059-cc0f9f785a82"
        } ]
      } ],
      "extension": [ {
        "url": "http://hl7.org/fhir/StructureDefinition/cqf-inputParameters",
        "valueReference": {
          "reference": "#7adeb516-1e06-4b0e-a859-7ac2fd76461d-parameters"
        }
      }, {
        "url": "http://hl7.org/fhir/us/cqfmeasures/StructureDefinition/cqfm-testCaseDescription",
        "valueMarkdown": "Hysterectomy and blood transfusion with Placenta Increta and no other SOC."
      } ],
      "modifierExtension": [ {
        "url": "http://hl7.org/fhir/us/cqfmeasures/StructureDefinition/cqfm-isTestCase",
        "valueBoolean": true
      } ],
      "status": "complete",
      "type": "individual",
      "measure": "https://madie.cms.gov/Measure/CMS1028FHIRPCSevereOBComps",
      "period": {
        "start": "2026-01-01",
        "end": "2026-12-31"
      },
      "group": [ {
        "id": "Group_1",
        "population": [ {
          "id": "InitialPopulation_1",
          "code": {
            "coding": [ {
              "system": "http://terminology.hl7.org/CodeSystem/measure-population",
              "code": "initial-population",
              "display": "Initial Population"
            } ]
          },
          "count": 1
        }, {
          "id": "Denominator_1",
          "code": {
            "coding": [ {
              "system": "http://terminology.hl7.org/CodeSystem/measure-population",
              "code": "denominator",
              "display": "Denominator"
            } ]
          },
          "count": 1
        }, {
          "id": "Numerator_1",
          "code": {
            "coding": [ {
              "system": "http://terminology.hl7.org/CodeSystem/measure-population",
              "code": "numerator",
              "display": "Numerator"
            } ]
          },
          "count": 1
        }, {
          "id": "NumeratorExclusion_1",
          "code": {
            "coding": [ {
              "system": "http://terminology.hl7.org/CodeSystem/measure-population",
              "code": "numerator-exclusion",
              "display": "Numerator Exclusion"
            } ]
          },
          "count": 1
        } ],
        "measureScore": {
          "value": 0.0
        }
      }, {
        "id": "Group_2",
        "population": [ {
          "id": "InitialPopulation_2",
          "code": {
            "coding": [ {
              "system": "http://terminology.hl7.org/CodeSystem/measure-population",
              "code": "initial-population",
              "display": "Initial Population"
            } ]
          },
          "count": 1
        }, {
          "id": "Denominator_2",
          "code": {
            "coding": [ {
              "system": "http://terminology.hl7.org/CodeSystem/measure-population",
              "code": "denominator",
              "display": "Denominator"
            } ]
          },
          "count": 1
        }, {
          "id": "Numerator_2",
          "code": {
            "coding": [ {
              "system": "http://terminology.hl7.org/CodeSystem/measure-population",
              "code": "numerator",
              "display": "Numerator"
            } ]
          },
          "count": 1
        }, {
          "id": "NumeratorExclusion_2",
          "code": {
            "coding": [ {
              "system": "http://terminology.hl7.org/CodeSystem/measure-population",
              "code": "numerator-exclusion",
              "display": "Numerator Exclusion"
            } ]
          },
          "count": 1
        } ],
        "measureScore": {
          "value": 0.0
        }
      } ],
      "evaluatedResource": [ {
        "reference": "Patient/83db4135-8018-4a54-8059-cc0f9f785a82"
      }, {
        "reference": "Observation/063b8225-fc77-48a5-bc7b-991f05fd36ef"
      }, {
        "reference": "Observation/547f69fa-60d0-41cb-aa0a-98cfc1719d58"
      }, {
        "reference": "Encounter/302d78b4-6b67-4295-bcab-5ba2b784c4a9"
      }, {
        "reference": "Claim/c9e5e96a-984e-456d-a547-83ddaf66ba8e"
      }, {
        "reference": "Condition/9c9815e6-8883-4e57-8d50-90cbb56b5cf2"
      }, {
        "reference": "Condition/14cc563d-1884-4ad3-b984-c7789ff5e914"
      }, {
        "reference": "Coverage/5e7efad3-5627-467e-8fac-09593ac66367"
      }, {
        "reference": "Procedure/5b2fc558-f5db-49c1-b954-efe5dfacc055"
      }, {
        "reference": "Procedure/d948e356-02ea-4db1-b34a-bd5740c58e66"
      }, {
        "reference": "Procedure/fffadd5d-ee58-4107-9e27-a1d49c51fac8"
      }, {
        "reference": "Organization/047fc871-bea8-4373-9089-b73308939102"
      }, {
        "reference": "Practitioner/2d919ccf-086e-4401-b7f4-a415790cc753"
      } ]
    },
    "request": {
      "method": "PUT",
      "url": "MeasureReport/62960f96-fd8a-4720-a5fa-ccecba3e34f2"
    }
  } ]
}