{
  "resourceType": "Bundle",
  "id": "NUMERPass-HepBNewBorn",
  "type": "transaction",
  "entry": [ {
    "fullUrl": "https://madie.cms.gov/Patient/330d00b1-7046-4c61-8afc-e1b4f917e9f5",
    "resource": {
      "resourceType": "Patient",
      "id": "330d00b1-7046-4c61-8afc-e1b4f917e9f5",
      "meta": {
        "profile": [ "http://hl7.org/fhir/us/qicore/StructureDefinition/qicore-patient" ]
      },
      "extension": [ {
        "url": "http://hl7.org/fhir/us/core/StructureDefinition/us-core-race",
        "extension": [ {
          "url": "ombCategory",
          "valueCoding": {
            "system": "urn:oid:2.16.840.1.113883.6.238",
            "code": "2028-9",
            "display": "Asian"
          }
        }, {
          "url": "text",
          "valueString": "Asian"
        } ]
      }, {
        "url": "http://hl7.org/fhir/us/core/StructureDefinition/us-core-ethnicity",
        "extension": [ {
          "url": "ombCategory",
          "valueCoding": {
            "system": "urn:oid:2.16.840.1.113883.6.238",
            "code": "2135-2",
            "display": "Hispanic or Latino"
          }
        }, {
          "url": "text",
          "valueString": "Hispanic or Latino"
        } ]
      } ],
      "identifier": [ {
        "system": "http://hospital.smarthealthit.org",
        "value": "999999995"
      } ],
      "name": [ {
        "family": "Bertha",
        "given": [ "Betty" ]
      } ],
      "gender": "female",
      "birthDate": "2024-01-01"
    },
    "request": {
      "method": "PUT",
      "url": "Patient/330d00b1-7046-4c61-8afc-e1b4f917e9f5"
    }
  }, {
    "fullUrl": "https://madie.cms.gov/Encounter/b4066358-fc09-4104-953d-d678642bf348",
    "resource": {
      "resourceType": "Encounter",
      "id": "b4066358-fc09-4104-953d-d678642bf348",
      "meta": {
        "profile": [ "http://hl7.org/fhir/us/qicore/StructureDefinition/qicore-encounter" ]
      },
      "status": "finished",
      "class": {
        "system": "http://terminology.hl7.org/CodeSystem/v3-ActCode",
        "code": "AMB",
        "display": "ambulatory"
      },
      "type": [ {
        "coding": [ {
          "system": "http://snomed.info/sct",
          "code": "185317003",
          "display": "Telephone encounter (procedure)"
        } ]
      } ],
      "subject": {
        "reference": "Patient/330d00b1-7046-4c61-8afc-e1b4f917e9f5"
      },
      "period": {
        "start": "2026-01-01T01:00:00.000+00:00",
        "end": "2026-01-01T01:15:00.000+00:00"
      }
    },
    "request": {
      "method": "PUT",
      "url": "Encounter/b4066358-fc09-4104-953d-d678642bf348"
    }
  }, {
    "fullUrl": "https://madie.cms.gov/Immunization/5dcc5e49-d864-474e-9ef3-e9976fdf27c8",
    "resource": {
      "resourceType": "Immunization",
      "id": "5dcc5e49-d864-474e-9ef3-e9976fdf27c8",
      "meta": {
        "profile": [ "http://hl7.org/fhir/us/qicore/StructureDefinition/qicore-immunization" ]
      },
      "status": "completed",
      "vaccineCode": {
        "coding": [ {
          "system": "http://hl7.org/fhir/sid/cvx",
          "code": "146",
          "display": "DTaP,IPV,Hib,HepB"
        } ]
      },
      "patient": {
        "reference": "Patient/330d00b1-7046-4c61-8afc-e1b4f917e9f5"
      },
      "occurrenceDateTime": "2025-01-02T00:00:00.000+00:00",
      "recorded": "2025-01-02T00:00:00.000+00:00",
      "primarySource": true
    },
    "request": {
      "method": "PUT",
      "url": "Immunization/5dcc5e49-d864-474e-9ef3-e9976fdf27c8"
    }
  }, {
    "fullUrl": "https://madie.cms.gov/Immunization/01ee89e0-afa7-40d7-8c58-14a88556bbf1",
    "resource": {
      "resourceType": "Immunization",
      "id": "01ee89e0-afa7-40d7-8c58-14a88556bbf1",
      "meta": {
        "profile": [ "http://hl7.org/fhir/us/qicore/StructureDefinition/qicore-immunization" ]
      },
      "status": "completed",
      "vaccineCode": {
        "coding": [ {
          "system": "http://hl7.org/fhir/sid/cvx",
          "code": "146",
          "display": "DTaP,IPV,Hib,HepB"
        } ]
      },
      "patient": {
        "reference": "Patient/330d00b1-7046-4c61-8afc-e1b4f917e9f5"
      },
      "occurrenceDateTime": "2025-01-05T00:00:00.000+00:00",
      "recorded": "2025-01-02T00:00:00.000+00:00",
      "primarySource": true
    },
    "request": {
      "method": "PUT",
      "url": "Immunization/01ee89e0-afa7-40d7-8c58-14a88556bbf1"
    }
  }, {
    "fullUrl": "https://madie.cms.gov/Immunization/8560cdcd-f195-4d76-8786-543041f87fbb",
    "resource": {
      "resourceType": "Immunization",
      "id": "8560cdcd-f195-4d76-8786-543041f87fbb",
      "meta": {
        "profile": [ "http://hl7.org/fhir/us/qicore/StructureDefinition/qicore-immunization" ]
      },
      "status": "completed",
      "vaccineCode": {
        "coding": [ {
          "system": "http://hl7.org/fhir/sid/cvx",
          "code": "146",
          "display": "DTaP,IPV,Hib,HepB"
        } ]
      },
      "patient": {
        "reference": "Patient/330d00b1-7046-4c61-8afc-e1b4f917e9f5"
      },
      "occurrenceDateTime": "2025-01-07T00:00:00.000+00:00",
      "recorded": "2025-01-02T00:00:00.000+00:00",
      "primarySource": true
    },
    "request": {
      "method": "PUT",
      "url": "Immunization/8560cdcd-f195-4d76-8786-543041f87fbb"
    }
  }, {
    "fullUrl": "https://madie.cms.gov/Immunization/526f2a71-602f-454d-81aa-f4c2c78d0e32",
    "resource": {
      "resourceType": "Immunization",
      "id": "526f2a71-602f-454d-81aa-f4c2c78d0e32",
      "meta": {
        "profile": [ "http://hl7.org/fhir/us/qicore/StructureDefinition/qicore-immunization" ]
      },
      "status": "completed",
      "vaccineCode": {
        "coding": [ {
          "system": "http://hl7.org/fhir/sid/cvx",
          "code": "146",
          "display": "DTaP,IPV,Hib,HepB"
        } ]
      },
      "patient": {
        "reference": "Patient/330d00b1-7046-4c61-8afc-e1b4f917e9f5"
      },
      "occurrenceDateTime": "2025-01-10T00:00:00.000+00:00",
      "recorded": "2025-01-02T00:00:00.000+00:00",
      "primarySource": true
    },
    "request": {
      "method": "PUT",
      "url": "Immunization/526f2a71-602f-454d-81aa-f4c2c78d0e32"
    }
  }, {
    "fullUrl": "https://madie.cms.gov/Immunization/f5cbad42-9476-4aa7-9cf6-b4572e42c5f6",
    "resource": {
      "resourceType": "Immunization",
      "id": "f5cbad42-9476-4aa7-9cf6-b4572e42c5f6",
      "meta": {
        "profile": [ "http://hl7.org/fhir/us/qicore/StructureDefinition/qicore-immunization" ]
      },
      "status": "completed",
      "vaccineCode": {
        "coding": [ {
          "system": "http://hl7.org/fhir/sid/cvx",
          "code": "146",
          "display": "DTaP,IPV,Hib,HepB"
        } ]
      },
      "patient": {
        "reference": "Patient/330d00b1-7046-4c61-8afc-e1b4f917e9f5"
      },
      "occurrenceDateTime": "2025-01-02T00:00:00.000+00:00",
      "recorded": "2025-01-02T00:00:00.000+00:00",
      "primarySource": true
    },
    "request": {
      "method": "PUT",
      "url": "Immunization/f5cbad42-9476-4aa7-9cf6-b4572e42c5f6"
    }
  }, {
    "fullUrl": "https://madie.cms.gov/Immunization/2af95cdd-ed9b-444f-8644-90cd0a17a26e",
    "resource": {
      "resourceType": "Immunization",
      "id": "2af95cdd-ed9b-444f-8644-90cd0a17a26e",
      "meta": {
        "profile": [ "http://hl7.org/fhir/us/qicore/StructureDefinition/qicore-immunization" ]
      },
      "status": "completed",
      "vaccineCode": {
        "coding": [ {
          "system": "http://hl7.org/fhir/sid/cvx",
          "code": "146",
          "display": "DTaP,IPV,Hib,HepB"
        } ]
      },
      "patient": {
        "reference": "Patient/330d00b1-7046-4c61-8afc-e1b4f917e9f5"
      },
      "occurrenceDateTime": "2025-01-06T00:00:00.000+00:00",
      "recorded": "2025-01-02T00:00:00.000+00:00",
      "primarySource": true
    },
    "request": {
      "method": "PUT",
      "url": "Immunization/2af95cdd-ed9b-444f-8644-90cd0a17a26e"
    }
  }, {
    "fullUrl": "https://madie.cms.gov/Immunization/3ba16e72-3c8d-4fa0-91d7-07831b5f241f",
    "resource": {
      "resourceType": "Immunization",
      "id": "3ba16e72-3c8d-4fa0-91d7-07831b5f241f",
      "meta": {
        "profile": [ "http://hl7.org/fhir/us/qicore/StructureDefinition/qicore-immunization" ]
      },
      "status": "completed",
      "vaccineCode": {
        "coding": [ {
          "system": "http://hl7.org/fhir/sid/cvx",
          "code": "146",
          "display": "DTaP,IPV,Hib,HepB"
        } ]
      },
      "patient": {
        "reference": "Patient/330d00b1-7046-4c61-8afc-e1b4f917e9f5"
      },
      "occurrenceDateTime": "2025-01-09T00:00:00.000+00:00",
      "recorded": "2025-01-02T00:00:00.000+00:00",
      "primarySource": true
    },
    "request": {
      "method": "PUT",
      "url": "Immunization/3ba16e72-3c8d-4fa0-91d7-07831b5f241f"
    }
  }, {
    "fullUrl": "https://madie.cms.gov/Immunization/5b926a2d-7275-4915-937b-f5d73dd72db5",
    "resource": {
      "resourceType": "Immunization",
      "id": "5b926a2d-7275-4915-937b-f5d73dd72db5",
      "meta": {
        "profile": [ "http://hl7.org/fhir/us/qicore/StructureDefinition/qicore-immunization" ]
      },
      "status": "completed",
      "vaccineCode": {
        "coding": [ {
          "system": "http://hl7.org/fhir/sid/cvx",
          "code": "94",
          "display": "measles, mumps, rubella, and varicella virus vaccine"
        } ]
      },
      "patient": {
        "reference": "Patient/330d00b1-7046-4c61-8afc-e1b4f917e9f5"
      },
      "occurrenceDateTime": "2025-01-02T00:00:00.000+00:00",
      "recorded": "2025-01-02T00:00:00.000+00:00",
      "primarySource": true
    },
    "request": {
      "method": "PUT",
      "url": "Immunization/5b926a2d-7275-4915-937b-f5d73dd72db5"
    }
  }, {
    "fullUrl": "https://madie.cms.gov/Immunization/b6637d7f-2b28-4bfa-90aa-b41141f08d56",
    "resource": {
      "resourceType": "Immunization",
      "id": "b6637d7f-2b28-4bfa-90aa-b41141f08d56",
      "meta": {
        "profile": [ "http://hl7.org/fhir/us/qicore/StructureDefinition/qicore-immunization" ]
      },
      "status": "completed",
      "vaccineCode": {
        "coding": [ {
          "system": "http://hl7.org/fhir/sid/cvx",
          "code": "49",
          "display": "Haemophilus influenzae type b vaccine, PRP-OMP conjugate"
        } ]
      },
      "patient": {
        "reference": "Patient/330d00b1-7046-4c61-8afc-e1b4f917e9f5"
      },
      "occurrenceDateTime": "2023-01-02T00:00:00.000+00:00",
      "recorded": "2025-01-02T00:00:00.000+00:00",
      "primarySource": true
    },
    "request": {
      "method": "PUT",
      "url": "Immunization/b6637d7f-2b28-4bfa-90aa-b41141f08d56"
    }
  }, {
    "fullUrl": "https://madie.cms.gov/Immunization/9b1e1aa3-be85-4df2-91c2-95c3f45e468a",
    "resource": {
      "resourceType": "Immunization",
      "id": "9b1e1aa3-be85-4df2-91c2-95c3f45e468a",
      "meta": {
        "profile": [ "http://hl7.org/fhir/us/qicore/StructureDefinition/qicore-immunization" ]
      },
      "status": "completed",
      "vaccineCode": {
        "coding": [ {
          "system": "http://hl7.org/fhir/sid/cvx",
          "code": "49",
          "display": "Haemophilus influenzae type b vaccine, PRP-OMP conjugate"
        } ]
      },
      "patient": {
        "reference": "Patient/330d00b1-7046-4c61-8afc-e1b4f917e9f5"
      },
      "occurrenceDateTime": "2025-01-02T00:00:00.000+00:00",
      "recorded": "2025-01-02T00:00:00.000+00:00",
      "primarySource": true
    },
    "request": {
      "method": "PUT",
      "url": "Immunization/9b1e1aa3-be85-4df2-91c2-95c3f45e468a"
    }
  }, {
    "fullUrl": "https://madie.cms.gov/Immunization/62bfdf48-f779-45f7-be22-bc6fcd8c0a1c",
    "resource": {
      "resourceType": "Immunization",
      "id": "62bfdf48-f779-45f7-be22-bc6fcd8c0a1c",
      "meta": {
        "profile": [ "http://hl7.org/fhir/us/qicore/StructureDefinition/qicore-immunization" ]
      },
      "status": "completed",
      "vaccineCode": {
        "coding": [ {
          "system": "http://hl7.org/fhir/sid/cvx",
          "code": "49",
          "display": "Haemophilus influenzae type b vaccine, PRP-OMP conjugate"
        } ]
      },
      "patient": {
        "reference": "Patient/330d00b1-7046-4c61-8afc-e1b4f917e9f5"
      },
      "occurrenceDateTime": "2025-01-02T00:00:00.000+00:00",
      "recorded": "2025-01-02T00:00:00.000+00:00",
      "primarySource": true
    },
    "request": {
      "method": "PUT",
      "url": "Immunization/62bfdf48-f779-45f7-be22-bc6fcd8c0a1c"
    }
  }, {
    "fullUrl": "https://madie.cms.gov/Procedure/aa9e06f0-4655-4ed4-bf95-72f755bfc0c9",
    "resource": {
      "resourceType": "Procedure",
      "id": "aa9e06f0-4655-4ed4-bf95-72f755bfc0c9",
      "meta": {
        "profile": [ "http://hl7.org/fhir/us/qicore/StructureDefinition/qicore-procedure" ]
      },
      "extension": [ {
        "url": "http://hl7.org/fhir/us/qicore/StructureDefinition/qicore-recorded",
        "valueDateTime": "2026-12-31T00:00:00.000+00:00"
      } ],
      "status": "completed",
      "code": {
        "coding": [ {
          "system": "http://www.cms.gov/Medicare/Coding/ICD10",
          "code": "3E0234Z",
          "display": "Introduction of Serum, Toxoid and Vaccine into Muscle, Percutaneous Approach"
        } ]
      },
      "subject": {
        "reference": "Patient/330d00b1-7046-4c61-8afc-e1b4f917e9f5"
      },
      "performedPeriod": {
        "start": "2023-01-03T00:00:00.000+00:00",
        "end": "2023-01-03T23:59:59.000+00:00"
      }
    },
    "request": {
      "method": "PUT",
      "url": "Procedure/aa9e06f0-4655-4ed4-bf95-72f755bfc0c9"
    }
  }, {
    "fullUrl": "https://madie.cms.gov/Immunization/e0d067cb-975c-40ed-84aa-2fa87626a5e3",
    "resource": {
      "resourceType": "Immunization",
      "id": "e0d067cb-975c-40ed-84aa-2fa87626a5e3",
      "meta": {
        "profile": [ "http://hl7.org/fhir/us/qicore/StructureDefinition/qicore-immunization" ]
      },
      "status": "completed",
      "vaccineCode": {
        "coding": [ {
          "system": "http://hl7.org/fhir/sid/cvx",
          "code": "51",
          "display": "Haemophilus influenzae type b conjugate and Hepatitis B vaccine"
        } ]
      },
      "patient": {
        "reference": "Patient/330d00b1-7046-4c61-8afc-e1b4f917e9f5"
      },
      "occurrenceDateTime": "2025-01-10T00:00:00.000+00:00",
      "recorded": "2025-01-02T00:00:00.000+00:00",
      "primarySource": true
    },
    "request": {
      "method": "PUT",
      "url": "Immunization/e0d067cb-975c-40ed-84aa-2fa87626a5e3"
    }
  }, {
    "fullUrl": "https://madie.cms.gov/Immunization/e2d9f8f1-f023-4296-a58e-354b68dc2048",
    "resource": {
      "resourceType": "Immunization",
      "id": "e2d9f8f1-f023-4296-a58e-354b68dc2048",
      "meta": {
        "profile": [ "http://hl7.org/fhir/us/qicore/StructureDefinition/qicore-immunization" ]
      },
      "status": "completed",
      "vaccineCode": {
        "coding": [ {
          "system": "http://hl7.org/fhir/sid/cvx",
          "code": "51",
          "display": "Haemophilus influenzae type b conjugate and Hepatitis B vaccine"
        } ]
      },
      "patient": {
        "reference": "Patient/330d00b1-7046-4c61-8afc-e1b4f917e9f5"
      },
      "occurrenceDateTime": "2025-01-12T00:00:00.000+00:00",
      "recorded": "2025-01-02T00:00:00.000+00:00",
      "primarySource": true
    },
    "request": {
      "method": "PUT",
      "url": "Immunization/e2d9f8f1-f023-4296-a58e-354b68dc2048"
    }
  }, {
    "fullUrl": "https://madie.cms.gov/Immunization/218e2ab1-00f0-47f1-ba45-7b8e6d1c6148",
    "resource": {
      "resourceType": "Immunization",
      "id": "218e2ab1-00f0-47f1-ba45-7b8e6d1c6148",
      "meta": {
        "profile": [ "http://hl7.org/fhir/us/qicore/StructureDefinition/qicore-immunization" ]
      },
      "status": "completed",
      "vaccineCode": {
        "coding": [ {
          "system": "http://hl7.org/fhir/sid/cvx",
          "code": "94",
          "display": "measles, mumps, rubella, and varicella virus vaccine"
        } ]
      },
      "patient": {
        "reference": "Patient/330d00b1-7046-4c61-8afc-e1b4f917e9f5"
      },
      "occurrenceDateTime": "2025-01-02T00:00:00.000+00:00",
      "recorded": "2025-01-02T00:00:00.000+00:00",
      "primarySource": true
    },
    "request": {
      "method": "PUT",
      "url": "Immunization/218e2ab1-00f0-47f1-ba45-7b8e6d1c6148"
    }
  }, {
    "fullUrl": "https://madie.cms.gov/Immunization/2c079f69-f0bc-4bc6-be43-625389e1704b",
    "resource": {
      "resourceType": "Immunization",
      "id": "2c079f69-f0bc-4bc6-be43-625389e1704b",
      "meta": {
        "profile": [ "http://hl7.org/fhir/us/qicore/StructureDefinition/qicore-immunization" ]
      },
      "status": "completed",
      "vaccineCode": {
        "coding": [ {
          "system": "http://hl7.org/fhir/sid/cvx",
          "code": "215",
          "display": "Pneumococcal conjugate vaccine 15-valent (PCV15), polysaccharide CRM197 conjugate, adjuvant, preservative free"
        } ]
      },
      "patient": {
        "reference": "Patient/330d00b1-7046-4c61-8afc-e1b4f917e9f5"
      },
      "occurrenceDateTime": "2025-01-12T00:00:00.000+00:00",
      "recorded": "2025-01-02T00:00:00.000+00:00",
      "primarySource": true
    },
    "request": {
      "method": "PUT",
      "url": "Immunization/2c079f69-f0bc-4bc6-be43-625389e1704b"
    }
  }, {
    "fullUrl": "https://madie.cms.gov/Immunization/91b39c00-c304-43ba-92d3-cc0ee56bdbc0",
    "resource": {
      "resourceType": "Immunization",
      "id": "91b39c00-c304-43ba-92d3-cc0ee56bdbc0",
      "meta": {
        "profile": [ "http://hl7.org/fhir/us/qicore/StructureDefinition/qicore-immunization" ]
      },
      "status": "completed",
      "vaccineCode": {
        "coding": [ {
          "system": "http://hl7.org/fhir/sid/cvx",
          "code": "215",
          "display": "Pneumococcal conjugate vaccine 15-valent (PCV15), polysaccharide CRM197 conjugate, adjuvant, preservative free"
        } ]
      },
      "patient": {
        "reference": "Patient/330d00b1-7046-4c61-8afc-e1b4f917e9f5"
      },
      "occurrenceDateTime": "2025-01-14T00:00:00.000+00:00",
      "recorded": "2025-01-02T00:00:00.000+00:00",
      "primarySource": true
    },
    "request": {
      "method": "PUT",
      "url": "Immunization/91b39c00-c304-43ba-92d3-cc0ee56bdbc0"
    }
  }, {
    "fullUrl": "https://madie.cms.gov/Immunization/a33ad428-7846-4119-a224-2c66cfc0d7ee",
    "resource": {
      "resourceType": "Immunization",
      "id": "a33ad428-7846-4119-a224-2c66cfc0d7ee",
      "meta": {
        "profile": [ "http://hl7.org/fhir/us/qicore/StructureDefinition/qicore-immunization" ]
      },
      "status": "completed",
      "vaccineCode": {
        "coding": [ {
          "system": "http://hl7.org/fhir/sid/cvx",
          "code": "215",
          "display": "Pneumococcal conjugate vaccine 15-valent (PCV15), polysaccharide CRM197 conjugate, adjuvant, preservative free"
        } ]
      },
      "patient": {
        "reference": "Patient/330d00b1-7046-4c61-8afc-e1b4f917e9f5"
      },
      "occurrenceDateTime": "2025-01-20T00:00:00.000+00:00",
      "recorded": "2025-01-02T00:00:00.000+00:00",
      "primarySource": true
    },
    "request": {
      "method": "PUT",
      "url": "Immunization/a33ad428-7846-4119-a224-2c66cfc0d7ee"
    }
  }, {
    "fullUrl": "https://madie.cms.gov/Immunization/95d8a385-213b-43d9-9941-57c3fe091dfd",
    "resource": {
      "resourceType": "Immunization",
      "id": "95d8a385-213b-43d9-9941-57c3fe091dfd",
      "meta": {
        "profile": [ "http://hl7.org/fhir/us/qicore/StructureDefinition/qicore-immunization" ]
      },
      "status": "completed",
      "vaccineCode": {
        "coding": [ {
          "system": "http://hl7.org/fhir/sid/cvx",
          "code": "215",
          "display": "Pneumococcal conjugate vaccine 15-valent (PCV15), polysaccharide CRM197 conjugate, adjuvant, preservative free"
        } ]
      },
      "patient": {
        "reference": "Patient/330d00b1-7046-4c61-8afc-e1b4f917e9f5"
      },
      "occurrenceDateTime": "2025-01-22T00:00:00.000+00:00",
      "recorded": "2025-01-02T00:00:00.000+00:00",
      "primarySource": true
    },
    "request": {
      "method": "PUT",
      "url": "Immunization/95d8a385-213b-43d9-9941-57c3fe091dfd"
    }
  }, {
    "fullUrl": "https://madie.cms.gov/Immunization/8c3acae7-7130-4a21-91ac-1f5a04d87090",
    "resource": {
      "resourceType": "Immunization",
      "id": "8c3acae7-7130-4a21-91ac-1f5a04d87090",
      "meta": {
        "profile": [ "http://hl7.org/fhir/us/qicore/StructureDefinition/qicore-immunization" ]
      },
      "status": "completed",
      "vaccineCode": {
        "coding": [ {
          "system": "http://hl7.org/fhir/sid/cvx",
          "code": "85",
          "display": "hepatitis A vaccine, unspecified formulation"
        } ]
      },
      "patient": {
        "reference": "Patient/330d00b1-7046-4c61-8afc-e1b4f917e9f5"
      },
      "occurrenceDateTime": "2025-01-02T00:00:00.000+00:00",
      "recorded": "2025-01-02T00:00:00.000+00:00",
      "primarySource": true
    },
    "request": {
      "method": "PUT",
      "url": "Immunization/8c3acae7-7130-4a21-91ac-1f5a04d87090"
    }
  }, {
    "fullUrl": "https://madie.cms.gov/Immunization/62b0a264-32ff-4faf-bffe-28af5b1cd563",
    "resource": {
      "resourceType": "Immunization",
      "id": "62b0a264-32ff-4faf-bffe-28af5b1cd563",
      "meta": {
        "profile": [ "http://hl7.org/fhir/us/qicore/StructureDefinition/qicore-immunization" ]
      },
      "status": "completed",
      "vaccineCode": {
        "coding": [ {
          "system": "http://hl7.org/fhir/sid/cvx",
          "code": "119",
          "display": "rotavirus, live, monovalent vaccine"
        } ]
      },
      "patient": {
        "reference": "Patient/330d00b1-7046-4c61-8afc-e1b4f917e9f5"
      },
      "occurrenceDateTime": "2025-01-02T00:00:00.000+00:00",
      "recorded": "2025-01-02T00:00:00.000+00:00",
      "primarySource": true
    },
    "request": {
      "method": "PUT",
      "url": "Immunization/62b0a264-32ff-4faf-bffe-28af5b1cd563"
    }
  }, {
    "fullUrl": "https://madie.cms.gov/Immunization/57189576-61f1-49d4-962b-00fc46690638",
    "resource": {
      "resourceType": "Immunization",
      "id": "57189576-61f1-49d4-962b-00fc46690638",
      "meta": {
        "profile": [ "http://hl7.org/fhir/us/qicore/StructureDefinition/qicore-immunization" ]
      },
      "status": "completed",
      "vaccineCode": {
        "coding": [ {
          "system": "http://hl7.org/fhir/sid/cvx",
          "code": "119",
          "display": "rotavirus, live, monovalent vaccine"
        } ]
      },
      "patient": {
        "reference": "Patient/330d00b1-7046-4c61-8afc-e1b4f917e9f5"
      },
      "occurrenceDateTime": "2025-01-07T00:00:00.000+00:00",
      "recorded": "2025-01-02T00:00:00.000+00:00",
      "primarySource": true
    },
    "request": {
      "method": "PUT",
      "url": "Immunization/57189576-61f1-49d4-962b-00fc46690638"
    }
  }, {
    "fullUrl": "https://madie.cms.gov/Immunization/b79864f0-7460-4bde-9652-e247987d59de",
    "resource": {
      "resourceType": "Immunization",
      "id": "b79864f0-7460-4bde-9652-e247987d59de",
      "meta": {
        "profile": [ "http://hl7.org/fhir/us/qicore/StructureDefinition/qicore-immunization" ]
      },
      "status": "completed",
      "vaccineCode": {
        "coding": [ {
          "system": "http://hl7.org/fhir/sid/cvx",
          "code": "153",
          "display": "Influenza, injectable, MDCK, preservative free"
        } ]
      },
      "patient": {
        "reference": "Patient/330d00b1-7046-4c61-8afc-e1b4f917e9f5"
      },
      "occurrenceDateTime": "2025-01-02T00:00:00.000+00:00",
      "recorded": "2025-01-02T00:00:00.000+00:00",
      "primarySource": true
    },
    "request": {
      "method": "PUT",
      "url": "Immunization/b79864f0-7460-4bde-9652-e247987d59de"
    }
  }, {
    "fullUrl": "https://madie.cms.gov/Immunization/d2b6841d-c9aa-4305-bedc-743a180025e9",
    "resource": {
      "resourceType": "Immunization",
      "id": "d2b6841d-c9aa-4305-bedc-743a180025e9",
      "meta": {
        "profile": [ "http://hl7.org/fhir/us/qicore/StructureDefinition/qicore-immunization" ]
      },
      "status": "completed",
      "vaccineCode": {
        "coding": [ {
          "system": "http://hl7.org/fhir/sid/cvx",
          "code": "153",
          "display": "Influenza, injectable, MDCK, preservative free"
        } ]
      },
      "patient": {
        "reference": "Patient/330d00b1-7046-4c61-8afc-e1b4f917e9f5"
      },
      "occurrenceDateTime": "2025-01-10T00:00:00.000+00:00",
      "recorded": "2025-01-02T00:00:00.000+00:00",
      "primarySource": true
    },
    "request": {
      "method": "PUT",
      "url": "Immunization/d2b6841d-c9aa-4305-bedc-743a180025e9"
    }
  }, {
    "fullUrl": "https://madie.cms.gov/MeasureReport/1bd8e39a-566a-4cda-ba50-322929f9abea",
    "resource": {
      "resourceType": "MeasureReport",
      "id": "1bd8e39a-566a-4cda-ba50-322929f9abea",
      "meta": {
        "profile": [ "http://hl7.org/fhir/us/cqfmeasures/StructureDefinition/test-case-cqfm" ]
      },
      "contained": [ {
        "resourceType": "Parameters",
        "id": "d9a31e92-ffdd-4c30-ae19-6b298a2d1158-parameters",
        "parameter": [ {
          "name": "subject",
          "valueString": "330d00b1-7046-4c61-8afc-e1b4f917e9f5"
        } ]
      } ],
      "extension": [ {
        "url": "http://hl7.org/fhir/StructureDefinition/cqf-inputParameters",
        "valueReference": {
          "reference": "#d9a31e92-ffdd-4c30-ae19-6b298a2d1158-parameters"
        }
      }, {
        "url": "http://hl7.org/fhir/us/cqfmeasures/StructureDefinition/cqfm-testCaseDescription",
        "valueMarkdown": "Patient has Hep B within 8 days of birth"
      } ],
      "modifierExtension": [ {
        "url": "http://hl7.org/fhir/us/cqfmeasures/StructureDefinition/cqfm-isTestCase",
        "valueBoolean": true
      } ],
      "status": "complete",
      "type": "individual",
      "measure": "https://madie.cms.gov/Measure/CMS117FHIRChildImmunStatus",
      "period": {
        "start": "2026-01-01",
        "end": "2026-12-31"
      },
      "group": [ {
        "id": "Group_1",
        "population": [ {
          "id": "InitialPopulation_1",
          "code": {
            "coding": [ {
              "system": "http://terminology.hl7.org/CodeSystem/measure-population",
              "code": "initial-population",
              "display": "Initial Population"
            } ]
          },
          "count": 1
        }, {
          "id": "Denominator_1",
          "code": {
            "coding": [ {
              "system": "http://terminology.hl7.org/CodeSystem/measure-population",
              "code": "denominator",
              "display": "Denominator"
            } ]
          },
          "count": 1
        }, {
          "id": "DenominatorExclusion_1",
          "code": {
            "coding": [ {
              "system": "http://terminology.hl7.org/CodeSystem/measure-population",
              "code": "denominator-exclusion",
              "display": "Denominator Exclusion"
            } ]
          },
          "count": 0
        }, {
          "id": "Numerator_1",
          "code": {
            "coding": [ {
              "system": "http://terminology.hl7.org/CodeSystem/measure-population",
              "code": "numerator",
              "display": "Numerator"
            } ]
          },
          "count": 1
        } ],
        "measureScore": {
          "value": 1.0
        }
      } ],
      "evaluatedResource": [ {
        "reference": "Patient/330d00b1-7046-4c61-8afc-e1b4f917e9f5"
      }, {
        "reference": "Encounter/b4066358-fc09-4104-953d-d678642bf348"
      }, {
        "reference": "Immunization/5dcc5e49-d864-474e-9ef3-e9976fdf27c8"
      }, {
        "reference": "Immunization/01ee89e0-afa7-40d7-8c58-14a88556bbf1"
      }, {
        "reference": "Immunization/8560cdcd-f195-4d76-8786-543041f87fbb"
      }, {
        "reference": "Immunization/526f2a71-602f-454d-81aa-f4c2c78d0e32"
      }, {
        "reference": "Immunization/f5cbad42-9476-4aa7-9cf6-b4572e42c5f6"
      }, {
        "reference": "Immunization/2af95cdd-ed9b-444f-8644-90cd0a17a26e"
      }, {
        "reference": "Immunization/3ba16e72-3c8d-4fa0-91d7-07831b5f241f"
      }, {
        "reference": "Immunization/5b926a2d-7275-4915-937b-f5d73dd72db5"
      }, {
        "reference": "Immunization/b6637d7f-2b28-4bfa-90aa-b41141f08d56"
      }, {
        "reference": "Immunization/9b1e1aa3-be85-4df2-91c2-95c3f45e468a"
      }, {
        "reference": "Immunization/62bfdf48-f779-45f7-be22-bc6fcd8c0a1c"
      }, {
        "reference": "Procedure/aa9e06f0-4655-4ed4-bf95-72f755bfc0c9"
      }, {
        "reference": "Immunization/e0d067cb-975c-40ed-84aa-2fa87626a5e3"
      }, {
        "reference": "Immunization/e2d9f8f1-f023-4296-a58e-354b68dc2048"
      }, {
        "reference": "Immunization/218e2ab1-00f0-47f1-ba45-7b8e6d1c6148"
      }, {
        "reference": "Immunization/2c079f69-f0bc-4bc6-be43-625389e1704b"
      }, {
        "reference": "Immunization/91b39c00-c304-43ba-92d3-cc0ee56bdbc0"
      }, {
        "reference": "Immunization/a33ad428-7846-4119-a224-2c66cfc0d7ee"
      }, {
        "reference": "Immunization/95d8a385-213b-43d9-9941-57c3fe091dfd"
      }, {
        "reference": "Immunization/8c3acae7-7130-4a21-91ac-1f5a04d87090"
      }, {
        "reference": "Immunization/62b0a264-32ff-4faf-bffe-28af5b1cd563"
      }, {
        "reference": "Immunization/57189576-61f1-49d4-962b-00fc46690638"
      }, {
        "reference": "Immunization/b79864f0-7460-4bde-9652-e247987d59de"
      }, {
        "reference": "Immunization/d2b6841d-c9aa-4305-bedc-743a180025e9"
      } ]
    },
    "request": {
      "method": "PUT",
      "url": "MeasureReport/1bd8e39a-566a-4cda-ba50-322929f9abea"
    }
  } ]
}