{
  "resourceType": "Bundle",
  "id": "62fd4b660968f8012246b012",
  "type": "collection",
  "entry": [ {
    "fullUrl": "https://madie.cms.gov/Patient/dc409230-77aa-4b66-bc1d-84e421089367",
    "resource": {
      "resourceType": "Patient",
      "id": "dc409230-77aa-4b66-bc1d-84e421089367",
      "meta": {
        "profile": [ "http://hl7.org/fhir/us/qicore/StructureDefinition/qicore-patient" ]
      },
      "extension": [ {
        "url": "http://hl7.org/fhir/us/core/StructureDefinition/us-core-race",
        "extension": [ {
          "url": "ombCategory",
          "valueCoding": {
            "system": "urn:oid:2.16.840.1.113883.6.238",
            "code": "2028-9",
            "display": "Asian",
            "userSelected": true
          }
        }, {
          "url": "text",
          "valueString": "Asian"
        } ]
      }, {
        "url": "http://hl7.org/fhir/us/core/StructureDefinition/us-core-ethnicity",
        "extension": [ {
          "url": "ombCategory",
          "valueCoding": {
            "system": "urn:oid:2.16.840.1.113883.6.238",
            "code": "2186-5",
            "display": "Not Hispanic or Latino",
            "userSelected": true
          }
        }, {
          "url": "text",
          "valueString": "Not Hispanic or Latino"
        } ]
      } ],
      "identifier": [ {
        "type": {
          "coding": [ {
            "system": "http://terminology.hl7.org/CodeSystem/v2-0203",
            "code": "MR"
          } ]
        },
        "system": "https://bonnie-fhir.healthit.gov/",
        "value": "62fd4b660968f8012246b012"
      } ],
      "name": [ {
        "family": "DenomPass",
        "given": [ "EncRefNewPsychDRC" ]
      } ],
      "gender": "female",
      "birthDate": "1989-11-29"
    }
  }, {
    "fullUrl": "https://madie.cms.gov/ServiceRequest/754a0ee7-7e92-45b9-b717-539d05402805",
    "resource": {
      "resourceType": "ServiceRequest",
      "id": "754a0ee7-7e92-45b9-b717-539d05402805",
      "meta": {
        "profile": [ "http://hl7.org/fhir/us/qicore/StructureDefinition/qicore-servicerequest" ]
      },
      "status": "completed",
      "intent": "order",
      "code": {
        "coding": [ {
          "system": "http://snomed.info/sct",
          "version": "http://snomed.info/sct/731000124108/version/20250301",
          "code": "103696004",
          "display": "Patient referral to specialist (procedure)",
          "userSelected": true
        } ]
      },
      "subject": {
        "reference": "Patient/dc409230-77aa-4b66-bc1d-84e421089367"
      },
      "authoredOn": "2026-01-01T00:00:00.000+00:00"
    }
  }, {
    "fullUrl": "https://madie.cms.gov/Procedure/e37adca0-11f4-4249-b136-6c956c8b49b3",
    "resource": {
      "resourceType": "Procedure",
      "id": "e37adca0-11f4-4249-b136-6c956c8b49b3",
      "meta": {
        "profile": [ "http://hl7.org/fhir/us/qicore/StructureDefinition/qicore-procedure" ]
      },
      "extension": [ {
        "url": "http://hl7.org/fhir/us/qicore/StructureDefinition/qicore-recorded",
        "valueDateTime": "2026-01-01T00:00:00.000+00:00"
      } ],
      "status": "completed",
      "code": {
        "coding": [ {
          "system": "http://www.ama-assn.org/go/cpt",
          "version": "2021",
          "code": "96136",
          "display": "Psychological or neuropsychological test administration and scoring by physician or other qualified health care professional, two or more tests, any method; first 30 minutes",
          "userSelected": true
        } ]
      },
      "subject": {
        "reference": "Patient/dc409230-77aa-4b66-bc1d-84e421089367"
      },
      "performedDateTime": "2026-01-01T00:00:00.000+00:00"
    }
  }, {
    "fullUrl": "https://madie.cms.gov/Coverage/3f296c5e-ce84-4527-8813-e0c1be5ad684",
    "resource": {
      "resourceType": "Coverage",
      "id": "3f296c5e-ce84-4527-8813-e0c1be5ad684",
      "meta": {
        "profile": [ "http://hl7.org/fhir/us/qicore/StructureDefinition/qicore-coverage" ]
      },
      "status": "active",
      "subscriberId": "123456",
      "beneficiary": {
        "reference": "Patient/dc409230-77aa-4b66-bc1d-84e421089367"
      },
      "relationship": {
        "coding": [ {
          "system": "http://terminology.hl7.org/CodeSystem/subscriber-relationship",
          "code": "self",
          "display": "Self"
        } ]
      },
      "payor": [ {
        "reference": "Organization/3175e9b5-0b09-4233-b282-ea8eec546a9c"
      } ]
    }
  }, {
    "fullUrl": "https://madie.cms.gov/Organization/3175e9b5-0b09-4233-b282-ea8eec546a9c",
    "resource": {
      "resourceType": "Organization",
      "id": "3175e9b5-0b09-4233-b282-ea8eec546a9c",
      "meta": {
        "profile": [ "http://hl7.org/fhir/us/qicore/StructureDefinition/qicore-organization" ]
      },
      "identifier": [ {
        "use": "temp",
        "system": "urn:oid:2.16.840.1.113883.4.4",
        "value": "21-3259825"
      } ],
      "active": true,
      "type": [ {
        "coding": [ {
          "system": "http://terminology.hl7.org/CodeSystem/organization-type",
          "code": "pay",
          "display": "Payer"
        } ]
      } ],
      "name": "Blue Cross Blue Shield of Texas",
      "telecom": [ {
        "system": "phone",
        "value": "(+1) 972-766-6900"
      } ],
      "address": [ {
        "use": "billing",
        "type": "postal",
        "line": [ "P.O. Box 660044" ],
        "city": "Dallas",
        "state": "TX",
        "postalCode": "75266-0044",
        "country": "USA"
      } ]
    }
  }, {
    "fullUrl": "https://madie.cms.gov/Practitioner/f3b7474b-b83a-49de-be77-8d5f02a3eccc",
    "resource": {
      "resourceType": "Practitioner",
      "id": "f3b7474b-b83a-49de-be77-8d5f02a3eccc",
      "meta": {
        "profile": [ "http://hl7.org/fhir/us/qicore/StructureDefinition/qicore-practitioner" ]
      },
      "identifier": [ {
        "system": "http://hl7.org/fhir/sid/us-npi",
        "value": "1689411712"
      } ],
      "name": [ {
        "family": "Evil",
        "prefix": [ "Dr" ]
      } ]
    }
  }, {
    "fullUrl": "https://madie.cms.gov/MeasureReport/6937234f-dafe-4e7c-8108-f31f24b101d4",
    "resource": {
      "resourceType": "MeasureReport",
      "id": "6937234f-dafe-4e7c-8108-f31f24b101d4",
      "meta": {
        "profile": [ "http://hl7.org/fhir/us/cqfmeasures/StructureDefinition/test-case-cqfm" ]
      },
      "contained": [ {
        "resourceType": "Parameters",
        "id": "964521a4-0faf-4f9f-ab38-4af200f0e6e3-parameters",
        "parameter": [ {
          "name": "subject",
          "valueString": "dc409230-77aa-4b66-bc1d-84e421089367"
        } ]
      } ],
      "extension": [ {
        "url": "http://hl7.org/fhir/StructureDefinition/cqf-inputParameters",
        "valueReference": {
          "reference": "#964521a4-0faf-4f9f-ab38-4af200f0e6e3-parameters"
        }
      }, {
        "url": "http://hl7.org/fhir/us/cqfmeasures/StructureDefinition/cqfm-testCaseDescription",
        "valueMarkdown": "Enc starts first minute of MP and ends in 59 minutes, referral order made."
      } ],
      "modifierExtension": [ {
        "url": "http://hl7.org/fhir/us/cqfmeasures/StructureDefinition/cqfm-isTestCase",
        "valueBoolean": true
      } ],
      "status": "complete",
      "type": "individual",
      "measure": "https://madie.cms.gov/Measure/CMS50FHIRReceiptofSpecialistReport",
      "period": {
        "start": "2026-01-01",
        "end": "2026-12-31"
      },
      "group": [ {
        "id": "Group_1",
        "population": [ {
          "id": "InitialPopulation_1",
          "code": {
            "coding": [ {
              "system": "http://terminology.hl7.org/CodeSystem/measure-population",
              "code": "initial-population",
              "display": "Initial Population"
            } ]
          },
          "count": 1
        }, {
          "id": "Denominator_1",
          "code": {
            "coding": [ {
              "system": "http://terminology.hl7.org/CodeSystem/measure-population",
              "code": "denominator",
              "display": "Denominator"
            } ]
          },
          "count": 1
        }, {
          "id": "Numerator_1",
          "code": {
            "coding": [ {
              "system": "http://terminology.hl7.org/CodeSystem/measure-population",
              "code": "numerator",
              "display": "Numerator"
            } ]
          },
          "count": 0
        } ],
        "measureScore": {
          "value": 1.0
        }
      } ],
      "evaluatedResource": [ {
        "reference": "Patient/dc409230-77aa-4b66-bc1d-84e421089367"
      }, {
        "reference": "ServiceRequest/754a0ee7-7e92-45b9-b717-539d05402805"
      }, {
        "reference": "Procedure/e37adca0-11f4-4249-b136-6c956c8b49b3"
      }, {
        "reference": "Coverage/3f296c5e-ce84-4527-8813-e0c1be5ad684"
      }, {
        "reference": "Organization/3175e9b5-0b09-4233-b282-ea8eec546a9c"
      }, {
        "reference": "Practitioner/f3b7474b-b83a-49de-be77-8d5f02a3eccc"
      } ]
    }
  } ]
}