{
  "resourceType": "Bundle",
  "id": "64137b3e4b11b147841ab8f7",
  "type": "transaction",
  "entry": [ {
    "fullUrl": "https://madie.cms.gov/Patient/56063388-7942-4a1d-8568-2d805d31ad30",
    "resource": {
      "resourceType": "Patient",
      "id": "56063388-7942-4a1d-8568-2d805d31ad30",
      "meta": {
        "profile": [ "http://hl7.org/fhir/us/qicore/StructureDefinition/qicore-patient" ]
      },
      "extension": [ {
        "url": "http://hl7.org/fhir/us/core/StructureDefinition/us-core-race",
        "extension": [ {
          "url": "ombCategory",
          "valueCoding": {
            "system": "urn:oid:2.16.840.1.113883.6.238",
            "code": "2076-8",
            "display": "Native Hawaiian or Other Pacific Islander",
            "userSelected": true
          }
        }, {
          "url": "text",
          "valueString": "Native Hawaiian or Other Pacific Islander"
        } ]
      }, {
        "url": "http://hl7.org/fhir/us/core/StructureDefinition/us-core-ethnicity",
        "extension": [ {
          "url": "ombCategory",
          "valueCoding": {
            "system": "urn:oid:2.16.840.1.113883.6.238",
            "code": "2186-5",
            "display": "Not Hispanic or Latino",
            "userSelected": true
          }
        }, {
          "url": "text",
          "valueString": "Not Hispanic or Latino"
        } ]
      } ],
      "identifier": [ {
        "type": {
          "coding": [ {
            "system": "http://terminology.hl7.org/CodeSystem/v2-0203",
            "code": "MR"
          } ]
        },
        "system": "https://bonnie-fhir.healthit.gov/",
        "value": "64137b3e4b11b147841ab8f7"
      } ],
      "name": [ {
        "family": "DENOMPass",
        "given": [ "DiabetesOverlapsMPWithConfirmedVerificationStatus" ]
      } ],
      "gender": "female",
      "birthDate": "1999-01-01"
    },
    "request": {
      "method": "PUT",
      "url": "Patient/56063388-7942-4a1d-8568-2d805d31ad30"
    }
  }, {
    "fullUrl": "https://madie.cms.gov/Condition/ae7e70f1-f08f-437d-b07d-8f9baa3ad9a8",
    "resource": {
      "resourceType": "Condition",
      "id": "ae7e70f1-f08f-437d-b07d-8f9baa3ad9a8",
      "meta": {
        "profile": [ "http://hl7.org/fhir/us/qicore/StructureDefinition/qicore-condition-encounter-diagnosis" ]
      },
      "clinicalStatus": {
        "coding": [ {
          "system": "http://terminology.hl7.org/CodeSystem/condition-clinical",
          "code": "active",
          "display": "active",
          "userSelected": true
        } ]
      },
      "verificationStatus": {
        "coding": [ {
          "system": "http://terminology.hl7.org/CodeSystem/condition-ver-status",
          "code": "confirmed"
        } ]
      },
      "category": [ {
        "coding": [ {
          "system": "http://terminology.hl7.org/CodeSystem/condition-category",
          "code": "encounter-diagnosis",
          "display": "Encounter Diagnosis",
          "userSelected": true
        } ]
      } ],
      "code": {
        "coding": [ {
          "system": "http://snomed.info/sct",
          "version": "2021-09",
          "code": "102781000119107",
          "display": "Sensory neuropathy due to type 1 diabetes mellitus (disorder)",
          "userSelected": true
        } ]
      },
      "subject": {
        "reference": "Patient/56063388-7942-4a1d-8568-2d805d31ad30"
      },
      "onsetDateTime": "2025-07-01T08:00:00.000+00:00",
      "recordedDate": "2026-03-16T08:00:00.000+00:00"
    },
    "request": {
      "method": "PUT",
      "url": "Condition/ae7e70f1-f08f-437d-b07d-8f9baa3ad9a8"
    }
  }, {
    "fullUrl": "https://madie.cms.gov/Encounter/e949a1f2-bf1a-489d-b5b6-4f52eb745dac",
    "resource": {
      "resourceType": "Encounter",
      "id": "e949a1f2-bf1a-489d-b5b6-4f52eb745dac",
      "meta": {
        "profile": [ "http://hl7.org/fhir/us/qicore/StructureDefinition/qicore-encounter" ]
      },
      "status": "finished",
      "class": {
        "system": "http://terminology.hl7.org/CodeSystem/v3-ActCode",
        "code": "AMB",
        "display": "ambulatory",
        "userSelected": true
      },
      "type": [ {
        "coding": [ {
          "system": "http://snomed.info/sct",
          "version": "2021-09",
          "code": "444971000124105",
          "display": "Annual wellness visit (procedure)",
          "userSelected": true
        } ]
      } ],
      "subject": {
        "reference": "Patient/56063388-7942-4a1d-8568-2d805d31ad30"
      },
      "period": {
        "start": "2026-03-16T08:00:00.000+00:00",
        "end": "2026-03-16T08:15:00.000+00:00"
      }
    },
    "request": {
      "method": "PUT",
      "url": "Encounter/e949a1f2-bf1a-489d-b5b6-4f52eb745dac"
    }
  }, {
    "fullUrl": "https://madie.cms.gov/MeasureReport/45207130-0a0c-4bb7-ac92-390de10c9638",
    "resource": {
      "resourceType": "MeasureReport",
      "id": "45207130-0a0c-4bb7-ac92-390de10c9638",
      "meta": {
        "profile": [ "http://hl7.org/fhir/us/cqfmeasures/StructureDefinition/test-case-cqfm" ]
      },
      "contained": [ {
        "resourceType": "Parameters",
        "id": "f4046487-d935-408c-b367-079e50e35f68-parameters",
        "parameter": [ {
          "name": "subject",
          "valueString": "56063388-7942-4a1d-8568-2d805d31ad30"
        } ]
      } ],
      "extension": [ {
        "url": "http://hl7.org/fhir/StructureDefinition/cqf-inputParameters",
        "valueReference": {
          "reference": "#f4046487-d935-408c-b367-079e50e35f68-parameters"
        }
      }, {
        "url": "http://hl7.org/fhir/us/cqfmeasures/StructureDefinition/cqfm-testCaseDescription",
        "valueMarkdown": "This patient is 27 and has an diabetes diagnosis with a confirmed verification status and an annual wellness visit performed during the measurement period. This tests the denominator criteria.\n"
      } ],
      "modifierExtension": [ {
        "url": "http://hl7.org/fhir/us/cqfmeasures/StructureDefinition/cqfm-isTestCase",
        "valueBoolean": true
      } ],
      "status": "complete",
      "type": "individual",
      "measure": "https://madie.cms.gov/Measure/CMS951FHIRKidneyHealthEval",
      "period": {
        "start": "2026-01-01",
        "end": "2026-12-31"
      },
      "group": [ {
        "id": "Group_1",
        "population": [ {
          "id": "InitialPopulation_1",
          "code": {
            "coding": [ {
              "system": "http://terminology.hl7.org/CodeSystem/measure-population",
              "code": "initial-population",
              "display": "Initial Population"
            } ]
          },
          "count": 1
        }, {
          "id": "Denominator_1",
          "code": {
            "coding": [ {
              "system": "http://terminology.hl7.org/CodeSystem/measure-population",
              "code": "denominator",
              "display": "Denominator"
            } ]
          },
          "count": 1
        }, {
          "id": "DenominatorExclusion_1",
          "code": {
            "coding": [ {
              "system": "http://terminology.hl7.org/CodeSystem/measure-population",
              "code": "denominator-exclusion",
              "display": "Denominator Exclusion"
            } ]
          },
          "count": 0
        }, {
          "id": "Numerator_1",
          "code": {
            "coding": [ {
              "system": "http://terminology.hl7.org/CodeSystem/measure-population",
              "code": "numerator",
              "display": "Numerator"
            } ]
          },
          "count": 0
        } ],
        "measureScore": {
          "value": 1.0
        }
      } ],
      "evaluatedResource": [ {
        "reference": "Patient/56063388-7942-4a1d-8568-2d805d31ad30"
      }, {
        "reference": "Condition/ae7e70f1-f08f-437d-b07d-8f9baa3ad9a8"
      }, {
        "reference": "Encounter/e949a1f2-bf1a-489d-b5b6-4f52eb745dac"
      } ]
    },
    "request": {
      "method": "PUT",
      "url": "MeasureReport/45207130-0a0c-4bb7-ac92-390de10c9638"
    }
  } ]
}