{
  "resourceType": "Bundle",
  "id": "60f82c2d98086b570510e252",
  "type": "transaction",
  "entry": [ {
    "fullUrl": "https://madie.cms.gov/Patient/d8ca26ff-f3dd-42e7-ab8c-17647582f5bb",
    "resource": {
      "resourceType": "Patient",
      "id": "d8ca26ff-f3dd-42e7-ab8c-17647582f5bb",
      "meta": {
        "profile": [ "http://hl7.org/fhir/us/qicore/StructureDefinition/qicore-patient" ]
      },
      "text": {
        "status": "generated",
        "div": "<div xmlns=\"http://www.w3.org/1999/xhtml\"><div class=\"hapiHeaderText\">EncEndsAfterMP <b>IPPFAIL </b></div><table class=\"hapiPropertyTable\"><tbody><tr><td>Identifier</td><td>247228d5a32cd9e233fcfcbc78ae54f7</td></tr><tr><td>Date of birth</td><td><span>21 August 1994</span></td></tr></tbody></table></div>"
      },
      "extension": [ {
        "url": "http://hl7.org/fhir/us/core/StructureDefinition/us-core-race",
        "extension": [ {
          "url": "ombCategory",
          "valueCoding": {
            "system": "urn:oid:2.16.840.1.113883.6.238",
            "code": "1002-5",
            "display": "American Indian or Alaska Native",
            "userSelected": true
          }
        }, {
          "url": "text",
          "valueString": "American Indian or Alaska Native"
        } ]
      }, {
        "url": "http://hl7.org/fhir/us/core/StructureDefinition/us-core-ethnicity",
        "extension": [ {
          "url": "ombCategory",
          "valueCoding": {
            "system": "urn:oid:2.16.840.1.113883.6.238",
            "code": "2186-5",
            "display": "Not Hispanic or Latino",
            "userSelected": true
          }
        }, {
          "url": "text",
          "valueString": "Not Hispanic or Latino"
        } ]
      } ],
      "identifier": [ {
        "type": {
          "coding": [ {
            "system": "http://terminology.hl7.org/CodeSystem/v2-0203",
            "code": "MR"
          } ]
        },
        "system": "https://bonnie-fhir.healthit.gov/",
        "value": "60f82c2d98086b570510e252"
      } ],
      "active": true,
      "name": [ {
        "use": "usual",
        "family": "IPPFail",
        "given": [ "EncEndsAfterMP" ]
      } ],
      "gender": "male",
      "birthDate": "1995-08-21"
    },
    "request": {
      "method": "PUT",
      "url": "Patient/d8ca26ff-f3dd-42e7-ab8c-17647582f5bb"
    }
  }, {
    "fullUrl": "https://madie.cms.gov/Encounter/1820dc7c-18f1-4c11-9805-b53777893323",
    "resource": {
      "resourceType": "Encounter",
      "id": "1820dc7c-18f1-4c11-9805-b53777893323",
      "meta": {
        "profile": [ "http://hl7.org/fhir/us/qicore/StructureDefinition/qicore-encounter" ]
      },
      "status": "finished",
      "class": {
        "system": "http://terminology.hl7.org/CodeSystem/v3-ActCode",
        "code": "IMP",
        "display": "inpatient encounter"
      },
      "type": [ {
        "coding": [ {
          "system": "http://snomed.info/sct",
          "code": "32485007"
        } ]
      } ],
      "subject": {
        "reference": "Patient/d8ca26ff-f3dd-42e7-ab8c-17647582f5bb"
      },
      "period": {
        "start": "2026-12-20T09:30:00.000+00:00",
        "end": "2027-01-01T00:00:00.000+00:00"
      },
      "length": {
        "value": 12,
        "unit": "days"
      },
      "reasonReference": [ {
        "reference": "Condition/29cf975e-7b1d-45b5-8088-d0ced23cda34"
      } ]
    },
    "request": {
      "method": "PUT",
      "url": "Encounter/1820dc7c-18f1-4c11-9805-b53777893323"
    }
  }, {
    "fullUrl": "https://madie.cms.gov/Coverage/2c805893-5132-4d12-a600-702888011672",
    "resource": {
      "resourceType": "Coverage",
      "id": "2c805893-5132-4d12-a600-702888011672",
      "status": "active",
      "beneficiary": {
        "reference": "Patient/d8ca26ff-f3dd-42e7-ab8c-17647582f5bb"
      },
      "period": {
        "start": "1995-08-21T08:00:00.000+00:00"
      },
      "payor": [ {
        "reference": "Organization/988aefa6-b2d8-4076-92e1-899f0aba39e9"
      } ]
    },
    "request": {
      "method": "PUT",
      "url": "Coverage/2c805893-5132-4d12-a600-702888011672"
    }
  }, {
    "fullUrl": "https://madie.cms.gov/Condition/29cf975e-7b1d-45b5-8088-d0ced23cda34",
    "resource": {
      "resourceType": "Condition",
      "id": "29cf975e-7b1d-45b5-8088-d0ced23cda34",
      "meta": {
        "profile": [ "http://hl7.org/fhir/us/qicore/StructureDefinition/qicore-condition-encounter-diagnosis" ]
      },
      "clinicalStatus": {
        "coding": [ {
          "system": "http://terminology.hl7.org/CodeSystem/condition-clinical",
          "code": "active"
        } ]
      },
      "verificationStatus": {
        "coding": [ {
          "system": "http://terminology.hl7.org/CodeSystem/condition-ver-status",
          "code": "confirmed"
        } ]
      },
      "category": [ {
        "coding": [ {
          "system": "http://terminology.hl7.org/CodeSystem/condition-category",
          "code": "encounter-diagnosis",
          "display": "Encounter Diagnosis"
        } ]
      } ],
      "code": {
        "coding": [ {
          "system": "http://snomed.info/sct",
          "version": "2020-09",
          "code": "111297002",
          "display": "Nonparalytic stroke (disorder)",
          "userSelected": true
        } ]
      },
      "subject": {
        "reference": "Patient/d8ca26ff-f3dd-42e7-ab8c-17647582f5bb"
      },
      "encounter": {
        "reference": "Encounter/1820dc7c-18f1-4c11-9805-b53777893323"
      },
      "recordedDate": "2026-08-16T08:00:00.000+00:00"
    },
    "request": {
      "method": "PUT",
      "url": "Condition/29cf975e-7b1d-45b5-8088-d0ced23cda34"
    }
  }, {
    "fullUrl": "https://madie.cms.gov/claim/5ca62962b8484628b8de1ec5",
    "resource": {
      "resourceType": "Claim",
      "id": "5ca62962b8484628b8de1ec5",
      "meta": {
        "profile": [ "http://hl7.org/fhir/us/qicore/StructureDefinition/qicore-claim" ]
      },
      "status": "active",
      "type": {
        "coding": [ {
          "system": "http://terminology.hl7.org/CodeSystem/claim-type",
          "code": "institutional"
        } ]
      },
      "use": "claim",
      "patient": {
        "reference": "Patient/d8ca26ff-f3dd-42e7-ab8c-17647582f5bb"
      },
      "created": "2026-12-01",
      "provider": {
        "reference": "Practitioner/77d863e2-c476-452f-927a-32b05cf95bf8"
      },
      "priority": {
        "coding": [ {
          "system": "http://terminology.hl7.org/CodeSystem/processpriority",
          "code": "normal"
        } ]
      },
      "diagnosis": [ {
        "sequence": 1,
        "diagnosisCodeableConcept": {
          "coding": [ {
            "system": "http://hl7.org/fhir/sid/icd-10-cm",
            "code": "I63.00"
          } ]
        },
        "type": [ {
          "coding": [ {
            "system": "http://terminology.hl7.org/CodeSystem/ex-diagnosistype",
            "code": "principal"
          } ]
        } ]
      } ],
      "insurance": [ {
        "sequence": 1,
        "focal": true,
        "coverage": {
          "reference": "Coverage/5fa041661c76ba66d9959367"
        }
      } ],
      "item": [ {
        "sequence": 1,
        "diagnosisSequence": [ 1 ],
        "productOrService": {
          "coding": [ {
            "system": "http://terminology.hl7.org/CodeSystem/ex-USCLS",
            "code": "99555"
          } ]
        },
        "encounter": [ {
          "reference": "Encounter/1820dc7c-18f1-4c11-9805-b53777893323"
        } ]
      } ]
    },
    "request": {
      "method": "PUT",
      "url": "Claim/5ca62962b8484628b8de1ec5"
    }
  }, {
    "fullUrl": "https://madie.cms.gov/Organization/988aefa6-b2d8-4076-92e1-899f0aba39e9",
    "resource": {
      "resourceType": "Organization",
      "id": "988aefa6-b2d8-4076-92e1-899f0aba39e9",
      "meta": {
        "profile": [ "http://hl7.org/fhir/us/qicore/StructureDefinition/qicore-organization" ]
      },
      "identifier": [ {
        "use": "temp",
        "system": "urn:oid:2.16.840.1.113883.4.4",
        "value": "21-3259825"
      } ],
      "active": true,
      "type": [ {
        "coding": [ {
          "system": "http://terminology.hl7.org/CodeSystem/organization-type",
          "code": "pay",
          "display": "Payer"
        } ]
      } ],
      "name": "Blue Cross Blue Shield of Texas",
      "telecom": [ {
        "system": "phone",
        "value": "(+1) 972-766-6900"
      } ],
      "address": [ {
        "use": "billing",
        "type": "postal",
        "line": [ "P.O. Box 660044" ],
        "city": "Dallas",
        "state": "TX",
        "postalCode": "75266-0044",
        "country": "USA"
      } ]
    },
    "request": {
      "method": "PUT",
      "url": "Organization/988aefa6-b2d8-4076-92e1-899f0aba39e9"
    }
  }, {
    "fullUrl": "https://madie.cms.gov/Practitioner/77d863e2-c476-452f-927a-32b05cf95bf8",
    "resource": {
      "resourceType": "Practitioner",
      "id": "77d863e2-c476-452f-927a-32b05cf95bf8",
      "identifier": [ {
        "system": "http://hl7.org/fhir/sid/us-npi",
        "value": "123456"
      } ],
      "name": [ {
        "family": "Evil",
        "prefix": [ "Dr" ]
      } ]
    },
    "request": {
      "method": "PUT",
      "url": "Practitioner/77d863e2-c476-452f-927a-32b05cf95bf8"
    }
  }, {
    "fullUrl": "https://madie.cms.gov/MeasureReport/1d806424-4afa-4c8c-8dfd-f07c4bbda059",
    "resource": {
      "resourceType": "MeasureReport",
      "id": "1d806424-4afa-4c8c-8dfd-f07c4bbda059",
      "meta": {
        "profile": [ "http://hl7.org/fhir/us/cqfmeasures/StructureDefinition/test-case-cqfm" ]
      },
      "contained": [ {
        "resourceType": "Parameters",
        "id": "6dbfae94-ef0d-4e14-ae5c-a3f1961d722b-parameters",
        "parameter": [ {
          "name": "subject",
          "valueString": "d8ca26ff-f3dd-42e7-ab8c-17647582f5bb"
        } ]
      } ],
      "extension": [ {
        "url": "http://hl7.org/fhir/StructureDefinition/cqf-inputParameters",
        "valueReference": {
          "reference": "#6dbfae94-ef0d-4e14-ae5c-a3f1961d722b-parameters"
        }
      }, {
        "url": "http://hl7.org/fhir/us/cqfmeasures/StructureDefinition/cqfm-testCaseDescription",
        "valueMarkdown": " Encounter ends after MP \n"
      } ],
      "modifierExtension": [ {
        "url": "http://hl7.org/fhir/us/cqfmeasures/StructureDefinition/cqfm-isTestCase",
        "valueBoolean": true
      } ],
      "status": "complete",
      "type": "individual",
      "measure": "https://madie.cms.gov/Measure/CMS72FHIRSTKAntithromboticDay2",
      "period": {
        "start": "2026-01-01",
        "end": "2026-12-31"
      },
      "group": [ {
        "id": "Group_1",
        "population": [ {
          "id": "InitialPopulation_1",
          "code": {
            "coding": [ {
              "system": "http://terminology.hl7.org/CodeSystem/measure-population",
              "code": "initial-population",
              "display": "Initial Population"
            } ]
          },
          "count": 0
        }, {
          "id": "Denominator_1",
          "code": {
            "coding": [ {
              "system": "http://terminology.hl7.org/CodeSystem/measure-population",
              "code": "denominator",
              "display": "Denominator"
            } ]
          },
          "count": 0
        }, {
          "id": "DenominatorExclusion_1",
          "code": {
            "coding": [ {
              "system": "http://terminology.hl7.org/CodeSystem/measure-population",
              "code": "denominator-exclusion",
              "display": "Denominator Exclusion"
            } ]
          },
          "count": 0
        }, {
          "id": "Numerator_1",
          "code": {
            "coding": [ {
              "system": "http://terminology.hl7.org/CodeSystem/measure-population",
              "code": "numerator",
              "display": "Numerator"
            } ]
          },
          "count": 0
        }, {
          "id": "DenominatorException_1",
          "code": {
            "coding": [ {
              "system": "http://terminology.hl7.org/CodeSystem/measure-population",
              "code": "denominator-exception",
              "display": "Denominator Exception"
            } ]
          },
          "count": 0
        } ],
        "measureScore": {
          "value": 0.0
        }
      } ],
      "evaluatedResource": [ {
        "reference": "Patient/d8ca26ff-f3dd-42e7-ab8c-17647582f5bb"
      }, {
        "reference": "Encounter/1820dc7c-18f1-4c11-9805-b53777893323"
      }, {
        "reference": "Coverage/2c805893-5132-4d12-a600-702888011672"
      }, {
        "reference": "Condition/29cf975e-7b1d-45b5-8088-d0ced23cda34"
      }, {
        "reference": "Claim/5ca62962b8484628b8de1ec5"
      }, {
        "reference": "Organization/988aefa6-b2d8-4076-92e1-899f0aba39e9"
      }, {
        "reference": "Practitioner/77d863e2-c476-452f-927a-32b05cf95bf8"
      } ]
    },
    "request": {
      "method": "PUT",
      "url": "MeasureReport/1d806424-4afa-4c8c-8dfd-f07c4bbda059"
    }
  } ]
}