{
  "resourceType": "Bundle",
  "id": "6109658e98086b538055b9db",
  "type": "collection",
  "entry": [ {
    "fullUrl": "https://madie.cms.gov/Patient/37d4f1ee-3f65-4f68-ac6c-685cc093eaf1",
    "resource": {
      "resourceType": "Patient",
      "id": "37d4f1ee-3f65-4f68-ac6c-685cc093eaf1",
      "meta": {
        "profile": [ "http://hl7.org/fhir/us/qicore/StructureDefinition/qicore-patient" ]
      },
      "extension": [ {
        "url": "http://hl7.org/fhir/us/core/StructureDefinition/us-core-race",
        "extension": [ {
          "url": "ombCategory",
          "valueCoding": {
            "system": "urn:oid:2.16.840.1.113883.6.238",
            "code": "1002-5",
            "display": "American Indian or Alaska Native",
            "userSelected": true
          }
        }, {
          "url": "text",
          "valueString": "American Indian or Alaska Native"
        } ]
      }, {
        "url": "http://hl7.org/fhir/us/core/StructureDefinition/us-core-ethnicity",
        "extension": [ {
          "url": "ombCategory",
          "valueCoding": {
            "system": "urn:oid:2.16.840.1.113883.6.238",
            "code": "2186-5",
            "display": "Not Hispanic or Latino",
            "userSelected": true
          }
        }, {
          "url": "text",
          "valueString": "Not Hispanic or Latino"
        } ]
      }, {
        "url": "http://hl7.org/fhir/us/core/StructureDefinition/us-core-sex",
        "valueCode": "248152002"
      } ],
      "identifier": [ {
        "type": {
          "coding": [ {
            "system": "http://terminology.hl7.org/CodeSystem/v2-0203",
            "code": "MR"
          } ]
        },
        "system": "https://bonnie-fhir.healthit.gov/",
        "value": "6109658e98086b538055b9db"
      } ],
      "active": true,
      "name": [ {
        "use": "usual",
        "family": "DENEXCEPFail",
        "given": [ "NotPerformed4MedReasonGTEncEdge" ]
      } ],
      "gender": "female",
      "birthDate": "1958-08-16"
    }
  }, {
    "fullUrl": "https://madie.cms.gov/Condition/1d2e4e8c-8b24-4d75-a809-74f4e472e0e5",
    "resource": {
      "resourceType": "Condition",
      "id": "1d2e4e8c-8b24-4d75-a809-74f4e472e0e5",
      "meta": {
        "profile": [ "http://hl7.org/fhir/us/qicore/StructureDefinition/qicore-condition-problems-health-concerns" ]
      },
      "clinicalStatus": {
        "coding": [ {
          "system": "http://terminology.hl7.org/CodeSystem/condition-clinical",
          "code": "active",
          "display": "active",
          "userSelected": true
        } ]
      },
      "category": [ {
        "coding": [ {
          "system": "http://terminology.hl7.org/CodeSystem/condition-category",
          "code": "problem-list-item",
          "display": "Problem List Item",
          "userSelected": true
        } ]
      } ],
      "code": {
        "coding": [ {
          "system": "http://hl7.org/fhir/sid/icd-10-cm",
          "version": "2023",
          "code": "H40.10X0"
        } ]
      },
      "subject": {
        "reference": "Patient/37d4f1ee-3f65-4f68-ac6c-685cc093eaf1"
      },
      "onsetDateTime": "2014-08-27T13:00:00.000+00:00"
    }
  }, {
    "fullUrl": "https://madie.cms.gov/Observation/4d7d849e-b125-40c8-858d-962b9c46c046",
    "resource": {
      "resourceType": "Observation",
      "id": "4d7d849e-b125-40c8-858d-962b9c46c046",
      "meta": {
        "profile": [ "http://hl7.org/fhir/us/qicore/StructureDefinition/qicore-observation-clinical-result" ]
      },
      "status": "final",
      "category": [ {
        "coding": [ {
          "system": "http://terminology.hl7.org/CodeSystem/observation-category",
          "code": "laboratory",
          "display": "Laboratory",
          "userSelected": true
        } ]
      }, {
        "coding": [ {
          "system": "http://terminology.hl7.org/CodeSystem/observation-category",
          "code": "survey"
        } ]
      } ],
      "code": {
        "coding": [ {
          "system": "http://loinc.org",
          "version": "2.73",
          "code": "71487-3"
        } ]
      },
      "subject": {
        "reference": "Patient/37d4f1ee-3f65-4f68-ac6c-685cc093eaf1"
      },
      "effectivePeriod": {
        "start": "2026-08-27T13:00:00.000+00:00",
        "end": "2026-08-27T13:15:00.000+00:00"
      },
      "valueString": "Documented, progressive thinning of the neuroretinal rim with an associated increase in cupping of the optic disc"
    }
  }, {
    "fullUrl": "https://madie.cms.gov/Observation/b73e5d34-237c-46c4-976b-2464c95c74d3",
    "resource": {
      "resourceType": "Observation",
      "id": "b73e5d34-237c-46c4-976b-2464c95c74d3",
      "meta": {
        "profile": [ "http://hl7.org/fhir/us/qicore/StructureDefinition/qicore-observationcancelled" ]
      },
      "extension": [ {
        "url": "http://hl7.org/fhir/us/qicore/StructureDefinition/qicore-notDoneReason",
        "valueCodeableConcept": {
          "coding": [ {
            "system": "http://snomed.info/sct",
            "version": "http://snomed.info/sct/731000124108/version/202303",
            "code": "410536001",
            "display": "Contraindicated (qualifier value)"
          } ]
        }
      } ],
      "status": "cancelled",
      "category": [ {
        "coding": [ {
          "system": "http://snomed.info/sct",
          "version": "http://snomed.info/sct/731000124108/version/202303",
          "code": "428119001",
          "display": "Procedure not indicated (situation)",
          "userSelected": true
        } ]
      }, {
        "coding": [ {
          "system": "http://terminology.hl7.org/CodeSystem/observation-category",
          "code": "survey"
        } ]
      } ],
      "code": {
        "coding": [ {
          "system": "http://loinc.org",
          "version": "2.73",
          "code": "71487-3",
          "display": "Right eye Optic disc or retinal nerve fiber layer structural abnormalities by Ophthalmoscopy"
        } ]
      },
      "subject": {
        "reference": "Patient/37d4f1ee-3f65-4f68-ac6c-685cc093eaf1"
      },
      "effectiveDateTime": "2026-08-27T13:00:00.000+00:00",
      "issued": "2026-08-28T14:15:00.000+00:00",
      "dataAbsentReason": {
        "coding": [ {
          "system": "http://terminology.hl7.org/CodeSystem/data-absent-reason",
          "code": "unknown",
          "display": "Unknown"
        } ]
      }
    }
  }, {
    "fullUrl": "https://madie.cms.gov/Encounter/c0cdb183-8f1a-4fb6-9d24-23e38c68daca",
    "resource": {
      "resourceType": "Encounter",
      "id": "c0cdb183-8f1a-4fb6-9d24-23e38c68daca",
      "meta": {
        "profile": [ "http://hl7.org/fhir/us/qicore/StructureDefinition/qicore-encounter" ]
      },
      "status": "finished",
      "class": {
        "system": "http://terminology.hl7.org/CodeSystem/v3-ActCode",
        "code": "AMB",
        "display": "ambulatory",
        "userSelected": true
      },
      "type": [ {
        "coding": [ {
          "system": "http://www.ama-assn.org/go/cpt",
          "code": "92002"
        } ]
      } ],
      "subject": {
        "reference": "Patient/37d4f1ee-3f65-4f68-ac6c-685cc093eaf1"
      },
      "period": {
        "start": "2026-08-27T12:40:00.000+00:00",
        "end": "2026-08-27T13:40:00.000+00:00"
      },
      "length": {
        "value": 0,
        "unit": "days"
      }
    }
  }, {
    "fullUrl": "https://madie.cms.gov/MeasureReport/b5cb04ab-077a-45da-ae59-badb3cd82862",
    "resource": {
      "resourceType": "MeasureReport",
      "id": "b5cb04ab-077a-45da-ae59-badb3cd82862",
      "meta": {
        "profile": [ "http://hl7.org/fhir/us/cqfmeasures/StructureDefinition/test-case-cqfm" ]
      },
      "contained": [ {
        "resourceType": "Parameters",
        "id": "ed042bff-8936-4080-a982-032bd89dc143-parameters",
        "parameter": [ {
          "name": "subject",
          "valueString": "37d4f1ee-3f65-4f68-ac6c-685cc093eaf1"
        } ]
      } ],
      "extension": [ {
        "url": "http://hl7.org/fhir/StructureDefinition/cqf-inputParameters",
        "valueReference": {
          "reference": "#ed042bff-8936-4080-a982-032bd89dc143-parameters"
        }
      }, {
        "url": "http://hl7.org/fhir/us/cqfmeasures/StructureDefinition/cqfm-testCaseDescription",
        "valueMarkdown": "Optic Disc Exam Not Performed for Medical Reason is issued outside of Encounter Period disqualifying for denominator exception"
      } ],
      "modifierExtension": [ {
        "url": "http://hl7.org/fhir/us/cqfmeasures/StructureDefinition/cqfm-isTestCase",
        "valueBoolean": true
      } ],
      "status": "complete",
      "type": "individual",
      "measure": "https://madie.cms.gov/Measure/CMS143FHIRPOAGOpticNerveEval",
      "period": {
        "start": "2026-01-01",
        "end": "2026-12-31"
      },
      "group": [ {
        "id": "Group_1",
        "population": [ {
          "id": "InitialPopulation_1",
          "code": {
            "coding": [ {
              "system": "http://terminology.hl7.org/CodeSystem/measure-population",
              "code": "initial-population",
              "display": "Initial Population"
            } ]
          },
          "count": 1
        }, {
          "id": "Denominator_1",
          "code": {
            "coding": [ {
              "system": "http://terminology.hl7.org/CodeSystem/measure-population",
              "code": "denominator",
              "display": "Denominator"
            } ]
          },
          "count": 1
        }, {
          "id": "Numerator_1",
          "code": {
            "coding": [ {
              "system": "http://terminology.hl7.org/CodeSystem/measure-population",
              "code": "numerator",
              "display": "Numerator"
            } ]
          },
          "count": 0
        }, {
          "id": "DenominatorException_1",
          "code": {
            "coding": [ {
              "system": "http://terminology.hl7.org/CodeSystem/measure-population",
              "code": "denominator-exception",
              "display": "Denominator Exception"
            } ]
          },
          "count": 0
        } ],
        "measureScore": {
          "value": 1.0
        }
      } ],
      "evaluatedResource": [ {
        "reference": "Patient/37d4f1ee-3f65-4f68-ac6c-685cc093eaf1"
      }, {
        "reference": "Condition/1d2e4e8c-8b24-4d75-a809-74f4e472e0e5"
      }, {
        "reference": "Observation/4d7d849e-b125-40c8-858d-962b9c46c046"
      }, {
        "reference": "Observation/b73e5d34-237c-46c4-976b-2464c95c74d3"
      }, {
        "reference": "Encounter/c0cdb183-8f1a-4fb6-9d24-23e38c68daca"
      } ]
    }
  } ]
}