{
  "resourceType": "Bundle",
  "id": "63594c7a6aee9629c82981df",
  "type": "transaction",
  "entry": [ {
    "fullUrl": "https://madie.cms.gov/Patient/2d5802ed-937e-4c51-a326-50bba0ddf33b",
    "resource": {
      "resourceType": "Patient",
      "id": "2d5802ed-937e-4c51-a326-50bba0ddf33b",
      "meta": {
        "profile": [ "http://hl7.org/fhir/us/qicore/StructureDefinition/qicore-patient" ]
      },
      "text": {
        "status": "generated",
        "div": "<div xmlns=\"http://www.w3.org/1999/xhtml\"><div class=\"hapiHeaderText\">RISKAsthma <b>RISKPass</b></div><table class=\"hapiPropertyTable\"><tbody><tr><td>Date of birth</td><td><span>01 February 2004</span></td></tr></tbody></table></div>"
      },
      "extension": [ {
        "url": "http://hl7.org/fhir/us/core/StructureDefinition/us-core-race",
        "extension": [ {
          "url": "ombCategory",
          "valueCoding": {
            "system": "urn:oid:2.16.840.1.113883.6.238",
            "code": "1002-5",
            "display": "American Indian or Alaska Native",
            "userSelected": true
          }
        }, {
          "url": "text",
          "valueString": "American Indian or Alaska Native"
        } ]
      }, {
        "url": "http://hl7.org/fhir/us/core/StructureDefinition/us-core-ethnicity",
        "extension": [ {
          "url": "ombCategory",
          "valueCoding": {
            "system": "urn:oid:2.16.840.1.113883.6.238",
            "code": "2135-2",
            "display": "Hispanic or Latino",
            "userSelected": true
          }
        }, {
          "url": "text",
          "valueString": "Hispanic or Latino"
        } ]
      } ],
      "identifier": [ {
        "type": {
          "coding": [ {
            "system": "http://terminology.hl7.org/CodeSystem/v2-0203",
            "code": "MR"
          } ]
        },
        "system": "https://bonnie-fhir.healthit.gov/",
        "value": "63594c7a6aee9629c82981df"
      } ],
      "active": true,
      "name": [ {
        "use": "usual",
        "family": "RiskPass",
        "given": [ "RiskAsthma" ]
      } ],
      "gender": "female",
      "birthDate": "2005-02-01"
    },
    "request": {
      "method": "PUT",
      "url": "Patient/2d5802ed-937e-4c51-a326-50bba0ddf33b"
    }
  }, {
    "fullUrl": "https://madie.cms.gov/Observation/39cc384f-90c5-4c37-b942-182af52bd475",
    "resource": {
      "resourceType": "Observation",
      "id": "39cc384f-90c5-4c37-b942-182af52bd475",
      "meta": {
        "profile": [ "http://hl7.org/fhir/us/qicore/StructureDefinition/qicore-simple-observation" ]
      },
      "status": "final",
      "category": [ {
        "coding": [ {
          "system": "http://terminology.hl7.org/CodeSystem/observation-category",
          "code": "exam",
          "display": "exam",
          "userSelected": true
        } ]
      } ],
      "code": {
        "coding": [ {
          "system": "http://loinc.org",
          "code": "93857-1"
        } ]
      },
      "subject": {
        "reference": "Patient/2d5802ed-937e-4c51-a326-50bba0ddf33b"
      },
      "effectiveDateTime": "2026-02-01T08:00:00.000+00:00",
      "performer": [ {
        "reference": "Organization/example1",
        "display": "Hendricks Country Hospital"
      } ],
      "valueDateTime": "2026-02-01T08:00:00.000+00:00"
    },
    "request": {
      "method": "PUT",
      "url": "Observation/39cc384f-90c5-4c37-b942-182af52bd475"
    }
  }, {
    "fullUrl": "https://madie.cms.gov/Observation/42f91555-5aa8-4282-9976-bf5c1396f7d5",
    "resource": {
      "resourceType": "Observation",
      "id": "42f91555-5aa8-4282-9976-bf5c1396f7d5",
      "meta": {
        "profile": [ "http://hl7.org/fhir/us/qicore/StructureDefinition/qicore-simple-observation" ]
      },
      "status": "final",
      "category": [ {
        "coding": [ {
          "system": "http://terminology.hl7.org/CodeSystem/observation-category",
          "code": "exam",
          "display": "exam",
          "userSelected": true
        } ]
      } ],
      "code": {
        "coding": [ {
          "system": "http://loinc.org",
          "code": "11778-8"
        } ]
      },
      "subject": {
        "reference": "Patient/2d5802ed-937e-4c51-a326-50bba0ddf33b"
      },
      "effectiveDateTime": "2026-02-01T08:00:00.000+00:00",
      "performer": [ {
        "reference": "Organization/example1",
        "display": "Hendricks Country Hospital"
      } ],
      "valueDateTime": "2026-02-01T08:00:00.000+00:00"
    },
    "request": {
      "method": "PUT",
      "url": "Observation/42f91555-5aa8-4282-9976-bf5c1396f7d5"
    }
  }, {
    "fullUrl": "https://madie.cms.gov/Encounter/d35348cd-df68-487e-8f75-69185001ead8",
    "resource": {
      "resourceType": "Encounter",
      "id": "d35348cd-df68-487e-8f75-69185001ead8",
      "meta": {
        "profile": [ "http://hl7.org/fhir/us/qicore/StructureDefinition/qicore-encounter" ]
      },
      "status": "finished",
      "class": {
        "system": "http://terminology.hl7.org/CodeSystem/v3-ActCode",
        "code": "IMP",
        "display": "inpatient encounter"
      },
      "type": [ {
        "coding": [ {
          "system": "http://snomed.info/sct",
          "code": "183452005"
        } ]
      } ],
      "subject": {
        "reference": "Patient/2d5802ed-937e-4c51-a326-50bba0ddf33b"
      },
      "period": {
        "start": "2026-02-01T08:00:00.000+00:00",
        "end": "2026-02-05T08:15:00.000+00:00"
      },
      "diagnosis": [ {
        "extension": [ {
          "url": "http://hl7.org/fhir/us/qicore/StructureDefinition/qicore-encounter-diagnosisPresentOnAdmission",
          "valueCodeableConcept": {
            "coding": [ {
              "system": "https://www.cms.gov/Medicare/Medicare-Fee-for-Service-Payment/HospitalAcqCond/Coding",
              "code": "Y"
            } ]
          }
        } ],
        "condition": {
          "reference": "Condition/7c9f1a04-28d6-4919-a8ef-89424e2f1207"
        }
      }, {
        "extension": [ {
          "url": "http://hl7.org/fhir/us/qicore/StructureDefinition/qicore-encounter-diagnosisPresentOnAdmission",
          "valueCodeableConcept": {
            "coding": [ {
              "system": "https://www.cms.gov/Medicare/Medicare-Fee-for-Service-Payment/HospitalAcqCond/Coding",
              "code": "N"
            } ]
          }
        } ],
        "condition": {
          "reference": "Condition/8e102578-ce0a-4d00-b84c-f268a712fa6f"
        }
      } ]
    },
    "request": {
      "method": "PUT",
      "url": "Encounter/d35348cd-df68-487e-8f75-69185001ead8"
    }
  }, {
    "fullUrl": "https://madie.cms.gov/Procedure/c875b8d1-505f-47ce-873e-3cd61ac5f0b6",
    "resource": {
      "resourceType": "Procedure",
      "id": "c875b8d1-505f-47ce-873e-3cd61ac5f0b6",
      "meta": {
        "profile": [ "http://hl7.org/fhir/us/qicore/StructureDefinition/qicore-procedure" ]
      },
      "extension": [ {
        "url": "http://hl7.org/fhir/us/qicore/StructureDefinition/qicore-recorded",
        "valueDateTime": "2014-04-05T13:35:00.000+00:00"
      } ],
      "status": "completed",
      "code": {
        "coding": [ {
          "system": "http://snomed.info/sct",
          "code": "10745001"
        } ]
      },
      "subject": {
        "reference": "Patient/2d5802ed-937e-4c51-a326-50bba0ddf33b"
      },
      "performedDateTime": "2026-02-01T08:00:00.000+00:00"
    },
    "request": {
      "method": "PUT",
      "url": "Procedure/c875b8d1-505f-47ce-873e-3cd61ac5f0b6"
    }
  }, {
    "fullUrl": "https://madie.cms.gov/Condition/8e102578-ce0a-4d00-b84c-f268a712fa6f",
    "resource": {
      "resourceType": "Condition",
      "id": "8e102578-ce0a-4d00-b84c-f268a712fa6f",
      "meta": {
        "profile": [ "http://hl7.org/fhir/us/qicore/StructureDefinition/qicore-condition-encounter-diagnosis" ]
      },
      "category": [ {
        "coding": [ {
          "system": "http://terminology.hl7.org/CodeSystem/condition-category",
          "code": "encounter-diagnosis",
          "display": "Encounter Diagnosis"
        } ]
      } ],
      "code": {
        "coding": [ {
          "system": "http://hl7.org/fhir/sid/icd-10-cm",
          "version": "2023",
          "code": "A32.7",
          "display": "Listerial sepsis",
          "userSelected": true
        } ]
      },
      "subject": {
        "reference": "Patient/2d5802ed-937e-4c51-a326-50bba0ddf33b"
      },
      "recordedDate": "2026-10-26T08:00:00.000+00:00"
    },
    "request": {
      "method": "PUT",
      "url": "Condition/8e102578-ce0a-4d00-b84c-f268a712fa6f"
    }
  }, {
    "fullUrl": "https://madie.cms.gov/Condition/7c9f1a04-28d6-4919-a8ef-89424e2f1207",
    "resource": {
      "resourceType": "Condition",
      "id": "7c9f1a04-28d6-4919-a8ef-89424e2f1207",
      "meta": {
        "profile": [ "http://hl7.org/fhir/us/qicore/StructureDefinition/qicore-condition-encounter-diagnosis" ]
      },
      "category": [ {
        "coding": [ {
          "system": "http://terminology.hl7.org/CodeSystem/condition-category",
          "code": "encounter-diagnosis",
          "display": "Encounter Diagnosis"
        } ]
      } ],
      "code": {
        "coding": [ {
          "system": "http://hl7.org/fhir/sid/icd-10-cm",
          "version": "2023",
          "code": "J45.21",
          "display": "Asthma",
          "userSelected": true
        } ]
      },
      "subject": {
        "reference": "Patient/2d5802ed-937e-4c51-a326-50bba0ddf33b"
      },
      "recordedDate": "2026-10-26T08:00:00.000+00:00"
    },
    "request": {
      "method": "PUT",
      "url": "Condition/7c9f1a04-28d6-4919-a8ef-89424e2f1207"
    }
  }, {
    "fullUrl": "https://madie.cms.gov/Coverage/a5aa7529-b714-4db4-9e6e-8b204bf05eba",
    "resource": {
      "resourceType": "Coverage",
      "id": "a5aa7529-b714-4db4-9e6e-8b204bf05eba",
      "meta": {
        "profile": [ "http://hl7.org/fhir/us/qicore/StructureDefinition/qicore-coverage" ]
      },
      "status": "active",
      "subscriberId": "523435",
      "beneficiary": {
        "reference": "Patient/2d5802ed-937e-4c51-a326-50bba0ddf33b"
      },
      "relationship": {
        "coding": [ {
          "system": "http://terminology.hl7.org/CodeSystem/subscriber-relationship",
          "code": "self"
        } ]
      },
      "payor": [ {
        "reference": "Organization/044551e5-646b-439f-adb1-5a29a16bc70a"
      } ]
    },
    "request": {
      "method": "PUT",
      "url": "Coverage/a5aa7529-b714-4db4-9e6e-8b204bf05eba"
    }
  }, {
    "fullUrl": "https://madie.cms.gov/Claim/5ed71744-d501-4431-aa99-0a147ba4346b",
    "resource": {
      "resourceType": "Claim",
      "id": "5ed71744-d501-4431-aa99-0a147ba4346b",
      "meta": {
        "profile": [ "http://hl7.org/fhir/us/qicore/StructureDefinition/qicore-claim" ]
      },
      "status": "active",
      "type": {
        "coding": [ {
          "system": "http://terminology.hl7.org/CodeSystem/claim-type",
          "code": "institutional",
          "display": "Institutional"
        } ]
      },
      "use": "claim",
      "patient": {
        "reference": "Patient/2d5802ed-937e-4c51-a326-50bba0ddf33b"
      },
      "created": "2026-11-08",
      "provider": {
        "reference": "Practitioner/practitioner-123456"
      },
      "priority": {
        "coding": [ {
          "system": "http://terminology.hl7.org/CodeSystem/processpriority",
          "code": "normal"
        } ]
      },
      "diagnosis": [ {
        "sequence": 1,
        "diagnosisCodeableConcept": {
          "coding": [ {
            "system": "http://hl7.org/fhir/sid/icd-10-cm",
            "code": "J45.21",
            "display": "Mild intermittent asthma with (acute) exacerbation"
          } ]
        },
        "type": [ {
          "coding": [ {
            "system": "http://terminology.hl7.org/CodeSystem/ex-diagnosistype",
            "code": "discharge",
            "display": "Discharge Diagnosis"
          } ]
        } ],
        "onAdmission": {
          "coding": [ {
            "system": "https://www.cms.gov/Medicare/Medicare-Fee-for-Service-Payment/HospitalAcqCond/Coding",
            "code": "Y"
          } ]
        }
      }, {
        "sequence": 2,
        "diagnosisCodeableConcept": {
          "coding": [ {
            "system": "http://hl7.org/fhir/sid/icd-10-cm",
            "code": "A32.7",
            "display": "Listerial sepsis"
          } ]
        },
        "type": [ {
          "coding": [ {
            "system": "http://terminology.hl7.org/CodeSystem/ex-diagnosistype",
            "code": "discharge",
            "display": "Discharge Diagnosis"
          } ]
        } ],
        "onAdmission": {
          "coding": [ {
            "system": "https://www.cms.gov/Medicare/Medicare-Fee-for-Service-Payment/HospitalAcqCond/Coding",
            "code": "N"
          } ]
        }
      } ],
      "insurance": [ {
        "sequence": 1,
        "focal": true,
        "coverage": {
          "reference": "Coverage/Coverage-1"
        }
      } ],
      "item": [ {
        "sequence": 1,
        "careTeamSequence": [ 1 ],
        "diagnosisSequence": [ 1 ],
        "productOrService": {
          "coding": [ {
            "system": "http://www.ama-assn.org/go/cpt",
            "code": "99232"
          } ]
        },
        "encounter": [ {
          "reference": "Encounter/d35348cd-df68-487e-8f75-69185001ead8"
        } ]
      }, {
        "sequence": 2,
        "careTeamSequence": [ 1 ],
        "diagnosisSequence": [ 2 ],
        "productOrService": {
          "coding": [ {
            "system": "http://www.ama-assn.org/go/cpt",
            "code": "99233"
          } ]
        },
        "encounter": [ {
          "reference": "Encounter/d35348cd-df68-487e-8f75-69185001ead8"
        } ]
      } ],
      "total": {
        "value": 3800,
        "currency": "USD"
      }
    },
    "request": {
      "method": "PUT",
      "url": "Claim/5ed71744-d501-4431-aa99-0a147ba4346b"
    }
  }, {
    "fullUrl": "https://madie.cms.gov/Organization/044551e5-646b-439f-adb1-5a29a16bc70a",
    "resource": {
      "resourceType": "Organization",
      "id": "044551e5-646b-439f-adb1-5a29a16bc70a",
      "meta": {
        "profile": [ "http://hl7.org/fhir/us/qicore/StructureDefinition/qicore-organization" ]
      },
      "identifier": [ {
        "use": "temp",
        "system": "urn:oid:2.16.840.1.113883.4.4",
        "value": "21-3259825"
      } ],
      "active": true,
      "type": [ {
        "coding": [ {
          "system": "http://terminology.hl7.org/CodeSystem/organization-type",
          "code": "pay",
          "display": "Payer"
        } ]
      } ],
      "name": "Blue Cross Blue Shield of Texas",
      "telecom": [ {
        "system": "phone",
        "value": "(+1) 972-766-6900"
      } ],
      "address": [ {
        "use": "billing",
        "type": "postal",
        "line": [ "P.O. Box 660044" ],
        "city": "Dallas",
        "state": "TX",
        "postalCode": "75266-0044",
        "country": "USA"
      } ]
    },
    "request": {
      "method": "PUT",
      "url": "Organization/044551e5-646b-439f-adb1-5a29a16bc70a"
    }
  }, {
    "fullUrl": "https://madie.cms.gov/Practitioner/bab4c1db-4b22-4d8c-9a3e-75f6dd798a5a",
    "resource": {
      "resourceType": "Practitioner",
      "id": "bab4c1db-4b22-4d8c-9a3e-75f6dd798a5a",
      "meta": {
        "profile": [ "http://hl7.org/fhir/us/qicore/StructureDefinition/qicore-practitioner" ]
      },
      "identifier": [ {
        "system": "http://hl7.org/fhir/sid/us-npi",
        "value": "123456"
      } ],
      "name": [ {
        "family": "Evil",
        "prefix": [ "Dr" ]
      } ]
    },
    "request": {
      "method": "PUT",
      "url": "Practitioner/bab4c1db-4b22-4d8c-9a3e-75f6dd798a5a"
    }
  }, {
    "fullUrl": "https://madie.cms.gov/MeasureReport/c88cc0a2-e96f-4bf9-b53a-0386d8a9d122",
    "resource": {
      "resourceType": "MeasureReport",
      "id": "c88cc0a2-e96f-4bf9-b53a-0386d8a9d122",
      "meta": {
        "profile": [ "http://hl7.org/fhir/us/cqfmeasures/StructureDefinition/test-case-cqfm" ]
      },
      "contained": [ {
        "resourceType": "Parameters",
        "id": "f604abc5-c77d-4f9a-8a7e-7badecd4253b-parameters",
        "parameter": [ {
          "name": "subject",
          "valueString": "2d5802ed-937e-4c51-a326-50bba0ddf33b"
        } ]
      } ],
      "extension": [ {
        "url": "http://hl7.org/fhir/StructureDefinition/cqf-inputParameters",
        "valueReference": {
          "reference": "#f604abc5-c77d-4f9a-8a7e-7badecd4253b-parameters"
        }
      }, {
        "url": "http://hl7.org/fhir/us/cqfmeasures/StructureDefinition/cqfm-testCaseDescription",
        "valueMarkdown": "Risk variable of asthma.\n"
      } ],
      "modifierExtension": [ {
        "url": "http://hl7.org/fhir/us/cqfmeasures/StructureDefinition/cqfm-isTestCase",
        "valueBoolean": true
      } ],
      "status": "complete",
      "type": "individual",
      "measure": "https://madie.cms.gov/Measure/CMS1028FHIRPCSevereOBComps",
      "period": {
        "start": "2026-01-01",
        "end": "2026-12-31"
      },
      "group": [ {
        "id": "Group_1",
        "population": [ {
          "id": "InitialPopulation_1",
          "code": {
            "coding": [ {
              "system": "http://terminology.hl7.org/CodeSystem/measure-population",
              "code": "initial-population",
              "display": "Initial Population"
            } ]
          },
          "count": 1
        }, {
          "id": "Denominator_1",
          "code": {
            "coding": [ {
              "system": "http://terminology.hl7.org/CodeSystem/measure-population",
              "code": "denominator",
              "display": "Denominator"
            } ]
          },
          "count": 1
        }, {
          "id": "Numerator_1",
          "code": {
            "coding": [ {
              "system": "http://terminology.hl7.org/CodeSystem/measure-population",
              "code": "numerator",
              "display": "Numerator"
            } ]
          },
          "count": 1
        }, {
          "id": "NumeratorExclusion_1",
          "code": {
            "coding": [ {
              "system": "http://terminology.hl7.org/CodeSystem/measure-population",
              "code": "numerator-exclusion",
              "display": "Numerator Exclusion"
            } ]
          },
          "count": 0
        } ],
        "measureScore": {
          "value": 0.0
        }
      }, {
        "id": "Group_2",
        "population": [ {
          "id": "InitialPopulation_2",
          "code": {
            "coding": [ {
              "system": "http://terminology.hl7.org/CodeSystem/measure-population",
              "code": "initial-population",
              "display": "Initial Population"
            } ]
          },
          "count": 1
        }, {
          "id": "Denominator_2",
          "code": {
            "coding": [ {
              "system": "http://terminology.hl7.org/CodeSystem/measure-population",
              "code": "denominator",
              "display": "Denominator"
            } ]
          },
          "count": 1
        }, {
          "id": "Numerator_2",
          "code": {
            "coding": [ {
              "system": "http://terminology.hl7.org/CodeSystem/measure-population",
              "code": "numerator",
              "display": "Numerator"
            } ]
          },
          "count": 1
        }, {
          "id": "NumeratorExclusion_2",
          "code": {
            "coding": [ {
              "system": "http://terminology.hl7.org/CodeSystem/measure-population",
              "code": "numerator-exclusion",
              "display": "Numerator Exclusion"
            } ]
          },
          "count": 0
        } ],
        "measureScore": {
          "value": 0.0
        }
      } ],
      "evaluatedResource": [ {
        "reference": "Patient/2d5802ed-937e-4c51-a326-50bba0ddf33b"
      }, {
        "reference": "Observation/39cc384f-90c5-4c37-b942-182af52bd475"
      }, {
        "reference": "Observation/42f91555-5aa8-4282-9976-bf5c1396f7d5"
      }, {
        "reference": "Encounter/d35348cd-df68-487e-8f75-69185001ead8"
      }, {
        "reference": "Procedure/c875b8d1-505f-47ce-873e-3cd61ac5f0b6"
      }, {
        "reference": "Condition/8e102578-ce0a-4d00-b84c-f268a712fa6f"
      }, {
        "reference": "Condition/7c9f1a04-28d6-4919-a8ef-89424e2f1207"
      }, {
        "reference": "Coverage/a5aa7529-b714-4db4-9e6e-8b204bf05eba"
      }, {
        "reference": "Claim/5ed71744-d501-4431-aa99-0a147ba4346b"
      }, {
        "reference": "Organization/044551e5-646b-439f-adb1-5a29a16bc70a"
      }, {
        "reference": "Practitioner/bab4c1db-4b22-4d8c-9a3e-75f6dd798a5a"
      } ]
    },
    "request": {
      "method": "PUT",
      "url": "MeasureReport/c88cc0a2-e96f-4bf9-b53a-0386d8a9d122"
    }
  } ]
}