{
  "resourceType": "Bundle",
  "id": "63487c2f0968f801225401ac",
  "type": "transaction",
  "entry": [ {
    "fullUrl": "https://madie.cms.gov/Patient/45a481a1-13fe-4a18-8e8d-3d8ae497d28f",
    "resource": {
      "resourceType": "Patient",
      "id": "45a481a1-13fe-4a18-8e8d-3d8ae497d28f",
      "meta": {
        "profile": [ "http://hl7.org/fhir/us/qicore/StructureDefinition/qicore-patient" ]
      },
      "text": {
        "status": "generated",
        "div": "<div xmlns=\"http://www.w3.org/1999/xhtml\"><div class=\"hapiHeaderText\">AssessEDDRelDtTime24Hours1minB4TimeOfDeliv<b>DENPASS</b></div><table class=\"hapiPropertyTable\"><tbody><tr><td>Identifier</td><td>b00b06f67015bda652373741cca10f65466d828e3a674df9528f73ec417ce0bb</td></tr><tr><td>Date of birth</td><td><span>14 February 1985</span></td></tr></tbody></table></div>"
      },
      "extension": [ {
        "url": "http://hl7.org/fhir/us/core/StructureDefinition/us-core-race",
        "extension": [ {
          "url": "ombCategory",
          "valueCoding": {
            "system": "urn:oid:2.16.840.1.113883.6.238",
            "code": "1002-5",
            "display": "American Indian or Alaska Native",
            "userSelected": true
          }
        }, {
          "url": "text",
          "valueString": "American Indian or Alaska Native"
        } ]
      }, {
        "url": "http://hl7.org/fhir/us/core/StructureDefinition/us-core-ethnicity",
        "extension": [ {
          "url": "ombCategory",
          "valueCoding": {
            "system": "urn:oid:2.16.840.1.113883.6.238",
            "code": "2135-2",
            "display": "Hispanic or Latino",
            "userSelected": true
          }
        }, {
          "url": "text",
          "valueString": "Hispanic or Latino"
        } ]
      } ],
      "identifier": [ {
        "type": {
          "coding": [ {
            "system": "http://terminology.hl7.org/CodeSystem/v2-0203",
            "code": "MR"
          } ]
        },
        "system": "https://bonnie-fhir.healthit.gov/",
        "value": "63487c2f0968f801225401ac"
      } ],
      "active": true,
      "name": [ {
        "use": "usual",
        "family": "DENPass",
        "given": [ "AssessEDDRelDtTime24Hours1minB4TimeOfDeliv" ]
      } ],
      "gender": "female",
      "birthDate": "1998-02-14"
    },
    "request": {
      "method": "PUT",
      "url": "Patient/45a481a1-13fe-4a18-8e8d-3d8ae497d28f"
    }
  }, {
    "fullUrl": "https://madie.cms.gov/Observation/1c4b70e8-6472-4f06-a0ea-cb084b6a9e73",
    "resource": {
      "resourceType": "Observation",
      "id": "1c4b70e8-6472-4f06-a0ea-cb084b6a9e73",
      "meta": {
        "profile": [ "http://hl7.org/fhir/us/qicore/StructureDefinition/qicore-simple-observation" ]
      },
      "status": "final",
      "category": [ {
        "coding": [ {
          "system": "http://terminology.hl7.org/CodeSystem/observation-category",
          "code": "exam",
          "display": "exam",
          "userSelected": true
        } ]
      } ],
      "code": {
        "coding": [ {
          "system": "http://loinc.org",
          "code": "93857-1",
          "display": "Date and time of obstetric delivery"
        } ]
      },
      "subject": {
        "reference": "Patient/45a481a1-13fe-4a18-8e8d-3d8ae497d28f"
      },
      "effectiveDateTime": "2026-01-15T08:00:00.000+00:00",
      "issued": "2023-10-22T02:30:10.000+00:00",
      "performer": [ {
        "reference": "Organization/example1",
        "display": "Hendricks Country Hospital"
      } ],
      "valueDateTime": "2026-01-15T08:00:00.000+00:00"
    },
    "request": {
      "method": "PUT",
      "url": "Observation/1c4b70e8-6472-4f06-a0ea-cb084b6a9e73"
    }
  }, {
    "fullUrl": "https://madie.cms.gov/Observation/896c2c5a-c4c6-453b-b014-2bb7b8eb4ca4",
    "resource": {
      "resourceType": "Observation",
      "id": "896c2c5a-c4c6-453b-b014-2bb7b8eb4ca4",
      "meta": {
        "profile": [ "http://hl7.org/fhir/us/qicore/StructureDefinition/qicore-simple-observation" ]
      },
      "status": "final",
      "category": [ {
        "coding": [ {
          "system": "http://terminology.hl7.org/CodeSystem/observation-category",
          "code": "exam",
          "display": "exam",
          "userSelected": true
        } ]
      } ],
      "code": {
        "coding": [ {
          "system": "http://loinc.org",
          "code": "11778-8",
          "display": "delivery date estimated"
        } ]
      },
      "subject": {
        "reference": "Patient/45a481a1-13fe-4a18-8e8d-3d8ae497d28f"
      },
      "effectiveDateTime": "2026-01-14T07:59:00.000+00:00",
      "issued": "2023-10-22T02:30:10.000+00:00",
      "performer": [ {
        "reference": "Organization/example1",
        "display": "Hendricks Country Hospital"
      } ],
      "valueDateTime": "2026-02-04T08:00:00.000+00:00"
    },
    "request": {
      "method": "PUT",
      "url": "Observation/896c2c5a-c4c6-453b-b014-2bb7b8eb4ca4"
    }
  }, {
    "fullUrl": "https://madie.cms.gov/Observation/9cb8f90d-8ec1-4009-95e2-29c24e2d7986",
    "resource": {
      "resourceType": "Observation",
      "id": "9cb8f90d-8ec1-4009-95e2-29c24e2d7986",
      "meta": {
        "profile": [ "http://hl7.org/fhir/us/qicore/StructureDefinition/qicore-simple-observation" ]
      },
      "status": "final",
      "category": [ {
        "coding": [ {
          "system": "http://terminology.hl7.org/CodeSystem/observation-category",
          "code": "exam",
          "display": "exam",
          "userSelected": true
        } ]
      } ],
      "code": {
        "coding": [ {
          "system": "http://loinc.org",
          "code": "11996-6",
          "display": "Pregnancies"
        } ]
      },
      "subject": {
        "reference": "Patient/45a481a1-13fe-4a18-8e8d-3d8ae497d28f"
      },
      "effectiveDateTime": "2026-01-15T07:59:00.000+00:00",
      "issued": "2023-10-22T02:30:10.000+00:00",
      "performer": [ {
        "reference": "Organization/example1",
        "display": "Hendricks Country Hospital"
      } ],
      "valueInteger": 1
    },
    "request": {
      "method": "PUT",
      "url": "Observation/9cb8f90d-8ec1-4009-95e2-29c24e2d7986"
    }
  }, {
    "fullUrl": "https://madie.cms.gov/Encounter/d43ec7e1-a83a-469a-8e3a-36b8b9c4e112",
    "resource": {
      "resourceType": "Encounter",
      "id": "d43ec7e1-a83a-469a-8e3a-36b8b9c4e112",
      "meta": {
        "profile": [ "http://hl7.org/fhir/us/qicore/StructureDefinition/qicore-encounter" ]
      },
      "status": "finished",
      "class": {
        "system": "http://terminology.hl7.org/CodeSystem/v3-ActCode",
        "code": "IMP",
        "display": "inpatient encounter"
      },
      "type": [ {
        "coding": [ {
          "system": "http://snomed.info/sct",
          "code": "8715000"
        } ]
      } ],
      "subject": {
        "reference": "Patient/45a481a1-13fe-4a18-8e8d-3d8ae497d28f"
      },
      "period": {
        "start": "2026-01-15T08:00:00.000+00:00",
        "end": "2026-01-20T08:15:00.000+00:00"
      },
      "reasonReference": [ {
        "reference": "Condition/919446d3-d51e-4aa6-93c3-8f6f333aa102"
      } ]
    },
    "request": {
      "method": "PUT",
      "url": "Encounter/d43ec7e1-a83a-469a-8e3a-36b8b9c4e112"
    }
  }, {
    "fullUrl": "https://madie.cms.gov/Procedure/cbdd2789-db9c-42c2-b6bf-2a08337fa278",
    "resource": {
      "resourceType": "Procedure",
      "id": "cbdd2789-db9c-42c2-b6bf-2a08337fa278",
      "meta": {
        "profile": [ "http://hl7.org/fhir/us/qicore/StructureDefinition/qicore-procedure" ]
      },
      "extension": [ {
        "url": "http://hl7.org/fhir/us/qicore/StructureDefinition/qicore-recorded",
        "valueDateTime": "2014-04-05T13:35:00.000+00:00"
      } ],
      "status": "completed",
      "code": {
        "coding": [ {
          "system": "http://snomed.info/sct",
          "version": "2022-09",
          "code": "10745001",
          "display": "Delivery of transverse presentation (procedure)",
          "userSelected": true
        } ]
      },
      "subject": {
        "reference": "Patient/45a481a1-13fe-4a18-8e8d-3d8ae497d28f"
      },
      "performedPeriod": {
        "start": "2026-01-15T08:10:00.000+00:00",
        "end": "2026-01-15T09:14:00.000+00:00"
      }
    },
    "request": {
      "method": "PUT",
      "url": "Procedure/cbdd2789-db9c-42c2-b6bf-2a08337fa278"
    }
  }, {
    "fullUrl": "https://madie.cms.gov/Condition/919446d3-d51e-4aa6-93c3-8f6f333aa102",
    "resource": {
      "resourceType": "Condition",
      "id": "919446d3-d51e-4aa6-93c3-8f6f333aa102",
      "meta": {
        "profile": [ "http://hl7.org/fhir/us/qicore/StructureDefinition/qicore-condition-encounter-diagnosis" ]
      },
      "category": [ {
        "coding": [ {
          "system": "http://terminology.hl7.org/CodeSystem/condition-category",
          "code": "encounter-diagnosis",
          "display": "Encounter Diagnosis"
        } ]
      } ],
      "code": {
        "coding": [ {
          "system": "http://snomed.info/sct",
          "version": "2022-09",
          "code": "169826009",
          "display": "Single live birth from singleton pregnancy (finding)",
          "userSelected": true
        } ]
      },
      "subject": {
        "reference": "Patient/45a481a1-13fe-4a18-8e8d-3d8ae497d28f"
      },
      "encounter": {
        "reference": "Encounter/d43ec7e1-a83a-469a-8e3a-36b8b9c4e112"
      },
      "recordedDate": "2026-10-14T08:00:00.000+00:00"
    },
    "request": {
      "method": "PUT",
      "url": "Condition/919446d3-d51e-4aa6-93c3-8f6f333aa102"
    }
  }, {
    "fullUrl": "https://madie.cms.gov/Coverage/85fcbc74-12a1-4285-83f3-09d8e6756b73",
    "resource": {
      "resourceType": "Coverage",
      "id": "85fcbc74-12a1-4285-83f3-09d8e6756b73",
      "meta": {
        "profile": [ "http://hl7.org/fhir/us/qicore/StructureDefinition/qicore-coverage" ]
      },
      "status": "active",
      "subscriberId": "523435",
      "beneficiary": {
        "reference": "Patient/45a481a1-13fe-4a18-8e8d-3d8ae497d28f"
      },
      "relationship": {
        "coding": [ {
          "system": "http://terminology.hl7.org/CodeSystem/subscriber-relationship",
          "code": "self"
        } ]
      },
      "payor": [ {
        "reference": "Organization/9829aa26-201a-4f31-9c10-2e034b4e8303"
      } ]
    },
    "request": {
      "method": "PUT",
      "url": "Coverage/85fcbc74-12a1-4285-83f3-09d8e6756b73"
    }
  }, {
    "fullUrl": "https://madie.cms.gov/Organization/9829aa26-201a-4f31-9c10-2e034b4e8303",
    "resource": {
      "resourceType": "Organization",
      "id": "9829aa26-201a-4f31-9c10-2e034b4e8303",
      "meta": {
        "profile": [ "http://hl7.org/fhir/us/qicore/StructureDefinition/qicore-organization" ]
      },
      "identifier": [ {
        "use": "temp",
        "system": "urn:oid:2.16.840.1.113883.4.4",
        "value": "21-3259825"
      } ],
      "active": true,
      "type": [ {
        "coding": [ {
          "system": "http://terminology.hl7.org/CodeSystem/organization-type",
          "code": "pay",
          "display": "Payer"
        } ]
      } ],
      "name": "Blue Cross Blue Shield of Texas",
      "telecom": [ {
        "system": "phone",
        "value": "(+1) 972-766-6900"
      } ],
      "address": [ {
        "use": "billing",
        "type": "postal",
        "line": [ "P.O. Box 660044" ],
        "city": "Dallas",
        "state": "TX",
        "postalCode": "75266-0044",
        "country": "USA"
      } ]
    },
    "request": {
      "method": "PUT",
      "url": "Organization/9829aa26-201a-4f31-9c10-2e034b4e8303"
    }
  }, {
    "fullUrl": "https://madie.cms.gov/Practitioner/c63bf238-75d9-4894-b553-d00751eaef57",
    "resource": {
      "resourceType": "Practitioner",
      "id": "c63bf238-75d9-4894-b553-d00751eaef57",
      "meta": {
        "profile": [ "http://hl7.org/fhir/us/qicore/StructureDefinition/qicore-practitioner" ]
      },
      "identifier": [ {
        "system": "http://hl7.org/fhir/sid/us-npi",
        "value": "1234567890"
      } ],
      "name": [ {
        "family": "Evil",
        "prefix": [ "Dr" ]
      } ]
    },
    "request": {
      "method": "PUT",
      "url": "Practitioner/c63bf238-75d9-4894-b553-d00751eaef57"
    }
  }, {
    "fullUrl": "https://madie.cms.gov/MeasureReport/d8de690b-5165-4d0f-aec3-a410100c4192",
    "resource": {
      "resourceType": "MeasureReport",
      "id": "d8de690b-5165-4d0f-aec3-a410100c4192",
      "meta": {
        "profile": [ "http://hl7.org/fhir/us/cqfmeasures/StructureDefinition/test-case-cqfm" ]
      },
      "contained": [ {
        "resourceType": "Parameters",
        "id": "0cdb07ca-a0b0-4dad-b34a-f5451e4673e6-parameters",
        "parameter": [ {
          "name": "subject",
          "valueString": "45a481a1-13fe-4a18-8e8d-3d8ae497d28f"
        } ]
      } ],
      "extension": [ {
        "url": "http://hl7.org/fhir/StructureDefinition/cqf-inputParameters",
        "valueReference": {
          "reference": "#0cdb07ca-a0b0-4dad-b34a-f5451e4673e6-parameters"
        }
      }, {
        "url": "http://hl7.org/fhir/us/cqfmeasures/StructureDefinition/cqfm-testCaseDescription",
        "valueMarkdown": "Passes: IP, Pass DENOM, Pt is 27 years of age,  encounter dx delivery of singleton, gravida=1authored less than 42 weeks prior to delivery, Delivery date Estimated Relevant DateTime 24 hours and 1 minute before the Time of Delivery\n"
      } ],
      "modifierExtension": [ {
        "url": "http://hl7.org/fhir/us/cqfmeasures/StructureDefinition/cqfm-isTestCase",
        "valueBoolean": true
      } ],
      "status": "complete",
      "type": "individual",
      "measure": "https://madie.cms.gov/Measure/CMS0334FHIRPCCesareanBirth",
      "period": {
        "start": "2026-01-01",
        "end": "2026-12-31"
      },
      "group": [ {
        "id": "Group_1",
        "population": [ {
          "id": "InitialPopulation_1",
          "code": {
            "coding": [ {
              "system": "http://terminology.hl7.org/CodeSystem/measure-population",
              "code": "initial-population",
              "display": "Initial Population"
            } ]
          },
          "count": 1
        }, {
          "id": "Denominator_1",
          "code": {
            "coding": [ {
              "system": "http://terminology.hl7.org/CodeSystem/measure-population",
              "code": "denominator",
              "display": "Denominator"
            } ]
          },
          "count": 1
        }, {
          "id": "DenominatorExclusion_1",
          "code": {
            "coding": [ {
              "system": "http://terminology.hl7.org/CodeSystem/measure-population",
              "code": "denominator-exclusion",
              "display": "Denominator Exclusion"
            } ]
          },
          "count": 0
        }, {
          "id": "Numerator_1",
          "code": {
            "coding": [ {
              "system": "http://terminology.hl7.org/CodeSystem/measure-population",
              "code": "numerator",
              "display": "Numerator"
            } ]
          },
          "count": 0
        } ],
        "measureScore": {
          "value": 0.0
        }
      } ],
      "evaluatedResource": [ {
        "reference": "Patient/45a481a1-13fe-4a18-8e8d-3d8ae497d28f"
      }, {
        "reference": "Observation/1c4b70e8-6472-4f06-a0ea-cb084b6a9e73"
      }, {
        "reference": "Observation/896c2c5a-c4c6-453b-b014-2bb7b8eb4ca4"
      }, {
        "reference": "Observation/9cb8f90d-8ec1-4009-95e2-29c24e2d7986"
      }, {
        "reference": "Encounter/d43ec7e1-a83a-469a-8e3a-36b8b9c4e112"
      }, {
        "reference": "Procedure/cbdd2789-db9c-42c2-b6bf-2a08337fa278"
      }, {
        "reference": "Condition/919446d3-d51e-4aa6-93c3-8f6f333aa102"
      }, {
        "reference": "Coverage/85fcbc74-12a1-4285-83f3-09d8e6756b73"
      }, {
        "reference": "Organization/9829aa26-201a-4f31-9c10-2e034b4e8303"
      }, {
        "reference": "Practitioner/c63bf238-75d9-4894-b553-d00751eaef57"
      } ]
    },
    "request": {
      "method": "PUT",
      "url": "MeasureReport/d8de690b-5165-4d0f-aec3-a410100c4192"
    }
  } ]
}