{
  "resourceType": "Bundle",
  "id": "6179eb6ead1a790b7af75254",
  "type": "transaction",
  "entry": [ {
    "fullUrl": "https://madie.cms.gov/Patient/7398c01f-d745-4013-80e7-1a8a549650db",
    "resource": {
      "resourceType": "Patient",
      "id": "7398c01f-d745-4013-80e7-1a8a549650db",
      "meta": {
        "profile": [ "http://hl7.org/fhir/us/qicore/StructureDefinition/qicore-patient" ]
      },
      "extension": [ {
        "url": "http://hl7.org/fhir/us/core/StructureDefinition/us-core-race",
        "extension": [ {
          "url": "ombCategory",
          "valueCoding": {
            "system": "urn:oid:2.16.840.1.113883.6.238",
            "code": "2076-8",
            "display": "Native Hawaiian or Other Pacific Islander",
            "userSelected": true
          }
        }, {
          "url": "text",
          "valueString": "Native Hawaiian or Other Pacific Islander"
        } ]
      }, {
        "url": "http://hl7.org/fhir/us/core/StructureDefinition/us-core-ethnicity",
        "extension": [ {
          "url": "ombCategory",
          "valueCoding": {
            "system": "urn:oid:2.16.840.1.113883.6.238",
            "code": "2135-2",
            "display": "Hispanic or Latino",
            "userSelected": true
          }
        }, {
          "url": "text",
          "valueString": "Hispanic or Latino"
        } ]
      }, {
        "url": "http://hl7.org/fhir/us/core/StructureDefinition/us-core-sex",
        "valueCode": "248152002"
      } ],
      "identifier": [ {
        "type": {
          "coding": [ {
            "system": "http://terminology.hl7.org/CodeSystem/v2-0203",
            "code": "MR"
          } ]
        },
        "system": "https://bonnie-fhir.healthit.gov/",
        "value": "6179eb6ead1a790b7af75254"
      } ],
      "name": [ {
        "family": "DenExcl2Pass",
        "given": [ "PxExclStartsDuringEndsAfterED" ]
      } ],
      "gender": "female",
      "birthDate": "1985-12-02"
    },
    "request": {
      "method": "PUT",
      "url": "Patient/7398c01f-d745-4013-80e7-1a8a549650db"
    }
  }, {
    "fullUrl": "https://madie.cms.gov/Encounter/2e55fb77-57e3-483a-879b-24cd020975aa",
    "resource": {
      "resourceType": "Encounter",
      "id": "2e55fb77-57e3-483a-879b-24cd020975aa",
      "meta": {
        "profile": [ "http://hl7.org/fhir/us/qicore/StructureDefinition/qicore-encounter" ]
      },
      "status": "finished",
      "class": {
        "system": "http://terminology.hl7.org/CodeSystem/v3-ActCode",
        "code": "EMER",
        "display": "emergency",
        "userSelected": true
      },
      "type": [ {
        "coding": [ {
          "system": "http://snomed.info/sct",
          "version": "2020-09",
          "code": "4525004",
          "display": "Emergency department patient visit (procedure)",
          "userSelected": true
        } ]
      } ],
      "subject": {
        "reference": "Patient/7398c01f-d745-4013-80e7-1a8a549650db"
      },
      "period": {
        "start": "2026-10-09T08:05:00.000+00:00",
        "end": "2026-10-10T07:15:00.000+00:00"
      },
      "reasonReference": [ {
        "reference": "Condition/7c67de8f-986e-4677-9f67-3f80906c5d8f"
      } ]
    },
    "request": {
      "method": "PUT",
      "url": "Encounter/2e55fb77-57e3-483a-879b-24cd020975aa"
    }
  }, {
    "fullUrl": "https://madie.cms.gov/Condition/7c67de8f-986e-4677-9f67-3f80906c5d8f",
    "resource": {
      "resourceType": "Condition",
      "id": "7c67de8f-986e-4677-9f67-3f80906c5d8f",
      "meta": {
        "profile": [ "http://hl7.org/fhir/us/qicore/StructureDefinition/qicore-condition-problems-health-concerns" ]
      },
      "clinicalStatus": {
        "coding": [ {
          "system": "http://terminology.hl7.org/CodeSystem/condition-clinical",
          "code": "active",
          "display": "active",
          "userSelected": true
        } ]
      },
      "category": [ {
        "coding": [ {
          "system": "http://terminology.hl7.org/CodeSystem/condition-category",
          "code": "problem-list-item",
          "display": "Problem List Item",
          "userSelected": true
        } ]
      } ],
      "code": {
        "coding": [ {
          "system": "http://snomed.info/sct",
          "version": "2020-09",
          "code": "401303003",
          "display": "Acute ST segment elevation myocardial infarction (disorder)",
          "userSelected": true
        } ]
      },
      "subject": {
        "reference": "Patient/7398c01f-d745-4013-80e7-1a8a549650db"
      },
      "onsetDateTime": "2026-10-09T08:30:00.000+00:00"
    },
    "request": {
      "method": "PUT",
      "url": "Condition/7c67de8f-986e-4677-9f67-3f80906c5d8f"
    }
  }, {
    "fullUrl": "https://madie.cms.gov/Procedure/2aaaceb4-16ae-42ec-a922-1bb4f8aa2f22",
    "resource": {
      "resourceType": "Procedure",
      "id": "2aaaceb4-16ae-42ec-a922-1bb4f8aa2f22",
      "meta": {
        "profile": [ "http://hl7.org/fhir/us/qicore/StructureDefinition/qicore-procedure" ]
      },
      "extension": [ {
        "url": "http://hl7.org/fhir/us/qicore/StructureDefinition/qicore-recorded",
        "valueDateTime": "2026-10-12T08:15:00.000+00:00"
      } ],
      "status": "completed",
      "category": {
        "coding": [ {
          "system": "http://snomed.info/sct",
          "code": "387713003",
          "display": "Surgical procedure",
          "userSelected": true
        } ]
      },
      "code": {
        "coding": [ {
          "system": "http://snomed.info/sct",
          "code": "429161001",
          "userSelected": true
        } ]
      },
      "subject": {
        "reference": "Patient/7398c01f-d745-4013-80e7-1a8a549650db"
      },
      "performedPeriod": {
        "start": "2026-10-09T13:15:00.000+00:00",
        "end": "2026-10-12T08:15:00.000+00:00"
      }
    },
    "request": {
      "method": "PUT",
      "url": "Procedure/2aaaceb4-16ae-42ec-a922-1bb4f8aa2f22"
    }
  }, {
    "fullUrl": "https://madie.cms.gov/MeasureReport/9a2b6bb1-1ad8-4464-96df-d12806a8e2df",
    "resource": {
      "resourceType": "MeasureReport",
      "id": "9a2b6bb1-1ad8-4464-96df-d12806a8e2df",
      "meta": {
        "profile": [ "http://hl7.org/fhir/us/cqfmeasures/StructureDefinition/test-case-cqfm" ]
      },
      "contained": [ {
        "resourceType": "Parameters",
        "id": "9380d053-6183-47c7-9e55-fee693daf988-parameters",
        "parameter": [ {
          "name": "subject",
          "valueString": "7398c01f-d745-4013-80e7-1a8a549650db"
        } ]
      } ],
      "extension": [ {
        "url": "http://hl7.org/fhir/StructureDefinition/cqf-inputParameters",
        "valueReference": {
          "reference": "#9380d053-6183-47c7-9e55-fee693daf988-parameters"
        }
      }, {
        "url": "http://hl7.org/fhir/us/cqfmeasures/StructureDefinition/cqfm-testCaseDescription",
        "valueMarkdown": "Patient has endotracheal intubation (exclusion procedure) that starts during and ends after the ED encounter "
      } ],
      "modifierExtension": [ {
        "url": "http://hl7.org/fhir/us/cqfmeasures/StructureDefinition/cqfm-isTestCase",
        "valueBoolean": true
      } ],
      "status": "complete",
      "type": "individual",
      "measure": "https://madie.cms.gov/Measure/CMS996FHIRAptTxforSTEMI",
      "period": {
        "start": "2026-01-01",
        "end": "2026-12-31"
      },
      "group": [ {
        "id": "Group_1",
        "population": [ {
          "id": "InitialPopulation_1",
          "code": {
            "coding": [ {
              "system": "http://terminology.hl7.org/CodeSystem/measure-population",
              "code": "initial-population",
              "display": "Initial Population"
            } ]
          },
          "count": 1
        }, {
          "id": "Denominator_1",
          "code": {
            "coding": [ {
              "system": "http://terminology.hl7.org/CodeSystem/measure-population",
              "code": "denominator",
              "display": "Denominator"
            } ]
          },
          "count": 1
        }, {
          "id": "DenominatorExclusion_1",
          "code": {
            "coding": [ {
              "system": "http://terminology.hl7.org/CodeSystem/measure-population",
              "code": "denominator-exclusion",
              "display": "Denominator Exclusion"
            } ]
          },
          "count": 1
        }, {
          "id": "Numerator_1",
          "code": {
            "coding": [ {
              "system": "http://terminology.hl7.org/CodeSystem/measure-population",
              "code": "numerator",
              "display": "Numerator"
            } ]
          },
          "count": 0
        }, {
          "id": "DenominatorException_1",
          "code": {
            "coding": [ {
              "system": "http://terminology.hl7.org/CodeSystem/measure-population",
              "code": "denominator-exception",
              "display": "Denominator Exception"
            } ]
          },
          "count": 0
        } ],
        "measureScore": {
          "value": 0.0
        }
      } ],
      "evaluatedResource": [ {
        "reference": "Patient/7398c01f-d745-4013-80e7-1a8a549650db"
      }, {
        "reference": "Encounter/2e55fb77-57e3-483a-879b-24cd020975aa"
      }, {
        "reference": "Condition/7c67de8f-986e-4677-9f67-3f80906c5d8f"
      }, {
        "reference": "Procedure/2aaaceb4-16ae-42ec-a922-1bb4f8aa2f22"
      } ]
    },
    "request": {
      "method": "PUT",
      "url": "MeasureReport/9a2b6bb1-1ad8-4464-96df-d12806a8e2df"
    }
  } ]
}