{
  "resourceType": "Bundle",
  "id": "617827e84bf8e25b8f204e17",
  "type": "transaction",
  "entry": [ {
    "fullUrl": "https://madie.cms.gov/Patient/1581d864-2ee8-4789-ab20-743547353803",
    "resource": {
      "resourceType": "Patient",
      "id": "1581d864-2ee8-4789-ab20-743547353803",
      "meta": {
        "profile": [ "http://hl7.org/fhir/us/qicore/StructureDefinition/qicore-patient" ]
      },
      "extension": [ {
        "url": "http://hl7.org/fhir/us/core/StructureDefinition/us-core-race",
        "extension": [ {
          "url": "ombCategory",
          "valueCoding": {
            "system": "urn:oid:2.16.840.1.113883.6.238",
            "code": "2054-5",
            "display": "Black or African American",
            "userSelected": true
          }
        }, {
          "url": "text",
          "valueString": "Black or African American"
        } ]
      }, {
        "url": "http://hl7.org/fhir/us/core/StructureDefinition/us-core-ethnicity",
        "extension": [ {
          "url": "ombCategory",
          "valueCoding": {
            "system": "urn:oid:2.16.840.1.113883.6.238",
            "code": "2186-5",
            "display": "Not Hispanic or Latino",
            "userSelected": true
          }
        }, {
          "url": "text",
          "valueString": "Not Hispanic or Latino"
        } ]
      }, {
        "url": "http://hl7.org/fhir/us/core/StructureDefinition/us-core-sex",
        "valueCode": "248152002"
      } ],
      "identifier": [ {
        "type": {
          "coding": [ {
            "system": "http://terminology.hl7.org/CodeSystem/v2-0203",
            "code": "MR"
          } ]
        },
        "system": "https://bonnie-fhir.healthit.gov/",
        "value": "617827e84bf8e25b8f204e17"
      } ],
      "name": [ {
        "family": "NumPass",
        "given": [ "PCI89MinStartUsingRelevantDateTime" ]
      } ],
      "gender": "female",
      "birthDate": "1985-12-02"
    },
    "request": {
      "method": "PUT",
      "url": "Patient/1581d864-2ee8-4789-ab20-743547353803"
    }
  }, {
    "fullUrl": "https://madie.cms.gov/Encounter/b4257440-e5ed-47f0-ad16-b7ab6ccf43d4",
    "resource": {
      "resourceType": "Encounter",
      "id": "b4257440-e5ed-47f0-ad16-b7ab6ccf43d4",
      "meta": {
        "profile": [ "http://hl7.org/fhir/us/qicore/StructureDefinition/qicore-encounter" ]
      },
      "status": "finished",
      "class": {
        "system": "http://terminology.hl7.org/CodeSystem/v3-ActCode",
        "code": "EMER",
        "display": "emergency",
        "userSelected": true
      },
      "type": [ {
        "coding": [ {
          "system": "http://snomed.info/sct",
          "version": "2020-09",
          "code": "4525004",
          "display": "Emergency department patient visit (procedure)",
          "userSelected": true
        } ]
      } ],
      "subject": {
        "reference": "Patient/1581d864-2ee8-4789-ab20-743547353803"
      },
      "period": {
        "start": "2026-10-09T08:05:00.000+00:00",
        "end": "2026-10-10T07:15:00.000+00:00"
      },
      "reasonReference": [ {
        "reference": "Condition/82d90233-d9a1-48c5-b65d-24389dff8bb3"
      } ],
      "location": [ {
        "location": {
          "reference": "Location/5f10d648-825d-49cd-8ece-4b3b676ba82b"
        },
        "period": {
          "start": "2026-10-09T08:07:00.000+00:00",
          "end": "2026-10-10T07:13:00.000+00:00"
        }
      } ]
    },
    "request": {
      "method": "PUT",
      "url": "Encounter/b4257440-e5ed-47f0-ad16-b7ab6ccf43d4"
    }
  }, {
    "fullUrl": "https://madie.cms.gov/Location/5f10d648-825d-49cd-8ece-4b3b676ba82b",
    "resource": {
      "resourceType": "Location",
      "id": "5f10d648-825d-49cd-8ece-4b3b676ba82b",
      "meta": {
        "profile": [ "http://hl7.org/fhir/us/qicore/StructureDefinition/qicore-location" ]
      },
      "identifier": [ {
        "use": "usual",
        "system": "http://exampleoflocation.com",
        "value": "ED-1.R3"
      } ],
      "name": "Emergency Department, first floor",
      "type": [ {
        "coding": [ {
          "system": "http://snomed.info/sct",
          "version": "20210611",
          "code": "4525004",
          "display": "Emergency department patient visit (procedure)",
          "userSelected": true
        } ]
      }, {
        "coding": [ {
          "system": "http://terminology.hl7.org/CodeSystem/v3-RoleCode",
          "version": "2019",
          "code": "ER",
          "display": "Emergency room",
          "userSelected": true
        } ]
      }, {
        "coding": [ {
          "system": "http://cts.nlm.nih.gov/fhir/CodeSystem/hsloc",
          "version": "2022",
          "code": "1108-0",
          "display": "Emergency Department",
          "userSelected": true
        } ]
      } ]
    },
    "request": {
      "method": "PUT",
      "url": "Location/5f10d648-825d-49cd-8ece-4b3b676ba82b"
    }
  }, {
    "fullUrl": "https://madie.cms.gov/Condition/82d90233-d9a1-48c5-b65d-24389dff8bb3",
    "resource": {
      "resourceType": "Condition",
      "id": "82d90233-d9a1-48c5-b65d-24389dff8bb3",
      "meta": {
        "profile": [ "http://hl7.org/fhir/us/qicore/StructureDefinition/qicore-condition-problems-health-concerns" ]
      },
      "clinicalStatus": {
        "coding": [ {
          "system": "http://terminology.hl7.org/CodeSystem/condition-clinical",
          "code": "active",
          "display": "active",
          "userSelected": true
        } ]
      },
      "category": [ {
        "coding": [ {
          "system": "http://terminology.hl7.org/CodeSystem/condition-category",
          "code": "problem-list-item",
          "display": "Problem List Item",
          "userSelected": true
        } ]
      } ],
      "code": {
        "coding": [ {
          "system": "http://snomed.info/sct",
          "version": "2020-09",
          "code": "401303003",
          "display": "Acute ST segment elevation myocardial infarction (disorder)",
          "userSelected": true
        } ]
      },
      "subject": {
        "reference": "Patient/1581d864-2ee8-4789-ab20-743547353803"
      },
      "onsetDateTime": "2026-10-09T08:10:00.000+00:00"
    },
    "request": {
      "method": "PUT",
      "url": "Condition/82d90233-d9a1-48c5-b65d-24389dff8bb3"
    }
  }, {
    "fullUrl": "https://madie.cms.gov/Procedure/839dd08a-e7db-4c90-a27b-ef211dad8f9b",
    "resource": {
      "resourceType": "Procedure",
      "id": "839dd08a-e7db-4c90-a27b-ef211dad8f9b",
      "meta": {
        "profile": [ "http://hl7.org/fhir/us/qicore/StructureDefinition/qicore-procedure" ]
      },
      "extension": [ {
        "url": "http://hl7.org/fhir/us/qicore/StructureDefinition/qicore-recorded",
        "valueDateTime": "2026-10-09T09:34:00.000+00:00"
      } ],
      "status": "completed",
      "code": {
        "coding": [ {
          "system": "http://www.cms.gov/Medicare/Coding/ICD10",
          "version": "2021",
          "code": "0270346",
          "display": "Dilation of Coronary Artery, One Artery, Bifurcation, with Drug-eluting Intraluminal Device, Percutaneous Approach",
          "userSelected": true
        } ]
      },
      "subject": {
        "reference": "Patient/1581d864-2ee8-4789-ab20-743547353803"
      },
      "performedDateTime": "2026-10-09T09:34:00.000+00:00"
    },
    "request": {
      "method": "PUT",
      "url": "Procedure/839dd08a-e7db-4c90-a27b-ef211dad8f9b"
    }
  }, {
    "fullUrl": "https://madie.cms.gov/MeasureReport/64be8d13-e46e-44b6-8d3d-69323706fb92",
    "resource": {
      "resourceType": "MeasureReport",
      "id": "64be8d13-e46e-44b6-8d3d-69323706fb92",
      "meta": {
        "profile": [ "http://hl7.org/fhir/us/cqfmeasures/StructureDefinition/test-case-cqfm" ]
      },
      "contained": [ {
        "resourceType": "Parameters",
        "id": "9ded196b-6692-4720-a233-81940f9155e5-parameters",
        "parameter": [ {
          "name": "subject",
          "valueString": "1581d864-2ee8-4789-ab20-743547353803"
        } ]
      } ],
      "extension": [ {
        "url": "http://hl7.org/fhir/StructureDefinition/cqf-inputParameters",
        "valueReference": {
          "reference": "#9ded196b-6692-4720-a233-81940f9155e5-parameters"
        }
      }, {
        "url": "http://hl7.org/fhir/us/cqfmeasures/StructureDefinition/cqfm-testCaseDescription",
        "valueMarkdown": "PCI 89 minutes of start using relevantdateTime"
      } ],
      "modifierExtension": [ {
        "url": "http://hl7.org/fhir/us/cqfmeasures/StructureDefinition/cqfm-isTestCase",
        "valueBoolean": true
      } ],
      "status": "complete",
      "type": "individual",
      "measure": "https://madie.cms.gov/Measure/CMS996FHIRAptTxforSTEMI",
      "period": {
        "start": "2026-01-01",
        "end": "2026-12-31"
      },
      "group": [ {
        "id": "Group_1",
        "population": [ {
          "id": "InitialPopulation_1",
          "code": {
            "coding": [ {
              "system": "http://terminology.hl7.org/CodeSystem/measure-population",
              "code": "initial-population",
              "display": "Initial Population"
            } ]
          },
          "count": 1
        }, {
          "id": "Denominator_1",
          "code": {
            "coding": [ {
              "system": "http://terminology.hl7.org/CodeSystem/measure-population",
              "code": "denominator",
              "display": "Denominator"
            } ]
          },
          "count": 1
        }, {
          "id": "DenominatorExclusion_1",
          "code": {
            "coding": [ {
              "system": "http://terminology.hl7.org/CodeSystem/measure-population",
              "code": "denominator-exclusion",
              "display": "Denominator Exclusion"
            } ]
          },
          "count": 0
        }, {
          "id": "Numerator_1",
          "code": {
            "coding": [ {
              "system": "http://terminology.hl7.org/CodeSystem/measure-population",
              "code": "numerator",
              "display": "Numerator"
            } ]
          },
          "count": 1
        }, {
          "id": "DenominatorException_1",
          "code": {
            "coding": [ {
              "system": "http://terminology.hl7.org/CodeSystem/measure-population",
              "code": "denominator-exception",
              "display": "Denominator Exception"
            } ]
          },
          "count": 0
        } ],
        "measureScore": {
          "value": 0.0
        }
      } ],
      "evaluatedResource": [ {
        "reference": "Patient/1581d864-2ee8-4789-ab20-743547353803"
      }, {
        "reference": "Encounter/b4257440-e5ed-47f0-ad16-b7ab6ccf43d4"
      }, {
        "reference": "Location/5f10d648-825d-49cd-8ece-4b3b676ba82b"
      }, {
        "reference": "Condition/82d90233-d9a1-48c5-b65d-24389dff8bb3"
      }, {
        "reference": "Procedure/839dd08a-e7db-4c90-a27b-ef211dad8f9b"
      } ]
    },
    "request": {
      "method": "PUT",
      "url": "MeasureReport/64be8d13-e46e-44b6-8d3d-69323706fb92"
    }
  } ]
}