{
  "resourceType": "Bundle",
  "id": "612e6a9402c62a011f2ea747",
  "type": "transaction",
  "entry": [ {
    "fullUrl": "https://madie.cms.gov/Patient/208cb0f9-a6e9-4207-b6a4-3325fb463099",
    "resource": {
      "resourceType": "Patient",
      "id": "208cb0f9-a6e9-4207-b6a4-3325fb463099",
      "meta": {
        "profile": [ "http://hl7.org/fhir/us/qicore/StructureDefinition/qicore-patient" ]
      },
      "text": {
        "status": "generated",
        "div": "<div xmlns=\"http://www.w3.org/1999/xhtml\"><div class=\"hapiHeaderText\">MedReasonMAWarfDOIPCDayOfAnes <b>NUMERPASS </b></div><table class=\"hapiPropertyTable\"><tbody><tr><td>Identifier</td><td>7b1692125190d12df658f3578aa84ca8</td></tr><tr><td>Date of birth</td><td><span>02 January 1974</span></td></tr></tbody></table></div>"
      },
      "extension": [ {
        "url": "http://hl7.org/fhir/us/core/StructureDefinition/us-core-race",
        "extension": [ {
          "url": "ombCategory",
          "valueCoding": {
            "system": "urn:oid:2.16.840.1.113883.6.238",
            "code": "1002-5",
            "display": "American Indian or Alaska Native",
            "userSelected": true
          }
        }, {
          "url": "text",
          "valueString": "American Indian or Alaska Native"
        } ]
      }, {
        "url": "http://hl7.org/fhir/us/core/StructureDefinition/us-core-ethnicity",
        "extension": [ {
          "url": "ombCategory",
          "valueCoding": {
            "system": "urn:oid:2.16.840.1.113883.6.238",
            "code": "2135-2",
            "display": "Hispanic or Latino",
            "userSelected": true
          }
        }, {
          "url": "text",
          "valueString": "Hispanic or Latino"
        } ]
      } ],
      "identifier": [ {
        "type": {
          "coding": [ {
            "system": "http://terminology.hl7.org/CodeSystem/v2-0203",
            "code": "MR"
          } ]
        },
        "system": "https://bonnie-fhir.healthit.gov/",
        "value": "612e6a9402c62a011f2ea747"
      } ],
      "active": true,
      "name": [ {
        "use": "usual",
        "family": "NUMERPass",
        "given": [ "MedReasonMAWarfDOIPCDayOfAnes" ]
      } ],
      "gender": "male",
      "birthDate": "1975-01-02"
    },
    "request": {
      "method": "PUT",
      "url": "Patient/208cb0f9-a6e9-4207-b6a4-3325fb463099"
    }
  }, {
    "fullUrl": "https://madie.cms.gov/Encounter/2a4a9dae-1c57-4db9-aca1-7194607af0f5",
    "resource": {
      "resourceType": "Encounter",
      "id": "2a4a9dae-1c57-4db9-aca1-7194607af0f5",
      "meta": {
        "profile": [ "http://hl7.org/fhir/us/qicore/StructureDefinition/qicore-encounter" ]
      },
      "status": "finished",
      "class": {
        "system": "http://terminology.hl7.org/CodeSystem/v3-ActCode",
        "code": "IMP",
        "display": "inpatient encounter"
      },
      "type": [ {
        "coding": [ {
          "system": "http://snomed.info/sct",
          "code": "8715000"
        } ]
      } ],
      "subject": {
        "reference": "Patient/208cb0f9-a6e9-4207-b6a4-3325fb463099"
      },
      "period": {
        "start": "2026-11-01T08:00:00.000+00:00",
        "end": "2026-11-26T08:15:00.000+00:00"
      },
      "length": {
        "value": 25,
        "unit": "days"
      },
      "location": [ {
        "location": {
          "reference": "Location/63cfaf07-1d12-4c33-9c99-0eb7810e07d5"
        },
        "period": {
          "start": "2026-11-01T09:00:00.000+00:00",
          "end": "2026-11-02T08:15:00.000+00:00"
        }
      } ]
    },
    "request": {
      "method": "PUT",
      "url": "Encounter/2a4a9dae-1c57-4db9-aca1-7194607af0f5"
    }
  }, {
    "fullUrl": "https://madie.cms.gov/Coverage/c12d35c7-e6e2-4476-bec6-52ac6376c81b",
    "resource": {
      "resourceType": "Coverage",
      "id": "c12d35c7-e6e2-4476-bec6-52ac6376c81b",
      "status": "active",
      "beneficiary": {
        "reference": "Patient/208cb0f9-a6e9-4207-b6a4-3325fb463099"
      },
      "period": {
        "start": "1975-01-02T08:00:00.000+00:00"
      },
      "payor": [ {
        "reference": "Organization/adaf29c7-233b-4b08-bd1a-f74f4e799fd6"
      } ]
    },
    "request": {
      "method": "PUT",
      "url": "Coverage/c12d35c7-e6e2-4476-bec6-52ac6376c81b"
    }
  }, {
    "fullUrl": "https://madie.cms.gov/MedicationAdministration/ab1bbf44-4c3a-4476-a958-99a61daaa626",
    "resource": {
      "resourceType": "MedicationAdministration",
      "id": "ab1bbf44-4c3a-4476-a958-99a61daaa626",
      "meta": {
        "profile": [ "http://hl7.org/fhir/us/qicore/StructureDefinition/qicore-medicationadministrationnotdone" ]
      },
      "extension": [ {
        "url": "http://hl7.org/fhir/us/qicore/StructureDefinition/qicore-recorded",
        "valueDateTime": "2026-11-02T11:00:00.000+00:00"
      } ],
      "status": "not-done",
      "statusReason": [ {
        "coding": [ {
          "system": "http://snomed.info/sct",
          "code": "183932001"
        } ]
      } ],
      "medicationCodeableConcept": {
        "coding": [ {
          "system": "http://www.nlm.nih.gov/research/umls/rxnorm",
          "code": "855288"
        } ]
      },
      "subject": {
        "reference": "Patient/208cb0f9-a6e9-4207-b6a4-3325fb463099"
      },
      "effectivePeriod": {
        "start": "2026-11-02T11:00:00.000+00:00"
      }
    },
    "request": {
      "method": "PUT",
      "url": "MedicationAdministration/ab1bbf44-4c3a-4476-a958-99a61daaa626"
    }
  }, {
    "fullUrl": "https://madie.cms.gov/Procedure/a3de8161-0dde-4b1f-8210-419afe765fa0",
    "resource": {
      "resourceType": "Procedure",
      "id": "a3de8161-0dde-4b1f-8210-419afe765fa0",
      "meta": {
        "profile": [ "http://hl7.org/fhir/us/qicore/StructureDefinition/qicore-procedure" ]
      },
      "extension": [ {
        "url": "http://hl7.org/fhir/us/qicore/StructureDefinition/qicore-recorded",
        "valueDateTime": "2013-11-02T13:35:00.000+00:00"
      } ],
      "status": "completed",
      "code": {
        "coding": [ {
          "system": "http://snomed.info/sct",
          "code": "18946005"
        } ]
      },
      "subject": {
        "reference": "Patient/208cb0f9-a6e9-4207-b6a4-3325fb463099"
      },
      "performedPeriod": {
        "start": "2026-11-02T09:00:00.000+00:00",
        "end": "2026-11-02T09:15:00.000+00:00"
      }
    },
    "request": {
      "method": "PUT",
      "url": "Procedure/a3de8161-0dde-4b1f-8210-419afe765fa0"
    }
  }, {
    "fullUrl": "https://madie.cms.gov/ServiceRequest/285b0925-df4a-41b9-ad8c-6551489dabd7",
    "resource": {
      "resourceType": "ServiceRequest",
      "id": "285b0925-df4a-41b9-ad8c-6551489dabd7",
      "meta": {
        "profile": [ "http://hl7.org/fhir/us/qicore/StructureDefinition/qicore-servicenotrequested" ]
      },
      "extension": [ {
        "url": "http://hl7.org/fhir/us/qicore/StructureDefinition/qicore-doNotPerformReason",
        "valueCodeableConcept": {
          "coding": [ {
            "system": "http://snomed.info/sct",
            "code": "183932001",
            "display": "Procedure contraindicated (situation)"
          } ]
        }
      } ],
      "status": "completed",
      "intent": "order",
      "doNotPerform": true,
      "code": {
        "coding": [ {
          "system": "http://snomed.info/sct",
          "version": "2025-03",
          "code": "428411000124104",
          "display": "Intermittent pneumatic compression boot (physical object)",
          "userSelected": true
        } ]
      },
      "subject": {
        "reference": "Patient/208cb0f9-a6e9-4207-b6a4-3325fb463099"
      },
      "authoredOn": "2026-11-02T10:00:00.000+00:00"
    },
    "request": {
      "method": "PUT",
      "url": "ServiceRequest/285b0925-df4a-41b9-ad8c-6551489dabd7"
    }
  }, {
    "fullUrl": "https://madie.cms.gov/Location/63cfaf07-1d12-4c33-9c99-0eb7810e07d5",
    "resource": {
      "resourceType": "Location",
      "id": "63cfaf07-1d12-4c33-9c99-0eb7810e07d5",
      "meta": {
        "profile": [ "http://hl7.org/fhir/us/qicore/StructureDefinition/qicore-location" ]
      },
      "identifier": [ {
        "use": "usual",
        "system": "http://exampleoflocation.com",
        "value": "B1-S.F2"
      } ],
      "name": "Medical Surgical East, first floor",
      "type": [ {
        "coding": [ {
          "system": "https://www.cdc.gov/nhsn/cdaportal/terminology/codesystem/hsloc.html",
          "code": "1025-6",
          "display": "Trauma Critical Care",
          "userSelected": true
        } ]
      } ]
    },
    "request": {
      "method": "PUT",
      "url": "Location/63cfaf07-1d12-4c33-9c99-0eb7810e07d5"
    }
  }, {
    "fullUrl": "https://madie.cms.gov/Organization/adaf29c7-233b-4b08-bd1a-f74f4e799fd6",
    "resource": {
      "resourceType": "Organization",
      "id": "adaf29c7-233b-4b08-bd1a-f74f4e799fd6",
      "meta": {
        "profile": [ "http://hl7.org/fhir/us/qicore/StructureDefinition/qicore-organization" ]
      },
      "identifier": [ {
        "use": "temp",
        "system": "urn:oid:2.16.840.1.113883.4.4",
        "value": "21-3259825"
      } ],
      "active": true,
      "type": [ {
        "coding": [ {
          "system": "http://terminology.hl7.org/CodeSystem/organization-type",
          "code": "pay",
          "display": "Payer"
        } ]
      } ],
      "name": "Blue Cross Blue Shield of Texas",
      "telecom": [ {
        "system": "phone",
        "value": "(+1) 972-766-6900"
      } ],
      "address": [ {
        "use": "billing",
        "type": "postal",
        "line": [ "P.O. Box 660044" ],
        "city": "Dallas",
        "state": "TX",
        "postalCode": "75266-0044",
        "country": "USA"
      } ]
    },
    "request": {
      "method": "PUT",
      "url": "Organization/adaf29c7-233b-4b08-bd1a-f74f4e799fd6"
    }
  }, {
    "fullUrl": "https://madie.cms.gov/Practitioner/bc8c12ed-5431-4f3f-9672-1356f9618e45",
    "resource": {
      "resourceType": "Practitioner",
      "id": "bc8c12ed-5431-4f3f-9672-1356f9618e45",
      "identifier": [ {
        "system": "http://hl7.org/fhir/sid/us-npi",
        "value": "123456"
      } ],
      "name": [ {
        "family": "Evil",
        "prefix": [ "Dr" ]
      } ]
    },
    "request": {
      "method": "PUT",
      "url": "Practitioner/bc8c12ed-5431-4f3f-9672-1356f9618e45"
    }
  }, {
    "fullUrl": "https://madie.cms.gov/MeasureReport/3cb6a3ba-7c97-47c9-9ac7-cd39959ecc39",
    "resource": {
      "resourceType": "MeasureReport",
      "id": "3cb6a3ba-7c97-47c9-9ac7-cd39959ecc39",
      "meta": {
        "profile": [ "http://hl7.org/fhir/us/cqfmeasures/StructureDefinition/test-case-cqfm" ]
      },
      "contained": [ {
        "resourceType": "Parameters",
        "id": "f882ab21-b625-4896-91af-364414fda867-parameters",
        "parameter": [ {
          "name": "subject",
          "valueString": "208cb0f9-a6e9-4207-b6a4-3325fb463099"
        } ]
      } ],
      "extension": [ {
        "url": "http://hl7.org/fhir/StructureDefinition/cqf-inputParameters",
        "valueReference": {
          "reference": "#f882ab21-b625-4896-91af-364414fda867-parameters"
        }
      }, {
        "url": "http://hl7.org/fhir/us/cqfmeasures/StructureDefinition/cqfm-testCaseDescription",
        "valueMarkdown": "meets IPP, meets Denominator, IPC ordered not done  and Warfarin adm not done medical reason on the day of Anes\n"
      } ],
      "modifierExtension": [ {
        "url": "http://hl7.org/fhir/us/cqfmeasures/StructureDefinition/cqfm-isTestCase",
        "valueBoolean": true
      } ],
      "status": "complete",
      "type": "individual",
      "measure": "https://madie.cms.gov/Measure/CMS190FHIRVTEProphylaxisICU",
      "period": {
        "start": "2026-01-01",
        "end": "2026-12-31"
      },
      "group": [ {
        "id": "Group_1",
        "population": [ {
          "id": "InitialPopulation_1",
          "code": {
            "coding": [ {
              "system": "http://terminology.hl7.org/CodeSystem/measure-population",
              "code": "initial-population",
              "display": "Initial Population"
            } ]
          },
          "count": 1
        }, {
          "id": "Denominator_1",
          "code": {
            "coding": [ {
              "system": "http://terminology.hl7.org/CodeSystem/measure-population",
              "code": "denominator",
              "display": "Denominator"
            } ]
          },
          "count": 1
        }, {
          "id": "DenominatorExclusion_1",
          "code": {
            "coding": [ {
              "system": "http://terminology.hl7.org/CodeSystem/measure-population",
              "code": "denominator-exclusion",
              "display": "Denominator Exclusion"
            } ]
          },
          "count": 0
        }, {
          "id": "Numerator_1",
          "code": {
            "coding": [ {
              "system": "http://terminology.hl7.org/CodeSystem/measure-population",
              "code": "numerator",
              "display": "Numerator"
            } ]
          },
          "count": 1
        }, {
          "id": "DenominatorException_1",
          "code": {
            "coding": [ {
              "system": "http://terminology.hl7.org/CodeSystem/measure-population",
              "code": "denominator-exception",
              "display": "Denominator Exception"
            } ]
          },
          "count": 0
        } ],
        "measureScore": {
          "value": 0.0
        }
      } ],
      "evaluatedResource": [ {
        "reference": "Patient/208cb0f9-a6e9-4207-b6a4-3325fb463099"
      }, {
        "reference": "Encounter/2a4a9dae-1c57-4db9-aca1-7194607af0f5"
      }, {
        "reference": "Coverage/c12d35c7-e6e2-4476-bec6-52ac6376c81b"
      }, {
        "reference": "MedicationAdministration/ab1bbf44-4c3a-4476-a958-99a61daaa626"
      }, {
        "reference": "Procedure/a3de8161-0dde-4b1f-8210-419afe765fa0"
      }, {
        "reference": "ServiceRequest/285b0925-df4a-41b9-ad8c-6551489dabd7"
      }, {
        "reference": "Location/63cfaf07-1d12-4c33-9c99-0eb7810e07d5"
      }, {
        "reference": "Organization/adaf29c7-233b-4b08-bd1a-f74f4e799fd6"
      }, {
        "reference": "Practitioner/bc8c12ed-5431-4f3f-9672-1356f9618e45"
      } ]
    },
    "request": {
      "method": "PUT",
      "url": "MeasureReport/3cb6a3ba-7c97-47c9-9ac7-cd39959ecc39"
    }
  } ]
}