{
  "resourceType": "Bundle",
  "id": "612e6e9202c62a011f2eee31",
  "type": "transaction",
  "entry": [ {
    "fullUrl": "https://madie.cms.gov/Patient/f59dc89c-0125-4f26-8442-6d0eb8c3409a",
    "resource": {
      "resourceType": "Patient",
      "id": "f59dc89c-0125-4f26-8442-6d0eb8c3409a",
      "meta": {
        "profile": [ "http://hl7.org/fhir/us/qicore/StructureDefinition/qicore-patient" ]
      },
      "text": {
        "status": "generated",
        "div": "<div xmlns=\"http://www.w3.org/1999/xhtml\"><div class=\"hapiHeaderText\">IntraCranialNotPrin <b>DENEXFAIL </b></div><table class=\"hapiPropertyTable\"><tbody><tr><td>Identifier</td><td>fd8dd0654dd3cfdf3e785f740e343dc5</td></tr><tr><td>Date of birth</td><td><span>03 March 1974</span></td></tr></tbody></table></div>"
      },
      "extension": [ {
        "url": "http://hl7.org/fhir/us/core/StructureDefinition/us-core-race",
        "extension": [ {
          "url": "ombCategory",
          "valueCoding": {
            "system": "urn:oid:2.16.840.1.113883.6.238",
            "code": "1002-5",
            "display": "American Indian or Alaska Native",
            "userSelected": true
          }
        }, {
          "url": "text",
          "valueString": "American Indian or Alaska Native"
        } ]
      }, {
        "url": "http://hl7.org/fhir/us/core/StructureDefinition/us-core-ethnicity",
        "extension": [ {
          "url": "ombCategory",
          "valueCoding": {
            "system": "urn:oid:2.16.840.1.113883.6.238",
            "code": "2135-2",
            "display": "Hispanic or Latino",
            "userSelected": true
          }
        }, {
          "url": "text",
          "valueString": "Hispanic or Latino"
        } ]
      } ],
      "identifier": [ {
        "type": {
          "coding": [ {
            "system": "http://terminology.hl7.org/CodeSystem/v2-0203",
            "code": "MR"
          } ]
        },
        "system": "https://bonnie-fhir.healthit.gov/",
        "value": "612e6e9202c62a011f2eee31"
      } ],
      "active": true,
      "name": [ {
        "use": "usual",
        "family": "DENEXFail",
        "given": [ "IntraCranialNotPrin" ]
      } ],
      "gender": "female",
      "birthDate": "1975-03-03"
    },
    "request": {
      "method": "PUT",
      "url": "Patient/f59dc89c-0125-4f26-8442-6d0eb8c3409a"
    }
  }, {
    "fullUrl": "https://madie.cms.gov/Encounter/ec74a867-197d-49dd-b026-83bc19d8d4a9",
    "resource": {
      "resourceType": "Encounter",
      "id": "ec74a867-197d-49dd-b026-83bc19d8d4a9",
      "meta": {
        "profile": [ "http://hl7.org/fhir/us/qicore/StructureDefinition/qicore-encounter" ]
      },
      "status": "finished",
      "class": {
        "system": "http://terminology.hl7.org/CodeSystem/v3-ActCode",
        "code": "IMP",
        "display": "inpatient encounter"
      },
      "type": [ {
        "coding": [ {
          "system": "http://snomed.info/sct",
          "code": "8715000"
        } ]
      } ],
      "subject": {
        "reference": "Patient/f59dc89c-0125-4f26-8442-6d0eb8c3409a"
      },
      "period": {
        "start": "2026-12-04T08:00:00.000+00:00",
        "end": "2026-12-30T08:15:00.000+00:00"
      },
      "length": {
        "value": 26.0,
        "unit": "days"
      },
      "location": [ {
        "location": {
          "reference": "Location/660361d9-d456-403f-bcd4-ca337e207d6c"
        },
        "period": {
          "start": "2026-12-06T08:00:00.000+00:00",
          "end": "2026-12-08T08:15:00.000+00:00"
        }
      } ]
    },
    "request": {
      "method": "PUT",
      "url": "Encounter/ec74a867-197d-49dd-b026-83bc19d8d4a9"
    }
  }, {
    "fullUrl": "https://madie.cms.gov/Coverage/3f08b92d-3fa4-48a2-8668-9d7ac69b085b",
    "resource": {
      "resourceType": "Coverage",
      "id": "3f08b92d-3fa4-48a2-8668-9d7ac69b085b",
      "status": "active",
      "beneficiary": {
        "reference": "Patient/f59dc89c-0125-4f26-8442-6d0eb8c3409a"
      },
      "period": {
        "start": "1975-03-03T08:00:00.000+00:00"
      },
      "payor": [ {
        "reference": "Organization/c912a859-ac2d-418d-884f-5f384ab5b0b4"
      } ]
    },
    "request": {
      "method": "PUT",
      "url": "Coverage/3f08b92d-3fa4-48a2-8668-9d7ac69b085b"
    }
  }, {
    "fullUrl": "https://madie.cms.gov/Procedure/61350bd9-d3ba-46cc-b198-dd0581ffe138",
    "resource": {
      "resourceType": "Procedure",
      "id": "61350bd9-d3ba-46cc-b198-dd0581ffe138",
      "meta": {
        "profile": [ "http://hl7.org/fhir/us/qicore/StructureDefinition/qicore-procedure" ]
      },
      "extension": [ {
        "url": "http://hl7.org/fhir/us/qicore/StructureDefinition/qicore-recorded",
        "valueDateTime": "2013-12-06T13:35:00.000+00:00"
      } ],
      "status": "completed",
      "code": {
        "coding": [ {
          "system": "http://www.cms.gov/Medicare/Coding/ICD10",
          "code": "00500ZZ"
        } ]
      },
      "subject": {
        "reference": "Patient/f59dc89c-0125-4f26-8442-6d0eb8c3409a"
      },
      "performedPeriod": {
        "start": "2026-12-06T08:15:00.000+00:00",
        "end": "2026-12-06T23:15:00.000+00:00"
      }
    },
    "request": {
      "method": "PUT",
      "url": "Procedure/61350bd9-d3ba-46cc-b198-dd0581ffe138"
    }
  }, {
    "fullUrl": "https://madie.cms.gov/Location/660361d9-d456-403f-bcd4-ca337e207d6c",
    "resource": {
      "resourceType": "Location",
      "id": "660361d9-d456-403f-bcd4-ca337e207d6c",
      "meta": {
        "profile": [ "http://hl7.org/fhir/us/qicore/StructureDefinition/qicore-location" ]
      },
      "identifier": [ {
        "use": "usual",
        "system": "http://exampleoflocation.com",
        "value": "B1-S.F2"
      } ],
      "name": "Medical Surgical East, first floor",
      "type": [ {
        "coding": [ {
          "system": "https://www.cdc.gov/nhsn/cdaportal/terminology/codesystem/hsloc.html",
          "code": "1025-6",
          "display": "Trauma Critical Care",
          "userSelected": true
        } ]
      } ]
    },
    "request": {
      "method": "PUT",
      "url": "Location/660361d9-d456-403f-bcd4-ca337e207d6c"
    }
  }, {
    "fullUrl": "https://madie.cms.gov/Organization/c912a859-ac2d-418d-884f-5f384ab5b0b4",
    "resource": {
      "resourceType": "Organization",
      "id": "c912a859-ac2d-418d-884f-5f384ab5b0b4",
      "meta": {
        "profile": [ "http://hl7.org/fhir/us/qicore/StructureDefinition/qicore-organization" ]
      },
      "identifier": [ {
        "use": "temp",
        "system": "urn:oid:2.16.840.1.113883.4.4",
        "value": "21-3259825"
      } ],
      "active": true,
      "type": [ {
        "coding": [ {
          "system": "http://terminology.hl7.org/CodeSystem/organization-type",
          "code": "pay",
          "display": "Payer"
        } ]
      } ],
      "name": "Blue Cross Blue Shield of Texas",
      "telecom": [ {
        "system": "phone",
        "value": "(+1) 972-766-6900"
      } ],
      "address": [ {
        "use": "billing",
        "type": "postal",
        "line": [ "P.O. Box 660044" ],
        "city": "Dallas",
        "state": "TX",
        "postalCode": "75266-0044",
        "country": "USA"
      } ]
    },
    "request": {
      "method": "PUT",
      "url": "Organization/c912a859-ac2d-418d-884f-5f384ab5b0b4"
    }
  }, {
    "fullUrl": "https://madie.cms.gov/Practitioner/8b9b88c9-1abb-49bd-9a19-b52096f4b2db",
    "resource": {
      "resourceType": "Practitioner",
      "id": "8b9b88c9-1abb-49bd-9a19-b52096f4b2db",
      "identifier": [ {
        "system": "http://hl7.org/fhir/sid/us-npi",
        "value": "123456"
      } ],
      "name": [ {
        "family": "Evil",
        "prefix": [ "Dr" ]
      } ]
    },
    "request": {
      "method": "PUT",
      "url": "Practitioner/8b9b88c9-1abb-49bd-9a19-b52096f4b2db"
    }
  }, {
    "fullUrl": "https://madie.cms.gov/MeasureReport/3cac6aa3-8f65-4573-a30a-5df60119071b",
    "resource": {
      "resourceType": "MeasureReport",
      "id": "3cac6aa3-8f65-4573-a30a-5df60119071b",
      "meta": {
        "profile": [ "http://hl7.org/fhir/us/cqfmeasures/StructureDefinition/test-case-cqfm" ]
      },
      "contained": [ {
        "resourceType": "Parameters",
        "id": "a3eac117-ff27-48cc-889f-0bf4f5e0f297-parameters",
        "parameter": [ {
          "name": "subject",
          "valueString": "f59dc89c-0125-4f26-8442-6d0eb8c3409a"
        } ]
      } ],
      "extension": [ {
        "url": "http://hl7.org/fhir/StructureDefinition/cqf-inputParameters",
        "valueReference": {
          "reference": "#a3eac117-ff27-48cc-889f-0bf4f5e0f297-parameters"
        }
      }, {
        "url": "http://hl7.org/fhir/us/cqfmeasures/StructureDefinition/cqfm-testCaseDescription",
        "valueMarkdown": "intracranial neurosurgery starts not principal \n"
      } ],
      "modifierExtension": [ {
        "url": "http://hl7.org/fhir/us/cqfmeasures/StructureDefinition/cqfm-isTestCase",
        "valueBoolean": true
      } ],
      "status": "complete",
      "type": "individual",
      "measure": "https://madie.cms.gov/Measure/CMS190FHIRVTEProphylaxisICU",
      "period": {
        "start": "2026-01-01",
        "end": "2026-12-31"
      },
      "group": [ {
        "id": "Group_1",
        "population": [ {
          "id": "InitialPopulation_1",
          "code": {
            "coding": [ {
              "system": "http://terminology.hl7.org/CodeSystem/measure-population",
              "code": "initial-population",
              "display": "Initial Population"
            } ]
          },
          "count": 1
        }, {
          "id": "Denominator_1",
          "code": {
            "coding": [ {
              "system": "http://terminology.hl7.org/CodeSystem/measure-population",
              "code": "denominator",
              "display": "Denominator"
            } ]
          },
          "count": 1
        }, {
          "id": "DenominatorExclusion_1",
          "code": {
            "coding": [ {
              "system": "http://terminology.hl7.org/CodeSystem/measure-population",
              "code": "denominator-exclusion",
              "display": "Denominator Exclusion"
            } ]
          },
          "count": 0
        }, {
          "id": "Numerator_1",
          "code": {
            "coding": [ {
              "system": "http://terminology.hl7.org/CodeSystem/measure-population",
              "code": "numerator",
              "display": "Numerator"
            } ]
          },
          "count": 0
        }, {
          "id": "DenominatorException_1",
          "code": {
            "coding": [ {
              "system": "http://terminology.hl7.org/CodeSystem/measure-population",
              "code": "denominator-exception",
              "display": "Denominator Exception"
            } ]
          },
          "count": 0
        } ],
        "measureScore": {
          "value": 0.0
        }
      } ],
      "evaluatedResource": [ {
        "reference": "Patient/f59dc89c-0125-4f26-8442-6d0eb8c3409a"
      }, {
        "reference": "Encounter/ec74a867-197d-49dd-b026-83bc19d8d4a9"
      }, {
        "reference": "Coverage/3f08b92d-3fa4-48a2-8668-9d7ac69b085b"
      }, {
        "reference": "Procedure/61350bd9-d3ba-46cc-b198-dd0581ffe138"
      }, {
        "reference": "Location/660361d9-d456-403f-bcd4-ca337e207d6c"
      }, {
        "reference": "Organization/c912a859-ac2d-418d-884f-5f384ab5b0b4"
      }, {
        "reference": "Practitioner/8b9b88c9-1abb-49bd-9a19-b52096f4b2db"
      } ]
    },
    "request": {
      "method": "PUT",
      "url": "MeasureReport/3cac6aa3-8f65-4573-a30a-5df60119071b"
    }
  } ]
}