{
  "resourceType": "Bundle",
  "id": "6101649398086b4fedf65e39",
  "type": "collection",
  "entry": [ {
    "fullUrl": "https://madie.cms.gov/Patient/5339dd62-76a1-43b3-9965-d8b61478236a",
    "resource": {
      "resourceType": "Patient",
      "id": "5339dd62-76a1-43b3-9965-d8b61478236a",
      "meta": {
        "profile": [ "http://hl7.org/fhir/us/qicore/StructureDefinition/qicore-patient" ]
      },
      "extension": [ {
        "url": "http://hl7.org/fhir/us/core/StructureDefinition/us-core-race",
        "extension": [ {
          "url": "ombCategory",
          "valueCoding": {
            "system": "urn:oid:2.16.840.1.113883.6.238",
            "code": "1002-5",
            "display": "American Indian or Alaska Native"
          }
        }, {
          "url": "text",
          "valueString": "American Indian or Alaska Native"
        } ]
      }, {
        "url": "http://hl7.org/fhir/us/core/StructureDefinition/us-core-ethnicity",
        "extension": [ {
          "url": "ombCategory",
          "valueCoding": {
            "system": "urn:oid:2.16.840.1.113883.6.238",
            "code": "2135-2",
            "display": "Hispanic or Latino"
          }
        }, {
          "url": "text",
          "valueString": "Hispanic or Latino"
        } ]
      }, {
        "url": "http://hl7.org/fhir/us/core/StructureDefinition/us-core-sex",
        "valueCode": "248153007"
      } ],
      "identifier": [ {
        "type": {
          "coding": [ {
            "system": "http://terminology.hl7.org/CodeSystem/v2-0203",
            "code": "MR"
          } ]
        },
        "system": "https://bonnie-fhir.healthit.gov/",
        "value": "6516516486115651"
      } ],
      "active": true,
      "name": [ {
        "use": "usual",
        "family": "DENEXPass",
        "given": [ "BMI44SameDayAs1stUSSNormalizedIntervalrelevantDatetime" ]
      } ],
      "gender": "male",
      "birthDate": "1958-12-01"
    }
  }, {
    "fullUrl": "https://madie.cms.gov/Observation/790a6e58-ce2c-4aba-b5d2-a9300305f0de",
    "resource": {
      "resourceType": "Observation",
      "id": "790a6e58-ce2c-4aba-b5d2-a9300305f0de",
      "meta": {
        "profile": [ "http://hl7.org/fhir/us/qicore/StructureDefinition/qicore-observation-screening-assessment" ]
      },
      "status": "final",
      "category": [ {
        "coding": [ {
          "system": "http://terminology.hl7.org/CodeSystem/observation-category",
          "code": "survey",
          "display": "Survey"
        } ]
      } ],
      "code": {
        "coding": [ {
          "system": "http://loinc.org",
          "version": "2.76",
          "code": "80976-4"
        } ]
      },
      "subject": {
        "reference": "Patient/5339dd62-76a1-43b3-9965-d8b61478236a"
      },
      "effectivePeriod": {
        "start": "2026-01-14T08:00:00.000+00:00"
      },
      "valueInteger": 15
    }
  }, {
    "fullUrl": "https://madie.cms.gov/Observation/243fddb2-3e7c-4bee-b7f6-24719695b359",
    "resource": {
      "resourceType": "Observation",
      "id": "243fddb2-3e7c-4bee-b7f6-24719695b359",
      "meta": {
        "profile": [ "http://hl7.org/fhir/us/qicore/StructureDefinition/qicore-observation-screening-assessment" ]
      },
      "status": "final",
      "category": [ {
        "coding": [ {
          "system": "http://terminology.hl7.org/CodeSystem/observation-category",
          "code": "survey",
          "display": "Survey"
        } ]
      } ],
      "code": {
        "coding": [ {
          "system": "http://loinc.org",
          "version": "2.76",
          "code": "80976-4"
        } ]
      },
      "subject": {
        "reference": "Patient/5339dd62-76a1-43b3-9965-d8b61478236a"
      },
      "effectivePeriod": {
        "start": "2026-09-12T08:00:00.000+00:00"
      },
      "valueInteger": 5
    }
  }, {
    "fullUrl": "https://madie.cms.gov/Condition/e448fbb2-19f0-4789-89c9-bc33bfa64214",
    "resource": {
      "resourceType": "Condition",
      "id": "e448fbb2-19f0-4789-89c9-bc33bfa64214",
      "meta": {
        "profile": [ "http://hl7.org/fhir/us/qicore/StructureDefinition/qicore-condition-problems-health-concerns" ]
      },
      "clinicalStatus": {
        "coding": [ {
          "system": "http://terminology.hl7.org/CodeSystem/condition-clinical",
          "code": "active",
          "display": "active"
        } ]
      },
      "verificationStatus": {
        "coding": [ {
          "system": "http://terminology.hl7.org/CodeSystem/condition-ver-status",
          "code": "confirmed",
          "display": "Confirmed"
        } ]
      },
      "category": [ {
        "coding": [ {
          "system": "http://terminology.hl7.org/CodeSystem/condition-category",
          "code": "problem-list-item",
          "display": "Problem List Item"
        } ]
      } ],
      "code": {
        "coding": [ {
          "system": "http://hl7.org/fhir/sid/icd-10-cm",
          "version": "2024",
          "code": "N40.1"
        } ]
      },
      "subject": {
        "reference": "Patient/5339dd62-76a1-43b3-9965-d8b61478236a"
      },
      "onsetPeriod": {
        "start": "2025-12-30T08:00:00.000+00:00"
      }
    }
  }, {
    "fullUrl": "https://madie.cms.gov/Encounter/3ba1dedc-dd19-4855-a91e-d0c114fa9548",
    "resource": {
      "resourceType": "Encounter",
      "id": "3ba1dedc-dd19-4855-a91e-d0c114fa9548",
      "meta": {
        "profile": [ "http://hl7.org/fhir/us/qicore/StructureDefinition/qicore-encounter" ]
      },
      "status": "finished",
      "class": {
        "system": "http://terminology.hl7.org/CodeSystem/v3-ActCode",
        "code": "AMB",
        "display": "ambulatory"
      },
      "type": [ {
        "coding": [ {
          "system": "http://www.ama-assn.org/go/cpt",
          "version": "2024",
          "code": "99204"
        } ]
      } ],
      "subject": {
        "reference": "Patient/5339dd62-76a1-43b3-9965-d8b61478236a"
      },
      "period": {
        "start": "2026-01-12T08:00:00.000+00:00",
        "end": "2026-01-12T09:15:00.000+00:00"
      }
    }
  }, {
    "fullUrl": "https://madie.cms.gov/Observation/d9ce2b58-4e2c-4d8d-9fc6-2851e3113bce",
    "resource": {
      "resourceType": "Observation",
      "id": "d9ce2b58-4e2c-4d8d-9fc6-2851e3113bce",
      "meta": {
        "profile": [ "http://hl7.org/fhir/us/core/StructureDefinition/us-core-bmi" ]
      },
      "status": "final",
      "category": [ {
        "coding": [ {
          "system": "http://terminology.hl7.org/CodeSystem/observation-category",
          "code": "vital-signs",
          "display": "Vital Signs"
        } ]
      }, {
        "coding": [ {
          "system": "http://terminology.hl7.org/CodeSystem/observation-category",
          "code": "survey"
        } ]
      } ],
      "code": {
        "coding": [ {
          "system": "http://loinc.org",
          "version": "2.76",
          "code": "39156-5"
        } ]
      },
      "subject": {
        "reference": "Patient/5339dd62-76a1-43b3-9965-d8b61478236a"
      },
      "effectiveDateTime": "2026-01-14T08:00:00.000+00:00",
      "valueQuantity": {
        "value": 44,
        "unit": "kg/m2",
        "system": "http://unitsofmeasure.org",
        "code": "kg/m2"
      }
    }
  }, {
    "fullUrl": "https://madie.cms.gov/MeasureReport/a7e94d8d-acc5-46cf-93ab-cd786c379a14",
    "resource": {
      "resourceType": "MeasureReport",
      "id": "a7e94d8d-acc5-46cf-93ab-cd786c379a14",
      "meta": {
        "profile": [ "http://hl7.org/fhir/us/cqfmeasures/StructureDefinition/test-case-cqfm" ]
      },
      "contained": [ {
        "resourceType": "Parameters",
        "id": "90f793b0-5cc9-4d0f-9594-6d71d9d58d66-parameters",
        "parameter": [ {
          "name": "subject",
          "valueString": "5339dd62-76a1-43b3-9965-d8b61478236a"
        } ]
      } ],
      "extension": [ {
        "url": "http://hl7.org/fhir/StructureDefinition/cqf-inputParameters",
        "valueReference": {
          "reference": "#90f793b0-5cc9-4d0f-9594-6d71d9d58d66-parameters"
        }
      }, {
        "url": "http://hl7.org/fhir/us/cqfmeasures/StructureDefinition/cqfm-testCaseDescription",
        "valueMarkdown": "Male Patient with OV, BPH Diagnosis, initial and followup USS assessment meeting denominator criteria which falls into denominator exclusion population with BMI of 44 on day of initial assessment"
      } ],
      "modifierExtension": [ {
        "url": "http://hl7.org/fhir/us/cqfmeasures/StructureDefinition/cqfm-isTestCase",
        "valueBoolean": true
      } ],
      "status": "complete",
      "type": "individual",
      "measure": "https://madie.cms.gov/Measure/CMS771FHIRUrinarySymptomScoreBPH",
      "period": {
        "start": "2026-01-01",
        "end": "2026-12-31"
      },
      "group": [ {
        "id": "Group_1",
        "population": [ {
          "id": "InitialPopulation_1",
          "code": {
            "coding": [ {
              "system": "http://terminology.hl7.org/CodeSystem/measure-population",
              "code": "initial-population",
              "display": "Initial Population"
            } ]
          },
          "count": 1
        }, {
          "id": "Denominator_1",
          "code": {
            "coding": [ {
              "system": "http://terminology.hl7.org/CodeSystem/measure-population",
              "code": "denominator",
              "display": "Denominator"
            } ]
          },
          "count": 1
        }, {
          "id": "DenominatorExclusion_1",
          "code": {
            "coding": [ {
              "system": "http://terminology.hl7.org/CodeSystem/measure-population",
              "code": "denominator-exclusion",
              "display": "Denominator Exclusion"
            } ]
          },
          "count": 1
        }, {
          "id": "Numerator_1",
          "code": {
            "coding": [ {
              "system": "http://terminology.hl7.org/CodeSystem/measure-population",
              "code": "numerator",
              "display": "Numerator"
            } ]
          },
          "count": 0
        } ],
        "measureScore": {
          "value": 1.0
        }
      } ],
      "evaluatedResource": [ {
        "reference": "Patient/5339dd62-76a1-43b3-9965-d8b61478236a"
      }, {
        "reference": "Observation/790a6e58-ce2c-4aba-b5d2-a9300305f0de"
      }, {
        "reference": "Observation/243fddb2-3e7c-4bee-b7f6-24719695b359"
      }, {
        "reference": "Condition/e448fbb2-19f0-4789-89c9-bc33bfa64214"
      }, {
        "reference": "Encounter/3ba1dedc-dd19-4855-a91e-d0c114fa9548"
      }, {
        "reference": "Observation/d9ce2b58-4e2c-4d8d-9fc6-2851e3113bce"
      } ]
    }
  } ]
}