{
  "resourceType": "Bundle",
  "id": "654634131341",
  "type": "collection",
  "entry": [ {
    "fullUrl": "https://madie.cms.gov/Patient/c58e088d-0b16-4e3d-aaad-3577cdec75d3",
    "resource": {
      "resourceType": "Patient",
      "id": "c58e088d-0b16-4e3d-aaad-3577cdec75d3",
      "meta": {
        "profile": [ "http://hl7.org/fhir/us/qicore/StructureDefinition/qicore-patient" ]
      },
      "extension": [ {
        "url": "http://hl7.org/fhir/us/core/StructureDefinition/us-core-race",
        "extension": [ {
          "url": "ombCategory",
          "valueCoding": {
            "system": "urn:oid:2.16.840.1.113883.6.238",
            "code": "1002-5",
            "display": "American Indian or Alaska Native"
          }
        }, {
          "url": "text",
          "valueString": "American Indian or Alaska Native"
        } ]
      }, {
        "url": "http://hl7.org/fhir/us/core/StructureDefinition/us-core-ethnicity",
        "extension": [ {
          "url": "ombCategory",
          "valueCoding": {
            "system": "urn:oid:2.16.840.1.113883.6.238",
            "code": "2135-2",
            "display": "Hispanic or Latino"
          }
        }, {
          "url": "text",
          "valueString": "Hispanic or Latino"
        } ]
      } ],
      "identifier": [ {
        "type": {
          "coding": [ {
            "system": "http://terminology.hl7.org/CodeSystem/v2-0203",
            "code": "MR"
          } ]
        },
        "system": "https://bonnie-fhir.healthit.gov/",
        "value": "645646313131"
      } ],
      "name": [ {
        "family": "DENEXFail",
        "given": [ "LVADCndtnAfterEnctr" ]
      } ],
      "gender": "female",
      "birthDate": "1983-07-27"
    }
  }, {
    "fullUrl": "https://madie.cms.gov/Encounter/7fdd5e30-483d-45db-8794-0e7c025d124b",
    "resource": {
      "resourceType": "Encounter",
      "id": "7fdd5e30-483d-45db-8794-0e7c025d124b",
      "meta": {
        "profile": [ "http://hl7.org/fhir/us/qicore/StructureDefinition/qicore-encounter" ]
      },
      "status": "finished",
      "class": {
        "system": "http://terminology.hl7.org/CodeSystem/v3-ActCode",
        "code": "AMB",
        "display": "ambulatory"
      },
      "type": [ {
        "coding": [ {
          "system": "http://snomed.info/sct",
          "version": "http://snomed.info/sct/731000124108/version/20240301",
          "code": "185463005",
          "display": "Visit out of hours (procedure)"
        } ]
      } ],
      "subject": {
        "reference": "Patient/c58e088d-0b16-4e3d-aaad-3577cdec75d3"
      },
      "period": {
        "start": "2026-02-27T08:00:00Z",
        "end": "2026-02-27T08:15:00Z"
      }
    }
  }, {
    "fullUrl": "https://madie.cms.gov/Encounter/91d5a7c5-cc7f-4525-b291-c7276fa8ba5a",
    "resource": {
      "resourceType": "Encounter",
      "id": "91d5a7c5-cc7f-4525-b291-c7276fa8ba5a",
      "meta": {
        "profile": [ "http://hl7.org/fhir/us/qicore/StructureDefinition/qicore-encounter" ]
      },
      "status": "finished",
      "class": {
        "system": "http://terminology.hl7.org/CodeSystem/v3-ActCode",
        "code": "AMB",
        "display": "ambulatory"
      },
      "type": [ {
        "coding": [ {
          "system": "http://snomed.info/sct",
          "version": "http://snomed.info/sct/731000124108/version/20240301",
          "code": "185463005",
          "display": "Visit out of hours (procedure)"
        } ]
      } ],
      "subject": {
        "reference": "Patient/c58e088d-0b16-4e3d-aaad-3577cdec75d3"
      },
      "period": {
        "start": "2026-06-12T08:00:00Z",
        "end": "2026-06-12T08:15:00Z"
      }
    }
  }, {
    "fullUrl": "https://madie.cms.gov/Condition/c8f4b0e1-3fd0-490d-9ce5-812131d194fd",
    "resource": {
      "resourceType": "Condition",
      "id": "c8f4b0e1-3fd0-490d-9ce5-812131d194fd",
      "meta": {
        "profile": [ "http://hl7.org/fhir/us/qicore/StructureDefinition/qicore-condition-problems-health-concerns" ]
      },
      "clinicalStatus": {
        "coding": [ {
          "system": "http://terminology.hl7.org/CodeSystem/condition-clinical",
          "code": "active",
          "display": "Active"
        } ]
      },
      "verificationStatus": {
        "coding": [ {
          "system": "http://terminology.hl7.org/CodeSystem/condition-ver-status",
          "code": "confirmed",
          "display": "Confirmed"
        } ]
      },
      "category": [ {
        "coding": [ {
          "system": "http://terminology.hl7.org/CodeSystem/condition-category",
          "code": "problem-list-item",
          "display": "problem list item"
        } ]
      } ],
      "severity": {
        "coding": [ {
          "system": "http://snomed.info/sct",
          "version": "http://snomed.info/sct/731000124108/version/20240301",
          "code": "24484000",
          "display": "Severe (severity modifier) (qualifier value)"
        } ]
      },
      "code": {
        "coding": [ {
          "system": "http://snomed.info/sct",
          "version": "http://snomed.info/sct/731000124108/version/20250301",
          "code": "134401001",
          "display": "Left ventricular systolic dysfunction (disorder)"
        } ]
      },
      "subject": {
        "reference": "Patient/c58e088d-0b16-4e3d-aaad-3577cdec75d3"
      },
      "onsetPeriod": {
        "start": "2026-02-18T08:00:00Z",
        "end": "2026-02-18T08:15:00Z"
      }
    }
  }, {
    "fullUrl": "https://madie.cms.gov/Condition/d2910aaf-72cb-487b-abf8-9914b35bb66b",
    "resource": {
      "resourceType": "Condition",
      "id": "d2910aaf-72cb-487b-abf8-9914b35bb66b",
      "meta": {
        "profile": [ "http://hl7.org/fhir/us/qicore/StructureDefinition/qicore-condition-problems-health-concerns" ]
      },
      "clinicalStatus": {
        "coding": [ {
          "system": "http://terminology.hl7.org/CodeSystem/condition-clinical",
          "code": "active",
          "display": "Active"
        } ]
      },
      "verificationStatus": {
        "coding": [ {
          "system": "http://terminology.hl7.org/CodeSystem/condition-ver-status",
          "code": "confirmed",
          "display": "Confirmed"
        } ]
      },
      "category": [ {
        "coding": [ {
          "system": "http://terminology.hl7.org/CodeSystem/condition-category",
          "code": "problem-list-item",
          "display": "problem list item"
        } ]
      } ],
      "code": {
        "coding": [ {
          "system": "http://snomed.info/sct",
          "version": "http://snomed.info/sct/731000124108/version/20250301",
          "code": "10091002",
          "display": "High output heart failure (disorder)"
        } ]
      },
      "subject": {
        "reference": "Patient/c58e088d-0b16-4e3d-aaad-3577cdec75d3"
      },
      "onsetPeriod": {
        "start": "2026-02-22T08:00:00Z"
      }
    }
  }, {
    "fullUrl": "https://madie.cms.gov/Procedure/237a6c29-5188-4548-b073-a565ef50501d",
    "resource": {
      "resourceType": "Procedure",
      "id": "237a6c29-5188-4548-b073-a565ef50501d",
      "meta": {
        "profile": [ "http://hl7.org/fhir/us/qicore/StructureDefinition/qicore-procedure" ]
      },
      "extension": [ {
        "url": "http://hl7.org/fhir/us/qicore/StructureDefinition/qicore-recorded",
        "valueDateTime": "2026-01-31T08:00:00Z"
      } ],
      "status": "completed",
      "code": {
        "coding": [ {
          "system": "http://snomed.info/sct",
          "version": "http://snomed.info/sct/731000124108/version/20240301",
          "code": "232967006",
          "display": "LVAD - Implantation of left ventricular assist device"
        } ]
      },
      "subject": {
        "reference": "Patient/c58e088d-0b16-4e3d-aaad-3577cdec75d3"
      },
      "performedPeriod": {
        "start": "2026-09-30T08:00:00Z"
      }
    }
  }, {
    "fullUrl": "https://madie.cms.gov/MeasureReport/c4facb39-df83-41eb-aeb5-5f52c9d03e91",
    "resource": {
      "resourceType": "MeasureReport",
      "id": "c4facb39-df83-41eb-aeb5-5f52c9d03e91",
      "meta": {
        "profile": [ "http://hl7.org/fhir/us/cqfmeasures/StructureDefinition/test-case-cqfm" ]
      },
      "contained": [ {
        "resourceType": "Parameters",
        "id": "bfa8e64e-f037-4a68-a07e-2e99e6842e4c-parameters",
        "parameter": [ {
          "name": "subject",
          "valueString": "c58e088d-0b16-4e3d-aaad-3577cdec75d3"
        } ]
      } ],
      "extension": [ {
        "url": "http://hl7.org/fhir/StructureDefinition/cqf-inputParameters",
        "valueReference": {
          "reference": "#bfa8e64e-f037-4a68-a07e-2e99e6842e4c-parameters"
        }
      }, {
        "url": "http://hl7.org/fhir/us/cqfmeasures/StructureDefinition/cqfm-testCaseDescription",
        "valueMarkdown": "Patient with LVAD related condition after encounter. Patient included due to documentation of LVAD after encounter."
      } ],
      "modifierExtension": [ {
        "url": "http://hl7.org/fhir/us/cqfmeasures/StructureDefinition/cqfm-isTestCase",
        "valueBoolean": true
      } ],
      "status": "complete",
      "type": "individual",
      "measure": "https://madie.cms.gov/Measure/CMS144FHIRHFBetaBlockerForLVSD",
      "period": {
        "start": "2026-01-01",
        "end": "2026-12-31"
      },
      "group": [ {
        "id": "Group_1",
        "population": [ {
          "id": "InitialPopulation_1",
          "code": {
            "coding": [ {
              "system": "http://terminology.hl7.org/CodeSystem/measure-population",
              "code": "initial-population",
              "display": "Initial Population"
            } ]
          },
          "count": 1
        }, {
          "id": "Denominator_1",
          "code": {
            "coding": [ {
              "system": "http://terminology.hl7.org/CodeSystem/measure-population",
              "code": "denominator",
              "display": "Denominator"
            } ]
          },
          "count": 1
        }, {
          "id": "DenominatorExclusion_1",
          "code": {
            "coding": [ {
              "system": "http://terminology.hl7.org/CodeSystem/measure-population",
              "code": "denominator-exclusion",
              "display": "Denominator Exclusion"
            } ]
          },
          "count": 0
        }, {
          "id": "Numerator_1",
          "code": {
            "coding": [ {
              "system": "http://terminology.hl7.org/CodeSystem/measure-population",
              "code": "numerator",
              "display": "Numerator"
            } ]
          },
          "count": 0
        }, {
          "id": "DenominatorException_1",
          "code": {
            "coding": [ {
              "system": "http://terminology.hl7.org/CodeSystem/measure-population",
              "code": "denominator-exception",
              "display": "Denominator Exception"
            } ]
          },
          "count": 0
        } ],
        "measureScore": {
          "value": 1.0
        }
      } ],
      "evaluatedResource": [ {
        "reference": "Patient/c58e088d-0b16-4e3d-aaad-3577cdec75d3"
      }, {
        "reference": "Encounter/7fdd5e30-483d-45db-8794-0e7c025d124b"
      }, {
        "reference": "Encounter/91d5a7c5-cc7f-4525-b291-c7276fa8ba5a"
      }, {
        "reference": "Condition/c8f4b0e1-3fd0-490d-9ce5-812131d194fd"
      }, {
        "reference": "Condition/d2910aaf-72cb-487b-abf8-9914b35bb66b"
      }, {
        "reference": "Procedure/237a6c29-5188-4548-b073-a565ef50501d"
      } ]
    }
  } ]
}