{
  "resourceType": "Bundle",
  "id": "60f82c3098086b570510e2cf",
  "type": "transaction",
  "entry": [ {
    "fullUrl": "https://madie.cms.gov/Patient/5450abfd-a667-4eb9-9b59-e85feed4865c",
    "resource": {
      "resourceType": "Patient",
      "id": "5450abfd-a667-4eb9-9b59-e85feed4865c",
      "meta": {
        "profile": [ "http://hl7.org/fhir/us/qicore/StructureDefinition/qicore-patient" ]
      },
      "text": {
        "status": "generated",
        "div": "<div xmlns=\"http://www.w3.org/1999/xhtml\"><div class=\"hapiHeaderText\">ProcTPA&lt;24hrB4_ED_Test_Interval <b>DENEXPASS </b></div><table class=\"hapiPropertyTable\"><tbody><tr><td>Date of birth</td><td><span>05 April 1979</span></td></tr></tbody></table></div>"
      },
      "extension": [ {
        "url": "http://hl7.org/fhir/us/core/StructureDefinition/us-core-race",
        "extension": [ {
          "url": "ombCategory",
          "valueCoding": {
            "system": "urn:oid:2.16.840.1.113883.6.238",
            "code": "2106-3",
            "display": "White",
            "userSelected": true
          }
        }, {
          "url": "text",
          "valueString": "White"
        } ]
      }, {
        "url": "http://hl7.org/fhir/us/core/StructureDefinition/us-core-ethnicity",
        "extension": [ {
          "url": "ombCategory",
          "valueCoding": {
            "system": "urn:oid:2.16.840.1.113883.6.238",
            "code": "2186-5",
            "display": "Not Hispanic or Latino",
            "userSelected": true
          }
        }, {
          "url": "text",
          "valueString": "Not Hispanic or Latino"
        } ]
      } ],
      "identifier": [ {
        "type": {
          "coding": [ {
            "system": "http://terminology.hl7.org/CodeSystem/v2-0203",
            "code": "MR"
          } ]
        },
        "system": "https://bonnie-fhir.healthit.gov/",
        "value": "60f82c3098086b570510e2cf"
      } ],
      "active": true,
      "name": [ {
        "use": "usual",
        "family": "DENEXPass",
        "given": [ "ProcTPALT24hrB4ED" ]
      } ],
      "gender": "male",
      "birthDate": "1980-04-05"
    },
    "request": {
      "method": "PUT",
      "url": "Patient/5450abfd-a667-4eb9-9b59-e85feed4865c"
    }
  }, {
    "fullUrl": "https://madie.cms.gov/Encounter/a60be3a3-6033-48b6-b65d-6e88632a2819",
    "resource": {
      "resourceType": "Encounter",
      "id": "a60be3a3-6033-48b6-b65d-6e88632a2819",
      "meta": {
        "profile": [ "http://hl7.org/fhir/us/qicore/StructureDefinition/qicore-encounter" ]
      },
      "status": "finished",
      "class": {
        "system": "http://terminology.hl7.org/CodeSystem/v3-ActCode",
        "code": "IMP",
        "display": "inpatient encounter"
      },
      "type": [ {
        "coding": [ {
          "system": "http://snomed.info/sct",
          "code": "183452005"
        } ]
      } ],
      "subject": {
        "reference": "Patient/5450abfd-a667-4eb9-9b59-e85feed4865c"
      },
      "period": {
        "start": "2026-03-23T08:00:00.000+00:00",
        "end": "2026-03-30T07:15:00.000+00:00"
      },
      "reasonReference": [ {
        "reference": "Condition/62bc992b-c1fc-43c2-9e1d-6382562d07dc"
      } ]
    },
    "request": {
      "method": "PUT",
      "url": "Encounter/a60be3a3-6033-48b6-b65d-6e88632a2819"
    }
  }, {
    "fullUrl": "https://madie.cms.gov/Encounter/f1e3484a-e656-4e7a-a3c1-5b2f054d2be8",
    "resource": {
      "resourceType": "Encounter",
      "id": "f1e3484a-e656-4e7a-a3c1-5b2f054d2be8",
      "meta": {
        "profile": [ "http://hl7.org/fhir/us/qicore/StructureDefinition/qicore-encounter" ]
      },
      "status": "finished",
      "class": {
        "system": "http://terminology.hl7.org/CodeSystem/v3-ActCode",
        "code": "EMER",
        "display": "emergency"
      },
      "type": [ {
        "coding": [ {
          "system": "http://snomed.info/sct",
          "code": "4525004"
        } ]
      } ],
      "subject": {
        "reference": "Patient/5450abfd-a667-4eb9-9b59-e85feed4865c"
      },
      "period": {
        "start": "2026-03-22T06:00:00.000+00:00",
        "end": "2026-03-23T07:15:00.000+00:00"
      }
    },
    "request": {
      "method": "PUT",
      "url": "Encounter/f1e3484a-e656-4e7a-a3c1-5b2f054d2be8"
    }
  }, {
    "fullUrl": "https://madie.cms.gov/MedicationAdministration/32097915-0f36-4f7d-aff5-4950539bb285",
    "resource": {
      "resourceType": "MedicationAdministration",
      "id": "32097915-0f36-4f7d-aff5-4950539bb285",
      "meta": {
        "profile": [ "http://hl7.org/fhir/us/qicore/StructureDefinition/qicore-medicationadministration" ]
      },
      "status": "completed",
      "medicationCodeableConcept": {
        "coding": [ {
          "system": "http://www.nlm.nih.gov/research/umls/rxnorm",
          "code": "1804799"
        } ]
      },
      "subject": {
        "reference": "Patient/5450abfd-a667-4eb9-9b59-e85feed4865c"
      },
      "effectivePeriod": {
        "start": "2026-03-21T06:00:00.000+00:00",
        "end": "2026-03-22T06:15:00.000+00:00"
      }
    },
    "request": {
      "method": "PUT",
      "url": "MedicationAdministration/32097915-0f36-4f7d-aff5-4950539bb285"
    }
  }, {
    "fullUrl": "https://madie.cms.gov/MedicationRequest/b44cbc8e-3d01-4b69-ac74-860eae155433",
    "resource": {
      "resourceType": "MedicationRequest",
      "id": "b44cbc8e-3d01-4b69-ac74-860eae155433",
      "meta": {
        "profile": [ "http://hl7.org/fhir/us/qicore/StructureDefinition/qicore-medicationrequest" ]
      },
      "status": "completed",
      "intent": "order",
      "medicationCodeableConcept": {
        "coding": [ {
          "system": "http://www.nlm.nih.gov/research/umls/rxnorm",
          "code": "1037045"
        } ]
      },
      "subject": {
        "reference": "Patient/5450abfd-a667-4eb9-9b59-e85feed4865c"
      },
      "authoredOn": "2026-03-23T08:00:00.000+00:00",
      "requester": {
        "reference": "Practitioner/example"
      },
      "dosageInstruction": [ {
        "timing": {
          "repeat": {
            "boundsPeriod": {
              "start": "2026-03-23T08:00:00.000+00:00",
              "end": "2026-03-24T07:15:00.000+00:00"
            }
          }
        }
      } ]
    },
    "request": {
      "method": "PUT",
      "url": "MedicationRequest/b44cbc8e-3d01-4b69-ac74-860eae155433"
    }
  }, {
    "fullUrl": "https://madie.cms.gov/Condition/62bc992b-c1fc-43c2-9e1d-6382562d07dc",
    "resource": {
      "resourceType": "Condition",
      "id": "62bc992b-c1fc-43c2-9e1d-6382562d07dc",
      "meta": {
        "profile": [ "http://hl7.org/fhir/us/qicore/StructureDefinition/qicore-condition-problems-health-concerns" ]
      },
      "clinicalStatus": {
        "coding": [ {
          "system": "http://terminology.hl7.org/CodeSystem/condition-clinical",
          "code": "active"
        } ]
      },
      "verificationStatus": {
        "coding": [ {
          "system": "http://terminology.hl7.org/CodeSystem/condition-ver-status",
          "code": "confirmed"
        } ]
      },
      "category": [ {
        "coding": [ {
          "system": "http://terminology.hl7.org/CodeSystem/condition-category",
          "code": "encounter-diagnosis",
          "display": "Encounter Diagnosis"
        } ]
      } ],
      "code": {
        "coding": [ {
          "system": "http://snomed.info/sct",
          "version": "2020-09",
          "code": "111297002",
          "display": "Nonparalytic stroke (disorder)",
          "userSelected": true
        } ]
      },
      "subject": {
        "reference": "Patient/5450abfd-a667-4eb9-9b59-e85feed4865c"
      },
      "encounter": {
        "reference": "Encounter/5ca6295db8484628b8de1d45"
      },
      "recordedDate": "2026-08-13T08:00:00.000+00:00"
    },
    "request": {
      "method": "PUT",
      "url": "Condition/62bc992b-c1fc-43c2-9e1d-6382562d07dc"
    }
  }, {
    "fullUrl": "https://madie.cms.gov/claim/5ca62962b8484628b8de1ec5",
    "resource": {
      "resourceType": "Claim",
      "id": "5ca62962b8484628b8de1ec5",
      "meta": {
        "profile": [ "http://hl7.org/fhir/us/qicore/StructureDefinition/qicore-claim" ]
      },
      "status": "active",
      "type": {
        "coding": [ {
          "system": "http://terminology.hl7.org/CodeSystem/claim-type",
          "code": "institutional"
        } ]
      },
      "use": "claim",
      "patient": {
        "reference": "Patient/5450abfd-a667-4eb9-9b59-e85feed4865c"
      },
      "created": "2026-12-01",
      "provider": {
        "reference": "Practitioner/practitioner-123456"
      },
      "priority": {
        "coding": [ {
          "system": "http://terminology.hl7.org/CodeSystem/processpriority",
          "code": "normal"
        } ]
      },
      "diagnosis": [ {
        "sequence": 1,
        "diagnosisCodeableConcept": {
          "coding": [ {
            "system": "http://hl7.org/fhir/sid/icd-10-cm",
            "code": "I63.00"
          } ]
        },
        "type": [ {
          "coding": [ {
            "system": "http://terminology.hl7.org/CodeSystem/ex-diagnosistype",
            "code": "principal"
          } ]
        } ]
      } ],
      "insurance": [ {
        "sequence": 1,
        "focal": true,
        "coverage": {
          "reference": "Coverage/5fa041661c76ba66d9959367"
        }
      } ],
      "item": [ {
        "sequence": 1,
        "diagnosisSequence": [ 1 ],
        "productOrService": {
          "coding": [ {
            "system": "http://terminology.hl7.org/CodeSystem/ex-USCLS",
            "code": "99555"
          } ]
        },
        "encounter": [ {
          "reference": "Encounter/a60be3a3-6033-48b6-b65d-6e88632a2819"
        } ]
      } ]
    },
    "request": {
      "method": "PUT",
      "url": "Claim/5ca62962b8484628b8de1ec5"
    }
  }, {
    "fullUrl": "https://madie.cms.gov/Coverage/9d27d95a-34b4-49f2-9135-ae4376bace6b",
    "resource": {
      "resourceType": "Coverage",
      "id": "9d27d95a-34b4-49f2-9135-ae4376bace6b",
      "meta": {
        "profile": [ "http://hl7.org/fhir/us/qicore/StructureDefinition/qicore-coverage" ]
      },
      "status": "active",
      "beneficiary": {
        "reference": "Patient/5450abfd-a667-4eb9-9b59-e85feed4865c"
      },
      "payor": [ {
        "reference": "Organization/903133ca-7b9d-470d-8c16-f5d3ceeaef33"
      } ]
    },
    "request": {
      "method": "PUT",
      "url": "Coverage/9d27d95a-34b4-49f2-9135-ae4376bace6b"
    }
  }, {
    "fullUrl": "https://madie.cms.gov/Organization/903133ca-7b9d-470d-8c16-f5d3ceeaef33",
    "resource": {
      "resourceType": "Organization",
      "id": "903133ca-7b9d-470d-8c16-f5d3ceeaef33",
      "meta": {
        "profile": [ "http://hl7.org/fhir/us/qicore/StructureDefinition/qicore-organization" ]
      },
      "identifier": [ {
        "use": "temp",
        "system": "urn:oid:2.16.840.1.113883.4.4",
        "value": "21-3259825"
      } ],
      "active": true,
      "type": [ {
        "coding": [ {
          "system": "http://terminology.hl7.org/CodeSystem/organization-type",
          "code": "pay",
          "display": "Payer"
        } ]
      } ],
      "name": "Blue Cross Blue Shield of Texas",
      "telecom": [ {
        "system": "phone",
        "value": "(+1) 972-766-6900"
      } ],
      "address": [ {
        "use": "billing",
        "type": "postal",
        "line": [ "P.O. Box 660044" ],
        "city": "Dallas",
        "state": "TX",
        "postalCode": "75266-0044",
        "country": "USA"
      } ]
    },
    "request": {
      "method": "PUT",
      "url": "Organization/903133ca-7b9d-470d-8c16-f5d3ceeaef33"
    }
  }, {
    "fullUrl": "https://madie.cms.gov/MeasureReport/45462bae-1d4e-4e26-a897-7ba712354143",
    "resource": {
      "resourceType": "MeasureReport",
      "id": "45462bae-1d4e-4e26-a897-7ba712354143",
      "meta": {
        "profile": [ "http://hl7.org/fhir/us/cqfmeasures/StructureDefinition/test-case-cqfm" ]
      },
      "contained": [ {
        "resourceType": "Parameters",
        "id": "1b48d5e9-8757-477c-b495-6b29b795e109-parameters",
        "parameter": [ {
          "name": "subject",
          "valueString": "5450abfd-a667-4eb9-9b59-e85feed4865c"
        } ]
      } ],
      "extension": [ {
        "url": "http://hl7.org/fhir/StructureDefinition/cqf-inputParameters",
        "valueReference": {
          "reference": "#1b48d5e9-8757-477c-b495-6b29b795e109-parameters"
        }
      }, {
        "url": "http://hl7.org/fhir/us/cqfmeasures/StructureDefinition/cqfm-testCaseDescription",
        "valueMarkdown": "Patient has ED visit <=1hour before IP encounter AND receives IV or IA TPA 59 min before ED visit  (ProcTPA  <    24hr   before ED)\n"
      } ],
      "modifierExtension": [ {
        "url": "http://hl7.org/fhir/us/cqfmeasures/StructureDefinition/cqfm-isTestCase",
        "valueBoolean": true
      } ],
      "status": "complete",
      "type": "individual",
      "measure": "https://madie.cms.gov/Measure/CMS72FHIRSTKAntithromboticDay2",
      "period": {
        "start": "2026-01-01",
        "end": "2026-12-31"
      },
      "group": [ {
        "id": "Group_1",
        "population": [ {
          "id": "InitialPopulation_1",
          "code": {
            "coding": [ {
              "system": "http://terminology.hl7.org/CodeSystem/measure-population",
              "code": "initial-population",
              "display": "Initial Population"
            } ]
          },
          "count": 1
        }, {
          "id": "Denominator_1",
          "code": {
            "coding": [ {
              "system": "http://terminology.hl7.org/CodeSystem/measure-population",
              "code": "denominator",
              "display": "Denominator"
            } ]
          },
          "count": 1
        }, {
          "id": "DenominatorExclusion_1",
          "code": {
            "coding": [ {
              "system": "http://terminology.hl7.org/CodeSystem/measure-population",
              "code": "denominator-exclusion",
              "display": "Denominator Exclusion"
            } ]
          },
          "count": 1
        }, {
          "id": "Numerator_1",
          "code": {
            "coding": [ {
              "system": "http://terminology.hl7.org/CodeSystem/measure-population",
              "code": "numerator",
              "display": "Numerator"
            } ]
          },
          "count": 0
        }, {
          "id": "DenominatorException_1",
          "code": {
            "coding": [ {
              "system": "http://terminology.hl7.org/CodeSystem/measure-population",
              "code": "denominator-exception",
              "display": "Denominator Exception"
            } ]
          },
          "count": 0
        } ],
        "measureScore": {
          "value": 0.0
        }
      } ],
      "evaluatedResource": [ {
        "reference": "Patient/5450abfd-a667-4eb9-9b59-e85feed4865c"
      }, {
        "reference": "Encounter/a60be3a3-6033-48b6-b65d-6e88632a2819"
      }, {
        "reference": "Encounter/f1e3484a-e656-4e7a-a3c1-5b2f054d2be8"
      }, {
        "reference": "MedicationAdministration/32097915-0f36-4f7d-aff5-4950539bb285"
      }, {
        "reference": "MedicationRequest/b44cbc8e-3d01-4b69-ac74-860eae155433"
      }, {
        "reference": "Condition/62bc992b-c1fc-43c2-9e1d-6382562d07dc"
      }, {
        "reference": "Claim/5ca62962b8484628b8de1ec5"
      }, {
        "reference": "Coverage/9d27d95a-34b4-49f2-9135-ae4376bace6b"
      }, {
        "reference": "Organization/903133ca-7b9d-470d-8c16-f5d3ceeaef33"
      } ]
    },
    "request": {
      "method": "PUT",
      "url": "MeasureReport/45462bae-1d4e-4e26-a897-7ba712354143"
    }
  } ]
}