{
  "resourceType": "Bundle",
  "id": "DENEXFail-HospiceDiagnosisStartsAfterMP",
  "type": "transaction",
  "entry": [ {
    "fullUrl": "https://madie.cms.gov/Patient/e94daaa3-ffff-4ca5-b971-7fd4407c3580",
    "resource": {
      "resourceType": "Patient",
      "id": "e94daaa3-ffff-4ca5-b971-7fd4407c3580",
      "meta": {
        "profile": [ "http://hl7.org/fhir/us/qicore/StructureDefinition/qicore-patient" ]
      },
      "extension": [ {
        "url": "http://hl7.org/fhir/us/core/StructureDefinition/us-core-race",
        "extension": [ {
          "url": "ombCategory",
          "valueCoding": {
            "system": "urn:oid:2.16.840.1.113883.6.238",
            "code": "2028-9",
            "display": "Asian"
          }
        }, {
          "url": "text",
          "valueString": "Asian"
        } ]
      }, {
        "url": "http://hl7.org/fhir/us/core/StructureDefinition/us-core-ethnicity",
        "extension": [ {
          "url": "ombCategory",
          "valueCoding": {
            "system": "urn:oid:2.16.840.1.113883.6.238",
            "code": "2135-2",
            "display": "Hispanic or Latino"
          }
        }, {
          "url": "text",
          "valueString": "Hispanic or Latino"
        } ]
      } ],
      "identifier": [ {
        "system": "http://hospital.smarthealthit.org",
        "value": "999999995"
      } ],
      "name": [ {
        "family": "DENEXFail",
        "given": [ "HospiceDiagnosisStartsAfterMP" ]
      } ],
      "gender": "female",
      "birthDate": "2007-12-31"
    },
    "request": {
      "method": "PUT",
      "url": "Patient/e94daaa3-ffff-4ca5-b971-7fd4407c3580"
    }
  }, {
    "fullUrl": "https://madie.cms.gov/Encounter/fcfe75eb-fecc-40e1-a3de-de6894e51843",
    "resource": {
      "resourceType": "Encounter",
      "id": "fcfe75eb-fecc-40e1-a3de-de6894e51843",
      "meta": {
        "profile": [ "http://hl7.org/fhir/us/qicore/StructureDefinition/qicore-encounter" ]
      },
      "status": "finished",
      "class": {
        "system": "http://terminology.hl7.org/CodeSystem/v3-ActCode",
        "code": "AMB",
        "display": "ambulatory"
      },
      "type": [ {
        "coding": [ {
          "system": "http://snomed.info/sct",
          "code": "3391000175108",
          "display": "Office visit for pediatric care and assessment (procedure)"
        } ]
      } ],
      "subject": {
        "reference": "Patient/e94daaa3-ffff-4ca5-b971-7fd4407c3580"
      },
      "period": {
        "start": "2026-01-01T00:00:00.000+00:00",
        "end": "2026-01-01T01:00:00.000+00:00"
      }
    },
    "request": {
      "method": "PUT",
      "url": "Encounter/fcfe75eb-fecc-40e1-a3de-de6894e51843"
    }
  }, {
    "fullUrl": "https://madie.cms.gov/Condition/5a7c3bfd-f1e7-4aac-9b0f-f4192f464305",
    "resource": {
      "resourceType": "Condition",
      "id": "5a7c3bfd-f1e7-4aac-9b0f-f4192f464305",
      "meta": {
        "profile": [ "http://hl7.org/fhir/us/qicore/StructureDefinition/qicore-condition-problems-health-concerns" ]
      },
      "clinicalStatus": {
        "coding": [ {
          "system": "http://terminology.hl7.org/CodeSystem/condition-clinical",
          "code": "active"
        } ]
      },
      "category": [ {
        "coding": [ {
          "system": "http://terminology.hl7.org/CodeSystem/condition-category",
          "code": "problem-list-item",
          "display": "Problem List Item"
        } ]
      } ],
      "code": {
        "coding": [ {
          "system": "http://snomed.info/sct",
          "code": "371125006",
          "display": "Labile essential hypertension (disorder)"
        } ]
      },
      "subject": {
        "reference": "Patient/e94daaa3-ffff-4ca5-b971-7fd4407c3580"
      },
      "onsetDateTime": "2026-06-30T23:59:59.000+00:00"
    },
    "request": {
      "method": "PUT",
      "url": "Condition/5a7c3bfd-f1e7-4aac-9b0f-f4192f464305"
    }
  }, {
    "fullUrl": "https://madie.cms.gov/Condition/4cb24abc-74bd-4550-97af-590397723db6",
    "resource": {
      "resourceType": "Condition",
      "id": "4cb24abc-74bd-4550-97af-590397723db6",
      "meta": {
        "profile": [ "http://hl7.org/fhir/us/qicore/StructureDefinition/qicore-condition-problems-health-concerns" ]
      },
      "clinicalStatus": {
        "coding": [ {
          "system": "http://terminology.hl7.org/CodeSystem/condition-clinical",
          "code": "active"
        } ]
      },
      "category": [ {
        "coding": [ {
          "system": "http://terminology.hl7.org/CodeSystem/condition-category",
          "code": "problem-list-item",
          "display": "Problem List Item"
        } ]
      } ],
      "code": {
        "coding": [ {
          "system": "http://snomed.info/sct",
          "code": "170935008",
          "display": "Full care by hospice (finding)"
        } ]
      },
      "subject": {
        "reference": "Patient/e94daaa3-ffff-4ca5-b971-7fd4407c3580"
      },
      "onsetDateTime": "2027-01-01T00:00:00.000+00:00"
    },
    "request": {
      "method": "PUT",
      "url": "Condition/4cb24abc-74bd-4550-97af-590397723db6"
    }
  }, {
    "fullUrl": "https://madie.cms.gov/MeasureReport/eb1a3ad2-ed14-4225-88f4-523fe5edfa5e",
    "resource": {
      "resourceType": "MeasureReport",
      "id": "eb1a3ad2-ed14-4225-88f4-523fe5edfa5e",
      "meta": {
        "profile": [ "http://hl7.org/fhir/us/cqfmeasures/StructureDefinition/test-case-cqfm" ]
      },
      "contained": [ {
        "resourceType": "Parameters",
        "id": "99dcac96-292c-4ac7-9678-93a04c7ba3e6-parameters",
        "parameter": [ {
          "name": "subject",
          "valueString": "e94daaa3-ffff-4ca5-b971-7fd4407c3580"
        } ]
      } ],
      "extension": [ {
        "url": "http://hl7.org/fhir/StructureDefinition/cqf-inputParameters",
        "valueReference": {
          "reference": "#99dcac96-292c-4ac7-9678-93a04c7ba3e6-parameters"
        }
      }, {
        "url": "http://hl7.org/fhir/us/cqfmeasures/StructureDefinition/cqfm-testCaseDescription",
        "valueMarkdown": "Hospice diagnosis starts after MP"
      } ],
      "modifierExtension": [ {
        "url": "http://hl7.org/fhir/us/cqfmeasures/StructureDefinition/cqfm-isTestCase",
        "valueBoolean": true
      } ],
      "status": "complete",
      "type": "individual",
      "measure": "https://madie.cms.gov/Measure/CMS165FHIRControllingHighBP",
      "period": {
        "start": "2026-01-01",
        "end": "2026-12-31"
      },
      "group": [ {
        "id": "Group_1",
        "population": [ {
          "id": "InitialPopulation_1",
          "code": {
            "coding": [ {
              "system": "http://terminology.hl7.org/CodeSystem/measure-population",
              "code": "initial-population",
              "display": "Initial Population"
            } ]
          },
          "count": 1
        }, {
          "id": "Denominator_1",
          "code": {
            "coding": [ {
              "system": "http://terminology.hl7.org/CodeSystem/measure-population",
              "code": "denominator",
              "display": "Denominator"
            } ]
          },
          "count": 1
        }, {
          "id": "DenominatorExclusion_1",
          "code": {
            "coding": [ {
              "system": "http://terminology.hl7.org/CodeSystem/measure-population",
              "code": "denominator-exclusion",
              "display": "Denominator Exclusion"
            } ]
          },
          "count": 0
        }, {
          "id": "Numerator_1",
          "code": {
            "coding": [ {
              "system": "http://terminology.hl7.org/CodeSystem/measure-population",
              "code": "numerator",
              "display": "Numerator"
            } ]
          },
          "count": 0
        } ],
        "measureScore": {
          "value": 1.0
        }
      } ],
      "evaluatedResource": [ {
        "reference": "Patient/e94daaa3-ffff-4ca5-b971-7fd4407c3580"
      }, {
        "reference": "Encounter/fcfe75eb-fecc-40e1-a3de-de6894e51843"
      }, {
        "reference": "Condition/5a7c3bfd-f1e7-4aac-9b0f-f4192f464305"
      }, {
        "reference": "Condition/4cb24abc-74bd-4550-97af-590397723db6"
      } ]
    },
    "request": {
      "method": "PUT",
      "url": "MeasureReport/eb1a3ad2-ed14-4225-88f4-523fe5edfa5e"
    }
  } ]
}