{
  "resourceType": "Bundle",
  "id": "tests-DENOMPass-MedPeriodEndsAfterEnc-bundle",
  "type": "transaction",
  "entry": [ {
    "fullUrl": "https://madie.cms.gov/Encounter/ca9d2ff2-885a-485a-af2f-1b4d2bd25b2a",
    "resource": {
      "resourceType": "Encounter",
      "id": "ca9d2ff2-885a-485a-af2f-1b4d2bd25b2a",
      "meta": {
        "profile": [ "http://hl7.org/fhir/us/qicore/StructureDefinition/qicore-encounter" ]
      },
      "status": "finished",
      "class": {
        "system": "http://terminology.hl7.org/CodeSystem/v3-ActCode",
        "code": "IMP",
        "display": "inpatient encounter"
      },
      "type": [ {
        "coding": [ {
          "system": "http://snomed.info/sct",
          "code": "183452005",
          "display": "Emergency hospital admission"
        } ]
      } ],
      "subject": {
        "reference": "Patient/af316d7c-666a-45d1-905c-20ed90640ac3"
      },
      "period": {
        "start": "2026-01-11T08:00:00.000Z",
        "end": "2026-01-12T21:00:00.000Z"
      }
    },
    "request": {
      "method": "PUT",
      "url": "Encounter/ca9d2ff2-885a-485a-af2f-1b4d2bd25b2a"
    }
  }, {
    "fullUrl": "https://madie.cms.gov/MedicationAdministration/cd79f538-815c-4062-9109-c88b8f6526e8",
    "resource": {
      "resourceType": "MedicationAdministration",
      "id": "cd79f538-815c-4062-9109-c88b8f6526e8",
      "meta": {
        "profile": [ "http://hl7.org/fhir/us/qicore/StructureDefinition/qicore-medicationadministration" ]
      },
      "status": "completed",
      "medicationCodeableConcept": {
        "coding": [ {
          "system": "http://www.nlm.nih.gov/research/umls/rxnorm",
          "code": "1361493",
          "display": "glimepiride 6 MG Oral Tablet"
        } ]
      },
      "subject": {
        "reference": "Patient/af316d7c-666a-45d1-905c-20ed90640ac3"
      },
      "effectivePeriod": {
        "start": "2026-01-11T08:00:00.000Z",
        "end": "2026-01-12T21:15:00.000Z"
      }
    },
    "request": {
      "method": "PUT",
      "url": "MedicationAdministration/cd79f538-815c-4062-9109-c88b8f6526e8"
    }
  }, {
    "fullUrl": "https://madie.cms.gov/Patient/af316d7c-666a-45d1-905c-20ed90640ac3",
    "resource": {
      "resourceType": "Patient",
      "id": "af316d7c-666a-45d1-905c-20ed90640ac3",
      "meta": {
        "profile": [ "http://hl7.org/fhir/us/qicore/StructureDefinition/qicore-patient" ]
      },
      "extension": [ {
        "url": "http://hl7.org/fhir/us/core/StructureDefinition/us-core-race",
        "extension": [ {
          "url": "ombCategory",
          "valueCoding": {
            "system": "urn:oid:2.16.840.1.113883.6.238",
            "code": "2106-3",
            "display": "White"
          }
        }, {
          "url": "text",
          "valueString": "White"
        } ]
      }, {
        "url": "http://hl7.org/fhir/us/core/StructureDefinition/us-core-ethnicity",
        "extension": [ {
          "url": "ombCategory",
          "valueCoding": {
            "system": "urn:oid:2.16.840.1.113883.6.238",
            "code": "2135-2",
            "display": "Hispanic or Latino"
          }
        }, {
          "url": "text",
          "valueString": "Hispanic or Latino"
        } ]
      }, {
        "url": "http://hl7.org/fhir/us/core/StructureDefinition/us-core-sex",
        "valueCode": "248153007"
      } ],
      "identifier": [ {
        "system": "http://hospital.smarthealthit.org",
        "value": "999999999"
      } ],
      "name": [ {
        "family": "MedPeriodEndsAfterEnc",
        "given": [ "CMSDENOMPass" ]
      } ],
      "gender": "female",
      "birthDate": "1956-01-01"
    },
    "request": {
      "method": "PUT",
      "url": "Patient/af316d7c-666a-45d1-905c-20ed90640ac3"
    }
  }, {
    "fullUrl": "https://madie.cms.gov/MeasureReport/ea50a8c6-239c-4787-956c-5fd8c8248840",
    "resource": {
      "resourceType": "MeasureReport",
      "id": "ea50a8c6-239c-4787-956c-5fd8c8248840",
      "meta": {
        "profile": [ "http://hl7.org/fhir/us/cqfmeasures/StructureDefinition/test-case-cqfm" ]
      },
      "contained": [ {
        "resourceType": "Parameters",
        "id": "6f5e9d14-2336-4772-9028-47113efae138-parameters",
        "parameter": [ {
          "name": "subject",
          "valueString": "af316d7c-666a-45d1-905c-20ed90640ac3"
        } ]
      } ],
      "extension": [ {
        "url": "http://hl7.org/fhir/StructureDefinition/cqf-inputParameters",
        "valueReference": {
          "reference": "#6f5e9d14-2336-4772-9028-47113efae138-parameters"
        }
      }, {
        "url": "http://hl7.org/fhir/us/cqfmeasures/StructureDefinition/cqfm-testCaseDescription",
        "valueMarkdown": "Right age with encounter, meds administered, no lab tests. Med relevant period starts during encounter, ends after encounter. Denom pass - meets rule that med must 'start' during encounter. No rule that it must end during encounter.\n\n(CMS #7)"
      } ],
      "modifierExtension": [ {
        "url": "http://hl7.org/fhir/us/cqfmeasures/StructureDefinition/cqfm-isTestCase",
        "valueBoolean": true
      } ],
      "status": "complete",
      "type": "individual",
      "measure": "https://madie.cms.gov/Measure/NHSNGlycemicControlHypoglycemiaInitialPopulation",
      "period": {
        "start": "2026-01-01",
        "end": "2026-12-31"
      },
      "group": [ {
        "id": "Group_1",
        "population": [ {
          "id": "InitialPopulation_1",
          "code": {
            "coding": [ {
              "system": "http://terminology.hl7.org/CodeSystem/measure-population",
              "code": "initial-population",
              "display": "Initial Population"
            } ]
          },
          "count": 1
        } ],
        "measureScore": {
          "value": 0.0
        }
      } ],
      "evaluatedResource": [ {
        "reference": "Encounter/ca9d2ff2-885a-485a-af2f-1b4d2bd25b2a"
      }, {
        "reference": "MedicationAdministration/cd79f538-815c-4062-9109-c88b8f6526e8"
      }, {
        "reference": "Patient/af316d7c-666a-45d1-905c-20ed90640ac3"
      } ]
    },
    "request": {
      "method": "PUT",
      "url": "MeasureReport/ea50a8c6-239c-4787-956c-5fd8c8248840"
    }
  } ]
}