{
  "resourceType": "Bundle",
  "id": "tests-NUMERPass-Lab2is81AfterEncounterEnd-bundle",
  "type": "transaction",
  "entry": [ {
    "fullUrl": "https://madie.cms.gov/Encounter/9ec2096a-c92a-47c3-a890-b2f791d3f834",
    "resource": {
      "resourceType": "Encounter",
      "id": "9ec2096a-c92a-47c3-a890-b2f791d3f834",
      "meta": {
        "profile": [ "http://hl7.org/fhir/us/qicore/StructureDefinition/qicore-encounter" ]
      },
      "status": "finished",
      "class": {
        "system": "http://terminology.hl7.org/CodeSystem/v3-ActCode",
        "code": "IMP",
        "display": "Inpatient encounter"
      },
      "type": [ {
        "coding": [ {
          "system": "http://snomed.info/sct",
          "code": "183452005",
          "display": "Emergency hospital admission"
        } ]
      } ],
      "subject": {
        "reference": "Patient/f6646c57-1402-4a37-ac29-9f5f315a65be"
      },
      "period": {
        "start": "2026-01-11T08:00:00.000Z",
        "end": "2026-01-16T21:00:00.000Z"
      }
    },
    "request": {
      "method": "PUT",
      "url": "Encounter/9ec2096a-c92a-47c3-a890-b2f791d3f834"
    }
  }, {
    "fullUrl": "https://madie.cms.gov/MedicationAdministration/88557bf3-959d-4b63-8009-0be515195e1f",
    "resource": {
      "resourceType": "MedicationAdministration",
      "id": "88557bf3-959d-4b63-8009-0be515195e1f",
      "meta": {
        "profile": [ "http://hl7.org/fhir/us/qicore/StructureDefinition/qicore-medicationadministration" ]
      },
      "status": "completed",
      "medicationCodeableConcept": {
        "coding": [ {
          "system": "http://www.nlm.nih.gov/research/umls/rxnorm",
          "code": "1653202",
          "display": "3 ML insulin aspart, human 100 UNT/ML Pen Injector"
        } ]
      },
      "subject": {
        "reference": "Patient/f6646c57-1402-4a37-ac29-9f5f315a65be"
      },
      "effectivePeriod": {
        "start": "2026-01-16T08:00:00.000Z",
        "end": "2026-01-16T09:00:00.000Z"
      }
    },
    "request": {
      "method": "PUT",
      "url": "MedicationAdministration/88557bf3-959d-4b63-8009-0be515195e1f"
    }
  }, {
    "fullUrl": "https://madie.cms.gov/Observation/a4e33898-f551-4740-a63b-20887d243716",
    "resource": {
      "resourceType": "Observation",
      "id": "a4e33898-f551-4740-a63b-20887d243716",
      "meta": {
        "profile": [ "http://hl7.org/fhir/us/qicore/StructureDefinition/qicore-observation-lab" ]
      },
      "status": "final",
      "category": [ {
        "coding": [ {
          "system": "http://terminology.hl7.org/CodeSystem/observation-category",
          "code": "laboratory",
          "display": "Laboratory"
        } ],
        "text": "Laboratory"
      } ],
      "code": {
        "coding": [ {
          "system": "http://loinc.org",
          "code": "1556-0",
          "display": "Fasting glucose [Mass/volume] in Capillary blood"
        } ]
      },
      "subject": {
        "reference": "Patient/f6646c57-1402-4a37-ac29-9f5f315a65be"
      },
      "effectivePeriod": {
        "start": "2026-01-16T20:58:00.000Z",
        "end": "2026-01-16T20:58:00.000Z"
      },
      "issued": "2026-01-16T20:58:00.000Z",
      "valueQuantity": {
        "value": 35,
        "unit": "mg/dL"
      }
    },
    "request": {
      "method": "PUT",
      "url": "Observation/a4e33898-f551-4740-a63b-20887d243716"
    }
  }, {
    "fullUrl": "https://madie.cms.gov/Observation/b7249e49-7b82-4431-93fd-aacdc6039d4b",
    "resource": {
      "resourceType": "Observation",
      "id": "b7249e49-7b82-4431-93fd-aacdc6039d4b",
      "meta": {
        "profile": [ "http://hl7.org/fhir/us/qicore/StructureDefinition/qicore-observation-lab" ]
      },
      "status": "final",
      "category": [ {
        "coding": [ {
          "system": "http://terminology.hl7.org/CodeSystem/observation-category",
          "code": "laboratory",
          "display": "Laboratory"
        } ],
        "text": "Laboratory"
      } ],
      "code": {
        "coding": [ {
          "system": "http://loinc.org",
          "code": "1556-0",
          "display": "Fasting glucose [Mass/volume] in Capillary blood"
        } ]
      },
      "subject": {
        "reference": "Patient/f6646c57-1402-4a37-ac29-9f5f315a65be"
      },
      "effectivePeriod": {
        "start": "2026-01-16T21:01:00.000Z",
        "end": "2026-01-16T21:01:00.000Z"
      },
      "issued": "2026-01-16T21:01:00.000Z",
      "valueQuantity": {
        "value": 81,
        "unit": "mg/dL"
      }
    },
    "request": {
      "method": "PUT",
      "url": "Observation/b7249e49-7b82-4431-93fd-aacdc6039d4b"
    }
  }, {
    "fullUrl": "https://madie.cms.gov/Patient/f6646c57-1402-4a37-ac29-9f5f315a65be",
    "resource": {
      "resourceType": "Patient",
      "id": "f6646c57-1402-4a37-ac29-9f5f315a65be",
      "meta": {
        "profile": [ "http://hl7.org/fhir/us/qicore/StructureDefinition/qicore-patient" ]
      },
      "extension": [ {
        "url": "http://hl7.org/fhir/us/core/StructureDefinition/us-core-race",
        "extension": [ {
          "url": "ombCategory",
          "valueCoding": {
            "system": "urn:oid:2.16.840.1.113883.6.238",
            "code": "2106-3",
            "display": "White"
          }
        }, {
          "url": "text",
          "valueString": "White"
        } ]
      }, {
        "url": "http://hl7.org/fhir/us/core/StructureDefinition/us-core-ethnicity",
        "extension": [ {
          "url": "ombCategory",
          "valueCoding": {
            "system": "urn:oid:2.16.840.1.113883.6.238",
            "code": "2135-2",
            "display": "Hispanic or Latino"
          }
        }, {
          "url": "text",
          "valueString": "Hispanic or Latino"
        } ]
      }, {
        "url": "http://hl7.org/fhir/us/core/StructureDefinition/us-core-sex",
        "valueCode": "248153007"
      } ],
      "identifier": [ {
        "system": "http://hospital.smarthealthit.org",
        "value": "999999999"
      } ],
      "name": [ {
        "family": "CMSNUMERPass",
        "given": [ "Lab2is81AfterEncounterEnd" ]
      } ],
      "gender": "female",
      "birthDate": "2000-07-11"
    },
    "request": {
      "method": "PUT",
      "url": "Patient/f6646c57-1402-4a37-ac29-9f5f315a65be"
    }
  }, {
    "fullUrl": "https://madie.cms.gov/MeasureReport/9695f768-61a9-4fbe-b8f9-1b767a16d28c",
    "resource": {
      "resourceType": "MeasureReport",
      "id": "9695f768-61a9-4fbe-b8f9-1b767a16d28c",
      "meta": {
        "profile": [ "http://hl7.org/fhir/us/cqfmeasures/StructureDefinition/test-case-cqfm" ]
      },
      "contained": [ {
        "resourceType": "Parameters",
        "id": "f139fddd-ebd5-483e-b9ec-bb0c7f8242b7-parameters",
        "parameter": [ {
          "name": "subject",
          "valueString": "f6646c57-1402-4a37-ac29-9f5f315a65be"
        } ]
      } ],
      "extension": [ {
        "url": "http://hl7.org/fhir/StructureDefinition/cqf-inputParameters",
        "valueReference": {
          "reference": "#f139fddd-ebd5-483e-b9ec-bb0c7f8242b7-parameters"
        }
      }, {
        "url": "http://hl7.org/fhir/us/cqfmeasures/StructureDefinition/cqfm-testCaseDescription",
        "valueMarkdown": "Encounter ends 7/16 at 9pm. Hypo med given. Lab test 1 with result done 7/16 at 8:58pm within 24 hours of med = 35. Lab test 2 with result done 3 minutes later at 9:01pm (1 minute after discharge ) = 81. \n\n(CMS #23)"
      } ],
      "modifierExtension": [ {
        "url": "http://hl7.org/fhir/us/cqfmeasures/StructureDefinition/cqfm-isTestCase",
        "valueBoolean": true
      } ],
      "status": "complete",
      "type": "individual",
      "measure": "https://madie.cms.gov/Measure/NHSNGlycemicControlHypoglycemiaInitialPopulation",
      "period": {
        "start": "2026-01-01",
        "end": "2026-12-31"
      },
      "group": [ {
        "id": "Group_1",
        "population": [ {
          "id": "InitialPopulation_1",
          "code": {
            "coding": [ {
              "system": "http://terminology.hl7.org/CodeSystem/measure-population",
              "code": "initial-population",
              "display": "Initial Population"
            } ]
          },
          "count": 1
        } ],
        "measureScore": {
          "value": 0.0
        }
      } ],
      "evaluatedResource": [ {
        "reference": "Encounter/9ec2096a-c92a-47c3-a890-b2f791d3f834"
      }, {
        "reference": "MedicationAdministration/88557bf3-959d-4b63-8009-0be515195e1f"
      }, {
        "reference": "Observation/a4e33898-f551-4740-a63b-20887d243716"
      }, {
        "reference": "Observation/b7249e49-7b82-4431-93fd-aacdc6039d4b"
      }, {
        "reference": "Patient/f6646c57-1402-4a37-ac29-9f5f315a65be"
      } ]
    },
    "request": {
      "method": "PUT",
      "url": "MeasureReport/9695f768-61a9-4fbe-b8f9-1b767a16d28c"
    }
  } ]
}