{
  "resourceType": "Bundle",
  "id": "DENEXPass-HospiceEncDuringMP",
  "type": "transaction",
  "entry": [ {
    "fullUrl": "https://madie.cms.gov/Patient/239d5e6f-38d3-461f-a2a1-52abe106e8bb",
    "resource": {
      "resourceType": "Patient",
      "id": "239d5e6f-38d3-461f-a2a1-52abe106e8bb",
      "meta": {
        "profile": [ "http://hl7.org/fhir/us/qicore/StructureDefinition/qicore-patient" ]
      },
      "extension": [ {
        "url": "http://hl7.org/fhir/us/core/StructureDefinition/us-core-race",
        "extension": [ {
          "url": "ombCategory",
          "valueCoding": {
            "system": "urn:oid:2.16.840.1.113883.6.238",
            "code": "2028-9",
            "display": "Asian"
          }
        }, {
          "url": "text",
          "valueString": "Asian"
        } ]
      }, {
        "url": "http://hl7.org/fhir/us/core/StructureDefinition/us-core-ethnicity",
        "extension": [ {
          "url": "ombCategory",
          "valueCoding": {
            "system": "urn:oid:2.16.840.1.113883.6.238",
            "code": "2135-2",
            "display": "Hispanic or Latino"
          }
        }, {
          "url": "text",
          "valueString": "Hispanic or Latino"
        } ]
      } ],
      "identifier": [ {
        "system": "http://hospital.smarthealthit.org",
        "value": "999999995"
      } ],
      "name": [ {
        "family": "Bertha",
        "given": [ "Betty" ]
      } ],
      "gender": "female",
      "birthDate": "2024-01-01"
    },
    "request": {
      "method": "PUT",
      "url": "Patient/239d5e6f-38d3-461f-a2a1-52abe106e8bb"
    }
  }, {
    "fullUrl": "https://madie.cms.gov/Encounter/28a44264-8a13-46d7-b9bb-04e02f8705a9",
    "resource": {
      "resourceType": "Encounter",
      "id": "28a44264-8a13-46d7-b9bb-04e02f8705a9",
      "meta": {
        "profile": [ "http://hl7.org/fhir/us/qicore/StructureDefinition/qicore-encounter" ]
      },
      "status": "finished",
      "class": {
        "system": "http://terminology.hl7.org/CodeSystem/v3-ActCode",
        "code": "AMB",
        "display": "ambulatory"
      },
      "type": [ {
        "coding": [ {
          "system": "http://snomed.info/sct",
          "code": "185317003",
          "display": "Telephone encounter (procedure)"
        } ]
      } ],
      "subject": {
        "reference": "Patient/239d5e6f-38d3-461f-a2a1-52abe106e8bb"
      },
      "period": {
        "start": "2026-01-01T01:00:00.000+00:00",
        "end": "2026-01-01T01:15:00.000+00:00"
      }
    },
    "request": {
      "method": "PUT",
      "url": "Encounter/28a44264-8a13-46d7-b9bb-04e02f8705a9"
    }
  }, {
    "fullUrl": "https://madie.cms.gov/Encounter/eb50470d-987c-4921-b270-a870c38f45d6",
    "resource": {
      "resourceType": "Encounter",
      "id": "eb50470d-987c-4921-b270-a870c38f45d6",
      "meta": {
        "profile": [ "http://hl7.org/fhir/us/qicore/StructureDefinition/qicore-encounter" ]
      },
      "status": "finished",
      "class": {
        "system": "http://terminology.hl7.org/CodeSystem/v3-ActCode",
        "code": "AMB",
        "display": "ambulatory"
      },
      "type": [ {
        "coding": [ {
          "system": "http://snomed.info/sct",
          "code": "305336008",
          "display": "Admission to hospice (procedure)"
        } ]
      } ],
      "subject": {
        "reference": "Patient/239d5e6f-38d3-461f-a2a1-52abe106e8bb"
      },
      "period": {
        "start": "2026-01-02T01:00:00.000+00:00",
        "end": "2026-01-02T01:15:00.000+00:00"
      }
    },
    "request": {
      "method": "PUT",
      "url": "Encounter/eb50470d-987c-4921-b270-a870c38f45d6"
    }
  }, {
    "fullUrl": "https://madie.cms.gov/MeasureReport/382384c3-a4c8-4b52-a5ab-1129c957c4d5",
    "resource": {
      "resourceType": "MeasureReport",
      "id": "382384c3-a4c8-4b52-a5ab-1129c957c4d5",
      "meta": {
        "profile": [ "http://hl7.org/fhir/us/cqfmeasures/StructureDefinition/test-case-cqfm" ]
      },
      "contained": [ {
        "resourceType": "Parameters",
        "id": "b6792c44-8010-404b-a8b9-f49a23fa2a35-parameters",
        "parameter": [ {
          "name": "subject",
          "valueString": "239d5e6f-38d3-461f-a2a1-52abe106e8bb"
        } ]
      } ],
      "extension": [ {
        "url": "http://hl7.org/fhir/StructureDefinition/cqf-inputParameters",
        "valueReference": {
          "reference": "#b6792c44-8010-404b-a8b9-f49a23fa2a35-parameters"
        }
      }, {
        "url": "http://hl7.org/fhir/us/cqfmeasures/StructureDefinition/cqfm-testCaseDescription",
        "valueMarkdown": "Patient has a hospice encounter during the MP"
      } ],
      "modifierExtension": [ {
        "url": "http://hl7.org/fhir/us/cqfmeasures/StructureDefinition/cqfm-isTestCase",
        "valueBoolean": true
      } ],
      "status": "complete",
      "type": "individual",
      "measure": "https://madie.cms.gov/Measure/ChildhoodImmunizationStatusFHIR",
      "period": {
        "start": "2026-01-01",
        "end": "2026-12-31"
      },
      "group": [ {
        "id": "Group_1",
        "population": [ {
          "id": "InitialPopulation_1",
          "code": {
            "coding": [ {
              "system": "http://terminology.hl7.org/CodeSystem/measure-population",
              "code": "initial-population",
              "display": "Initial Population"
            } ]
          },
          "count": 1
        }, {
          "id": "Denominator_1",
          "code": {
            "coding": [ {
              "system": "http://terminology.hl7.org/CodeSystem/measure-population",
              "code": "denominator",
              "display": "Denominator"
            } ]
          },
          "count": 1
        }, {
          "id": "DenominatorExclusion_1",
          "code": {
            "coding": [ {
              "system": "http://terminology.hl7.org/CodeSystem/measure-population",
              "code": "denominator-exclusion",
              "display": "Denominator Exclusion"
            } ]
          },
          "count": 1
        }, {
          "id": "Numerator_1",
          "code": {
            "coding": [ {
              "system": "http://terminology.hl7.org/CodeSystem/measure-population",
              "code": "numerator",
              "display": "Numerator"
            } ]
          },
          "count": 0
        } ],
        "measureScore": {
          "value": 1.0
        }
      } ],
      "evaluatedResource": [ {
        "reference": "Patient/239d5e6f-38d3-461f-a2a1-52abe106e8bb"
      }, {
        "reference": "Encounter/28a44264-8a13-46d7-b9bb-04e02f8705a9"
      }, {
        "reference": "Encounter/eb50470d-987c-4921-b270-a870c38f45d6"
      } ]
    },
    "request": {
      "method": "PUT",
      "url": "MeasureReport/382384c3-a4c8-4b52-a5ab-1129c957c4d5"
    }
  }, {
    "fullUrl": "https://madie.cms.gov/MeasureReport/efa575ad-5873-4e4a-92c8-f57bcae58c0d",
    "resource": {
      "resourceType": "MeasureReport",
      "id": "efa575ad-5873-4e4a-92c8-f57bcae58c0d",
      "meta": {
        "profile": [ "http://hl7.org/fhir/us/cqfmeasures/StructureDefinition/test-case-cqfm" ]
      },
      "contained": [ {
        "resourceType": "Parameters",
        "id": "a18bc0e4-9999-41f8-85c8-1820ac7cb07d-parameters",
        "parameter": [ {
          "name": "subject",
          "valueString": "239d5e6f-38d3-461f-a2a1-52abe106e8bb"
        } ]
      } ],
      "extension": [ {
        "url": "http://hl7.org/fhir/StructureDefinition/cqf-inputParameters",
        "valueReference": {
          "reference": "#a18bc0e4-9999-41f8-85c8-1820ac7cb07d-parameters"
        }
      }, {
        "url": "http://hl7.org/fhir/us/cqfmeasures/StructureDefinition/cqfm-testCaseDescription",
        "valueMarkdown": "Patient has a hospice encounter during the MP"
      } ],
      "modifierExtension": [ {
        "url": "http://hl7.org/fhir/us/cqfmeasures/StructureDefinition/cqfm-isTestCase",
        "valueBoolean": true
      } ],
      "status": "complete",
      "type": "individual",
      "measure": "https://madie.cms.gov/Measure/CMS117FHIRChildImmunStatus",
      "period": {
        "start": "2026-01-01",
        "end": "2026-12-31"
      },
      "group": [ {
        "id": "Group_1",
        "population": [ {
          "id": "InitialPopulation_1",
          "code": {
            "coding": [ {
              "system": "http://terminology.hl7.org/CodeSystem/measure-population",
              "code": "initial-population",
              "display": "Initial Population"
            } ]
          },
          "count": 1
        }, {
          "id": "Denominator_1",
          "code": {
            "coding": [ {
              "system": "http://terminology.hl7.org/CodeSystem/measure-population",
              "code": "denominator",
              "display": "Denominator"
            } ]
          },
          "count": 1
        }, {
          "id": "DenominatorExclusion_1",
          "code": {
            "coding": [ {
              "system": "http://terminology.hl7.org/CodeSystem/measure-population",
              "code": "denominator-exclusion",
              "display": "Denominator Exclusion"
            } ]
          },
          "count": 1
        }, {
          "id": "Numerator_1",
          "code": {
            "coding": [ {
              "system": "http://terminology.hl7.org/CodeSystem/measure-population",
              "code": "numerator",
              "display": "Numerator"
            } ]
          },
          "count": 0
        } ],
        "measureScore": {
          "value": 1.0
        }
      } ],
      "evaluatedResource": [ {
        "reference": "Patient/239d5e6f-38d3-461f-a2a1-52abe106e8bb"
      }, {
        "reference": "Encounter/28a44264-8a13-46d7-b9bb-04e02f8705a9"
      }, {
        "reference": "Encounter/eb50470d-987c-4921-b270-a870c38f45d6"
      }, {
        "reference": "MeasureReport/382384c3-a4c8-4b52-a5ab-1129c957c4d5"
      } ]
    },
    "request": {
      "method": "PUT",
      "url": "MeasureReport/efa575ad-5873-4e4a-92c8-f57bcae58c0d"
    }
  } ]
}