{
  "resourceType": "Bundle",
  "id": "62fd0cb285b0356a7c28532f",
  "type": "collection",
  "entry": [ {
    "fullUrl": "https://madie.cms.gov/Patient/2fbd48f4-a5c7-4dd9-8318-745f49cc469c",
    "resource": {
      "resourceType": "Patient",
      "id": "2fbd48f4-a5c7-4dd9-8318-745f49cc469c",
      "meta": {
        "profile": [ "http://hl7.org/fhir/us/qicore/StructureDefinition/qicore-patient" ]
      },
      "extension": [ {
        "url": "http://hl7.org/fhir/us/core/StructureDefinition/us-core-race",
        "extension": [ {
          "url": "ombCategory",
          "valueCoding": {
            "system": "urn:oid:2.16.840.1.113883.6.238",
            "code": "2076-8",
            "display": "Native Hawaiian or Other Pacific Islander",
            "userSelected": true
          }
        }, {
          "url": "text",
          "valueString": "Native Hawaiian or Other Pacific Islander"
        } ]
      }, {
        "url": "http://hl7.org/fhir/us/core/StructureDefinition/us-core-ethnicity",
        "extension": [ {
          "url": "ombCategory",
          "valueCoding": {
            "system": "urn:oid:2.16.840.1.113883.6.238",
            "code": "2135-2",
            "display": "Hispanic or Latino",
            "userSelected": true
          }
        }, {
          "url": "text",
          "valueString": "Hispanic or Latino"
        } ]
      } ],
      "identifier": [ {
        "type": {
          "coding": [ {
            "system": "http://terminology.hl7.org/CodeSystem/v2-0203",
            "code": "MR"
          } ]
        },
        "system": "https://bonnie-fhir.healthit.gov/",
        "value": "62fd0cb285b0356a7c28532f"
      } ],
      "name": [ {
        "family": "DenomFail",
        "given": [ "StagingAFter1stTx" ]
      } ],
      "gender": "male",
      "birthDate": "1971-12-31"
    }
  }, {
    "fullUrl": "https://madie.cms.gov/Condition/3c571c4f-bf5e-4fac-96fc-bc3cf451b854",
    "resource": {
      "resourceType": "Condition",
      "id": "3c571c4f-bf5e-4fac-96fc-bc3cf451b854",
      "meta": {
        "profile": [ "http://hl7.org/fhir/us/qicore/StructureDefinition/qicore-condition-problems-health-concerns" ]
      },
      "clinicalStatus": {
        "coding": [ {
          "system": "http://terminology.hl7.org/CodeSystem/condition-clinical",
          "code": "active",
          "display": "active",
          "userSelected": true
        } ]
      },
      "category": [ {
        "coding": [ {
          "system": "http://terminology.hl7.org/CodeSystem/condition-category",
          "code": "problem-list-item",
          "display": "Problem List Item"
        } ]
      } ],
      "code": {
        "coding": [ {
          "system": "http://snomed.info/sct",
          "code": "254900004",
          "display": "Carcinoma of prostate (disorder)",
          "userSelected": true
        } ]
      },
      "subject": {
        "reference": "Patient/2fbd48f4-a5c7-4dd9-8318-745f49cc469c"
      },
      "onsetPeriod": {
        "start": "2023-06-14T08:00:00.000+00:00"
      }
    }
  }, {
    "fullUrl": "https://madie.cms.gov/Procedure/e810c8ed-859e-429d-8f15-54ffd76ed72e",
    "resource": {
      "resourceType": "Procedure",
      "id": "e810c8ed-859e-429d-8f15-54ffd76ed72e",
      "meta": {
        "profile": [ "http://hl7.org/fhir/us/qicore/StructureDefinition/qicore-procedure" ]
      },
      "extension": [ {
        "url": "http://hl7.org/fhir/us/qicore/StructureDefinition/qicore-recorded",
        "valueDateTime": "2026-02-01T09:00:00.000+00:00"
      } ],
      "status": "completed",
      "code": {
        "coding": [ {
          "system": "http://snomed.info/sct",
          "code": "38915000",
          "display": "Radionuclide therapy for gland ablation (procedure)",
          "userSelected": true
        } ]
      },
      "subject": {
        "reference": "Patient/2fbd48f4-a5c7-4dd9-8318-745f49cc469c"
      },
      "performedDateTime": "2026-04-28T08:00:00.000+00:00"
    }
  }, {
    "fullUrl": "https://madie.cms.gov/Observation/87a8cdfb-a505-4c39-a449-b130e98976d3",
    "resource": {
      "resourceType": "Observation",
      "id": "87a8cdfb-a505-4c39-a449-b130e98976d3",
      "meta": {
        "profile": [ "http://hl7.org/fhir/us/qicore/StructureDefinition/qicore-observation-lab" ]
      },
      "status": "amended",
      "category": [ {
        "coding": [ {
          "system": "http://terminology.hl7.org/CodeSystem/observation-category",
          "code": "laboratory",
          "display": "Laboratory"
        } ]
      } ],
      "code": {
        "coding": [ {
          "system": "http://loinc.org",
          "version": "2.72",
          "code": "10508-0",
          "display": "Prostate specific Ag [Presence] in Tissue by Immune stain",
          "userSelected": true
        } ]
      },
      "subject": {
        "reference": "Patient/2fbd48f4-a5c7-4dd9-8318-745f49cc469c"
      },
      "effectiveDateTime": "2026-04-24T08:00:00.000+00:00",
      "issued": "2026-04-24T08:00:00.000+00:00",
      "valueQuantity": {
        "value": 2.0,
        "system": "http://unitsofmeasure.org",
        "code": "ng/mL"
      }
    }
  }, {
    "fullUrl": "https://madie.cms.gov/Observation/d2a6d6b0-54fa-428b-af3d-5a8c8f287ef4",
    "resource": {
      "resourceType": "Observation",
      "id": "d2a6d6b0-54fa-428b-af3d-5a8c8f287ef4",
      "meta": {
        "profile": [ "http://hl7.org/fhir/us/qicore/StructureDefinition/qicore-observation-clinical-result" ]
      },
      "status": "amended",
      "category": [ {
        "coding": [ {
          "system": "http://terminology.hl7.org/CodeSystem/observation-category",
          "code": "procedure",
          "display": "Procedure"
        } ]
      } ],
      "code": {
        "coding": [ {
          "system": "http://loinc.org",
          "code": "35266-6",
          "display": "Gleason score in Specimen Qualitative",
          "userSelected": true
        } ]
      },
      "subject": {
        "reference": "Patient/2fbd48f4-a5c7-4dd9-8318-745f49cc469c"
      },
      "effectiveDateTime": "2026-01-02T08:00:00.000+00:00",
      "valueInteger": 5
    }
  }, {
    "fullUrl": "https://madie.cms.gov/Observation/8ba7609e-faf9-49ee-a3ab-31992637f779",
    "resource": {
      "resourceType": "Observation",
      "id": "8ba7609e-faf9-49ee-a3ab-31992637f779",
      "meta": {
        "profile": [ "http://hl7.org/fhir/us/qicore/StructureDefinition/qicore-observation-clinical-result" ]
      },
      "status": "amended",
      "category": [ {
        "coding": [ {
          "system": "http://terminology.hl7.org/CodeSystem/observation-category",
          "code": "procedure",
          "display": "Procedure"
        } ]
      } ],
      "code": {
        "coding": [ {
          "system": "http://snomed.info/sct",
          "code": "254292007",
          "display": "Tumor staging (tumor staging)",
          "userSelected": true
        } ]
      },
      "subject": {
        "reference": "Patient/2fbd48f4-a5c7-4dd9-8318-745f49cc469c"
      },
      "effectiveDateTime": "2026-04-29T00:00:00.000+00:00",
      "valueCodeableConcept": {
        "coding": [ {
          "system": "http://snomed.info/sct",
          "code": "1228931008",
          "display": "American Joint Committee on Cancer cT2a (qualifier value)",
          "userSelected": true
        } ]
      }
    }
  }, {
    "fullUrl": "https://madie.cms.gov/Coverage/f6e574d5-90b2-4ff7-ac5e-de84cd8c0464",
    "resource": {
      "resourceType": "Coverage",
      "id": "f6e574d5-90b2-4ff7-ac5e-de84cd8c0464",
      "meta": {
        "profile": [ "http://hl7.org/fhir/us/qicore/StructureDefinition/qicore-coverage" ]
      },
      "status": "active",
      "subscriberId": "123456789",
      "beneficiary": {
        "reference": "Patient/2fbd48f4-a5c7-4dd9-8318-745f49cc469c"
      },
      "relationship": {
        "coding": [ {
          "system": "http://terminology.hl7.org/CodeSystem/subscriber-relationship",
          "code": "self",
          "display": "Self",
          "userSelected": true
        } ]
      },
      "payor": [ {
        "reference": "Organization/3c291e1f-5c6f-474d-b1a8-b72a2f1cfc34"
      } ]
    }
  }, {
    "fullUrl": "https://madie.cms.gov/Organization/3c291e1f-5c6f-474d-b1a8-b72a2f1cfc34",
    "resource": {
      "resourceType": "Organization",
      "id": "3c291e1f-5c6f-474d-b1a8-b72a2f1cfc34",
      "meta": {
        "profile": [ "http://hl7.org/fhir/us/qicore/StructureDefinition/qicore-organization" ]
      },
      "identifier": [ {
        "use": "temp",
        "system": "urn:oid:2.16.840.1.113883.4.4",
        "value": "21-3259825"
      } ],
      "active": true,
      "type": [ {
        "coding": [ {
          "system": "http://terminology.hl7.org/CodeSystem/organization-type",
          "code": "pay",
          "display": "Payer"
        } ]
      } ],
      "name": "Blue Cross Blue Shield of Texas",
      "telecom": [ {
        "system": "phone",
        "value": "(+1) 972-766-6900"
      } ],
      "address": [ {
        "use": "billing",
        "type": "postal",
        "line": [ "P.O. Box 660044" ],
        "city": "Dallas",
        "state": "TX",
        "postalCode": "75266-0044",
        "country": "USA"
      } ]
    }
  }, {
    "fullUrl": "https://madie.cms.gov/Practitioner/604285bf-0a8d-412b-a046-e8fe9345479c",
    "resource": {
      "resourceType": "Practitioner",
      "id": "604285bf-0a8d-412b-a046-e8fe9345479c",
      "meta": {
        "profile": [ "http://hl7.org/fhir/us/qicore/StructureDefinition/qicore-practitioner" ]
      },
      "identifier": [ {
        "system": "http://hl7.org/fhir/sid/us-npi",
        "value": "1234567893"
      } ],
      "name": [ {
        "family": "Evil",
        "prefix": [ "Dr" ]
      } ]
    }
  }, {
    "fullUrl": "https://madie.cms.gov/MeasureReport/d9837c96-ebc6-45fe-a8b0-fe7aa0632f71",
    "resource": {
      "resourceType": "MeasureReport",
      "id": "d9837c96-ebc6-45fe-a8b0-fe7aa0632f71",
      "meta": {
        "profile": [ "http://hl7.org/fhir/us/cqfmeasures/StructureDefinition/test-case-cqfm" ]
      },
      "contained": [ {
        "resourceType": "Parameters",
        "id": "13adb48b-2f44-4eb3-9861-866120e70c78-parameters",
        "parameter": [ {
          "name": "subject",
          "valueString": "2fbd48f4-a5c7-4dd9-8318-745f49cc469c"
        } ]
      } ],
      "extension": [ {
        "url": "http://hl7.org/fhir/StructureDefinition/cqf-inputParameters",
        "valueReference": {
          "reference": "#13adb48b-2f44-4eb3-9861-866120e70c78-parameters"
        }
      }, {
        "url": "http://hl7.org/fhir/us/cqfmeasures/StructureDefinition/cqfm-testCaseDescription",
        "valueMarkdown": "Patient with Diagnosis: Prostate Cancer. Earlier Laboratory Test Performed: Prostate Specific Antigen Test  greater than 10 and most recent  Laboratory Test Performed: Prostate Specific Antigen Test less than 10\n"
      } ],
      "modifierExtension": [ {
        "url": "http://hl7.org/fhir/us/cqfmeasures/StructureDefinition/cqfm-isTestCase",
        "valueBoolean": true
      } ],
      "status": "complete",
      "type": "individual",
      "measure": "https://madie.cms.gov/Measure/CMS129FHIRProstCaBoneScanUse",
      "period": {
        "start": "2026-01-01",
        "end": "2026-12-31"
      },
      "group": [ {
        "id": "Group_1",
        "population": [ {
          "id": "InitialPopulation_1",
          "code": {
            "coding": [ {
              "system": "http://terminology.hl7.org/CodeSystem/measure-population",
              "code": "initial-population",
              "display": "Initial Population"
            } ]
          },
          "count": 1
        }, {
          "id": "Denominator_1",
          "code": {
            "coding": [ {
              "system": "http://terminology.hl7.org/CodeSystem/measure-population",
              "code": "denominator",
              "display": "Denominator"
            } ]
          },
          "count": 0
        }, {
          "id": "Numerator_1",
          "code": {
            "coding": [ {
              "system": "http://terminology.hl7.org/CodeSystem/measure-population",
              "code": "numerator",
              "display": "Numerator"
            } ]
          },
          "count": 0
        }, {
          "id": "DenominatorException_1",
          "code": {
            "coding": [ {
              "system": "http://terminology.hl7.org/CodeSystem/measure-population",
              "code": "denominator-exception",
              "display": "Denominator Exception"
            } ]
          },
          "count": 0
        } ],
        "measureScore": {
          "value": 1.0
        }
      } ],
      "evaluatedResource": [ {
        "reference": "Patient/2fbd48f4-a5c7-4dd9-8318-745f49cc469c"
      }, {
        "reference": "Condition/3c571c4f-bf5e-4fac-96fc-bc3cf451b854"
      }, {
        "reference": "Procedure/e810c8ed-859e-429d-8f15-54ffd76ed72e"
      }, {
        "reference": "Observation/87a8cdfb-a505-4c39-a449-b130e98976d3"
      }, {
        "reference": "Observation/d2a6d6b0-54fa-428b-af3d-5a8c8f287ef4"
      }, {
        "reference": "Observation/8ba7609e-faf9-49ee-a3ab-31992637f779"
      }, {
        "reference": "Coverage/f6e574d5-90b2-4ff7-ac5e-de84cd8c0464"
      }, {
        "reference": "Organization/3c291e1f-5c6f-474d-b1a8-b72a2f1cfc34"
      }, {
        "reference": "Practitioner/604285bf-0a8d-412b-a046-e8fe9345479c"
      } ]
    }
  } ]
}