{
  "resourceType": "Bundle",
  "id": "test-DischargeDispToFacilityWithHospiceCareProvStatus",
  "type": "transaction",
  "entry": [ {
    "fullUrl": "https://madie.cms.gov/Patient/baf4bf9c-5aa3-422d-a5d2-fdb37b0c8f44",
    "resource": {
      "resourceType": "Patient",
      "id": "baf4bf9c-5aa3-422d-a5d2-fdb37b0c8f44",
      "meta": {
        "profile": [ "http://hl7.org/fhir/us/qicore/StructureDefinition/qicore-patient" ]
      },
      "extension": [ {
        "url": "http://hl7.org/fhir/us/core/StructureDefinition/us-core-race",
        "extension": [ {
          "url": "ombCategory",
          "valueCoding": {
            "system": "urn:oid:2.16.840.1.113883.6.238",
            "code": "2106-3",
            "display": "White"
          }
        }, {
          "url": "text",
          "valueString": "White"
        } ]
      }, {
        "url": "http://hl7.org/fhir/us/core/StructureDefinition/us-core-ethnicity",
        "extension": [ {
          "url": "ombCategory",
          "valueCoding": {
            "system": "urn:oid:2.16.840.1.113883.6.238",
            "code": "2135-2",
            "display": "Hispanic or Latino"
          }
        }, {
          "url": "text",
          "valueString": "Hispanic or Latino"
        } ]
      } ],
      "identifier": [ {
        "system": "http://hospital.smarthealthit.org",
        "value": "999999999"
      } ],
      "name": [ {
        "family": "Example",
        "given": [ "Patient" ]
      } ],
      "gender": "male",
      "birthDate": "1956-01-01"
    },
    "request": {
      "method": "PUT",
      "url": "Patient/baf4bf9c-5aa3-422d-a5d2-fdb37b0c8f44"
    }
  }, {
    "fullUrl": "https://madie.cms.gov/Encounter/dd08b9b7-c4ed-403c-81ee-c58be4a5074b",
    "resource": {
      "resourceType": "Encounter",
      "id": "dd08b9b7-c4ed-403c-81ee-c58be4a5074b",
      "meta": {
        "profile": [ "http://hl7.org/fhir/us/qicore/StructureDefinition/qicore-encounter" ]
      },
      "status": "finished",
      "class": {
        "system": "http://terminology.hl7.org/CodeSystem/v3-ActCode",
        "code": "IMP",
        "display": "inpatient encounter"
      },
      "type": [ {
        "coding": [ {
          "system": "http://snomed.info/sct",
          "code": "183452005"
        } ]
      } ],
      "subject": {
        "reference": "Patient/baf4bf9c-5aa3-422d-a5d2-fdb37b0c8f44"
      },
      "period": {
        "start": "2026-04-07T08:00:00.000Z",
        "end": "2026-04-11T08:15:00.000Z"
      },
      "reasonCode": [ {
        "coding": [ {
          "system": "http://hl7.org/fhir/sid/icd-10-cm",
          "code": "E10.21",
          "display": "Type 1 diabetes mellitus with diabetic nephropathy"
        } ]
      } ],
      "hospitalization": {
        "admitSource": {
          "coding": [ {
            "system": "http://terminology.hl7.org/CodeSystem/v3-ActCode",
            "code": "EMER",
            "display": "Emergency"
          } ]
        },
        "dischargeDisposition": {
          "coding": [ {
            "system": "http://snomed.info/sct",
            "version": "2023-09",
            "code": "428371000124100",
            "display": "Discharge to healthcare facility for hospice care (procedure)"
          } ]
        }
      }
    },
    "request": {
      "method": "PUT",
      "url": "Encounter/dd08b9b7-c4ed-403c-81ee-c58be4a5074b"
    }
  }, {
    "fullUrl": "https://madie.cms.gov/Condition/c07a049e-bd02-4e0b-beab-ae58b5fc0b01",
    "resource": {
      "resourceType": "Condition",
      "id": "c07a049e-bd02-4e0b-beab-ae58b5fc0b01",
      "meta": {
        "profile": [ "http://hl7.org/fhir/us/qicore/StructureDefinition/qicore-condition-problems-health-concerns" ]
      },
      "clinicalStatus": {
        "coding": [ {
          "system": "http://terminology.hl7.org/CodeSystem/condition-clinical",
          "code": "active"
        } ]
      },
      "verificationStatus": {
        "coding": [ {
          "system": "http://terminology.hl7.org/CodeSystem/condition-ver-status",
          "code": "provisional",
          "display": "Provisional"
        } ]
      },
      "category": [ {
        "coding": [ {
          "system": "http://terminology.hl7.org/CodeSystem/condition-category",
          "code": "encounter-diagnosis",
          "display": "Encounter Diagnosis"
        } ]
      } ],
      "code": {
        "coding": [ {
          "system": "http://hl7.org/fhir/sid/icd-10-cm",
          "code": "E10.21",
          "display": "Type 1 diabetes mellitus with diabetic nephropathy"
        } ]
      },
      "subject": {
        "reference": "Patient/baf4bf9c-5aa3-422d-a5d2-fdb37b0c8f44"
      },
      "onsetDateTime": "2011-01-02"
    },
    "request": {
      "method": "PUT",
      "url": "Condition/c07a049e-bd02-4e0b-beab-ae58b5fc0b01"
    }
  }, {
    "fullUrl": "https://madie.cms.gov/MeasureReport/850bfb9e-8c85-45ef-8f49-46b58e5f654d",
    "resource": {
      "resourceType": "MeasureReport",
      "id": "850bfb9e-8c85-45ef-8f49-46b58e5f654d",
      "meta": {
        "profile": [ "http://hl7.org/fhir/us/cqfmeasures/StructureDefinition/test-case-cqfm" ]
      },
      "contained": [ {
        "resourceType": "Parameters",
        "id": "fa289b5d-2d2e-4060-9f27-d65a707b8316-parameters",
        "parameter": [ {
          "name": "subject",
          "valueString": "baf4bf9c-5aa3-422d-a5d2-fdb37b0c8f44"
        } ]
      } ],
      "extension": [ {
        "url": "http://hl7.org/fhir/StructureDefinition/cqf-inputParameters",
        "valueReference": {
          "reference": "#fa289b5d-2d2e-4060-9f27-d65a707b8316-parameters"
        }
      }, {
        "url": "http://hl7.org/fhir/us/cqfmeasures/StructureDefinition/cqfm-testCaseDescription",
        "valueMarkdown": "Patient has discharge disposition to healthcare facility with hospice care. Meets denom exclusion"
      } ],
      "modifierExtension": [ {
        "url": "http://hl7.org/fhir/us/cqfmeasures/StructureDefinition/cqfm-isTestCase",
        "valueBoolean": true
      } ],
      "status": "complete",
      "type": "individual",
      "measure": "https://madie.cms.gov/Measure/CMS871FHIRHHHyper",
      "period": {
        "start": "2026-01-01",
        "end": "2026-12-31"
      },
      "group": [ {
        "id": "Group_1",
        "population": [ {
          "id": "InitialPopulation_1",
          "code": {
            "coding": [ {
              "system": "http://terminology.hl7.org/CodeSystem/measure-population",
              "code": "initial-population",
              "display": "Initial Population"
            } ]
          },
          "count": 1
        }, {
          "id": "Denominator_1",
          "code": {
            "coding": [ {
              "system": "http://terminology.hl7.org/CodeSystem/measure-population",
              "code": "denominator",
              "display": "Denominator"
            } ]
          },
          "count": 1
        }, {
          "id": "DenominatorExclusion_1",
          "code": {
            "coding": [ {
              "system": "http://terminology.hl7.org/CodeSystem/measure-population",
              "code": "denominator-exclusion",
              "display": "Denominator Exclusion"
            } ]
          },
          "count": 1
        }, {
          "id": "Numerator_1",
          "code": {
            "coding": [ {
              "system": "http://terminology.hl7.org/CodeSystem/measure-population",
              "code": "numerator",
              "display": "Numerator"
            } ]
          },
          "count": 0
        }, {
          "id": "NumeratorExclusion_1",
          "code": {
            "coding": [ {
              "system": "http://terminology.hl7.org/CodeSystem/measure-population",
              "code": "numerator-exclusion",
              "display": "Numerator Exclusion"
            } ]
          },
          "count": 0
        } ],
        "measureScore": {
          "value": 0.0
        }
      } ],
      "evaluatedResource": [ {
        "reference": "Patient/baf4bf9c-5aa3-422d-a5d2-fdb37b0c8f44"
      }, {
        "reference": "Encounter/dd08b9b7-c4ed-403c-81ee-c58be4a5074b"
      }, {
        "reference": "Condition/c07a049e-bd02-4e0b-beab-ae58b5fc0b01"
      } ]
    },
    "request": {
      "method": "PUT",
      "url": "MeasureReport/850bfb9e-8c85-45ef-8f49-46b58e5f654d"
    }
  } ]
}