{
  "resourceType": "Bundle",
  "id": "DENOMPass-RVDepressionDxPOA",
  "type": "transaction",
  "entry": [ {
    "fullUrl": "https://madie.cms.gov/Claim/f08a05be-df14-4962-bcf3-bedd5259845d",
    "resource": {
      "resourceType": "Claim",
      "id": "f08a05be-df14-4962-bcf3-bedd5259845d",
      "meta": {
        "profile": [ "http://hl7.org/fhir/us/qicore/StructureDefinition/qicore-claim" ]
      },
      "status": "active",
      "type": {
        "coding": [ {
          "system": "http://terminology.hl7.org/CodeSystem/claim-type",
          "code": "professional",
          "display": "Professional"
        } ]
      },
      "use": "claim",
      "patient": {
        "reference": "Patient/8b607dee-4e17-492d-9949-0c69c10587e3"
      },
      "created": "2026-12-12",
      "provider": {
        "reference": "Practitioner/4adb04b5-1a00-4be9-8156-46aaf4258890"
      },
      "priority": {
        "coding": [ {
          "system": "http://terminology.hl7.org/CodeSystem/processpriority",
          "code": "normal"
        } ]
      },
      "diagnosis": [ {
        "sequence": 1,
        "diagnosisCodeableConcept": {
          "coding": [ {
            "system": "http://hl7.org/fhir/sid/icd-10-cm",
            "code": "F31.31"
          } ]
        },
        "onAdmission": {
          "coding": [ {
            "system": "https://www.cms.gov/Medicare/Medicare-Fee-for-Service-Payment/HospitalAcqCond/Coding",
            "code": "Y"
          } ]
        }
      } ],
      "insurance": [ {
        "sequence": 1,
        "focal": true,
        "coverage": {
          "reference": "Coverage/d49a0b54-35f2-4795-9329-768c67d5d441"
        }
      } ],
      "item": [ {
        "sequence": 1,
        "diagnosisSequence": [ 1, 2 ],
        "productOrService": {
          "coding": [ {
            "system": "http://terminology.hl7.org/CodeSystem/ex-USCLS",
            "code": "1101"
          } ]
        },
        "encounter": [ {
          "reference": "Encounter/a3d32825-5c5b-45b4-8fc3-45d95810f604"
        } ]
      } ]
    },
    "request": {
      "method": "PUT",
      "url": "Claim/f08a05be-df14-4962-bcf3-bedd5259845d"
    }
  }, {
    "fullUrl": "https://madie.cms.gov/Patient/8b607dee-4e17-492d-9949-0c69c10587e3",
    "resource": {
      "resourceType": "Patient",
      "id": "8b607dee-4e17-492d-9949-0c69c10587e3",
      "meta": {
        "profile": [ "http://hl7.org/fhir/us/qicore/StructureDefinition/qicore-patient" ]
      },
      "extension": [ {
        "url": "http://hl7.org/fhir/us/core/StructureDefinition/us-core-race",
        "extension": [ {
          "url": "ombCategory",
          "valueCoding": {
            "system": "urn:oid:2.16.840.1.113883.6.238",
            "code": "1002-5",
            "display": "American Indian or Alaska Native",
            "userSelected": true
          }
        }, {
          "url": "text",
          "valueString": "American Indian or Alaska Native"
        } ]
      }, {
        "url": "http://hl7.org/fhir/us/core/StructureDefinition/us-core-ethnicity",
        "extension": [ {
          "url": "ombCategory",
          "valueCoding": {
            "system": "urn:oid:2.16.840.1.113883.6.238",
            "code": "2135-2",
            "display": "Hispanic or Latino",
            "userSelected": true
          }
        }, {
          "url": "text",
          "valueString": "Hispanic or Latino"
        } ]
      } ],
      "identifier": [ {
        "type": {
          "coding": [ {
            "system": "http://terminology.hl7.org/CodeSystem/v2-0203",
            "code": "MR"
          } ]
        },
        "system": "https://bonnie-fhir.healthit.gov/",
        "value": "61152a3b98086b7a79cbd7c1"
      } ],
      "active": true,
      "name": [ {
        "use": "usual",
        "family": "DENOMPass",
        "given": [ "RVDeliriumDxPOA" ]
      } ],
      "gender": "female",
      "birthDate": "1964-12-11"
    },
    "request": {
      "method": "PUT",
      "url": "Patient/8b607dee-4e17-492d-9949-0c69c10587e3"
    }
  }, {
    "fullUrl": "https://madie.cms.gov/Encounter/a3d32825-5c5b-45b4-8fc3-45d95810f604",
    "resource": {
      "resourceType": "Encounter",
      "id": "a3d32825-5c5b-45b4-8fc3-45d95810f604",
      "meta": {
        "profile": [ "http://hl7.org/fhir/us/qicore/StructureDefinition/qicore-encounter" ]
      },
      "status": "finished",
      "class": {
        "system": "http://terminology.hl7.org/CodeSystem/v3-ActCode",
        "code": "IMP",
        "display": "inpatient encounter"
      },
      "type": [ {
        "coding": [ {
          "system": "http://snomed.info/sct",
          "code": "183452005",
          "display": "Emergency hospital admission"
        } ]
      } ],
      "subject": {
        "reference": "Patient/8b607dee-4e17-492d-9949-0c69c10587e3"
      },
      "period": {
        "start": "2026-11-12T08:00:00.000+00:00",
        "end": "2026-11-18T08:01:00.000+00:00"
      },
      "length": {
        "value": 6,
        "unit": "days"
      }
    },
    "request": {
      "method": "PUT",
      "url": "Encounter/a3d32825-5c5b-45b4-8fc3-45d95810f604"
    }
  }, {
    "fullUrl": "https://madie.cms.gov/Practitioner/4adb04b5-1a00-4be9-8156-46aaf4258890",
    "resource": {
      "resourceType": "Practitioner",
      "id": "4adb04b5-1a00-4be9-8156-46aaf4258890",
      "identifier": [ {
        "system": "http://www.cms.gov/identifiers/pracitioners",
        "value": "P12345"
      } ],
      "name": [ {
        "use": "official",
        "family": "Smith",
        "given": [ "John" ]
      } ],
      "qualification": [ {
        "identifier": [ {
          "system": "http://hl7.org/fhir/sid/us-npi",
          "value": "1234567890"
        } ],
        "code": {
          "coding": [ {
            "system": "http://terminology.hl7.org/CodeSystem/v2-0203",
            "code": "MD",
            "display": "Medical License number"
          } ]
        }
      } ]
    },
    "request": {
      "method": "PUT",
      "url": "Practitioner/4adb04b5-1a00-4be9-8156-46aaf4258890"
    }
  }, {
    "fullUrl": "https://madie.cms.gov/Coverage/d49a0b54-35f2-4795-9329-768c67d5d441",
    "resource": {
      "resourceType": "Coverage",
      "id": "d49a0b54-35f2-4795-9329-768c67d5d441",
      "status": "active",
      "beneficiary": {
        "reference": "Patient/8b607dee-4e17-492d-9949-0c69c10587e3"
      },
      "payor": [ {
        "reference": "Organization/65d84c30-9ecb-4d0d-92d0-976f2b748826"
      } ]
    },
    "request": {
      "method": "PUT",
      "url": "Coverage/d49a0b54-35f2-4795-9329-768c67d5d441"
    }
  }, {
    "fullUrl": "https://madie.cms.gov/Organization/65d84c30-9ecb-4d0d-92d0-976f2b748826",
    "resource": {
      "resourceType": "Organization",
      "id": "65d84c30-9ecb-4d0d-92d0-976f2b748826",
      "identifier": [ {
        "system": "http://cms.gov/insurance-ids",
        "value": "AET12345"
      } ],
      "type": [ {
        "coding": [ {
          "system": "http://terminology.hl7.org/CodeSystem/organization-type",
          "code": "prov",
          "display": "Healthcare Provider"
        } ]
      } ],
      "name": "Aetna Insurance",
      "telecom": [ {
        "system": "phone",
        "value": "+1-800-123-4567"
      } ],
      "address": [ {
        "line": [ "123 Main Street" ],
        "city": "Cityville",
        "state": "CA",
        "postalCode": "12345",
        "country": "USA"
      } ]
    },
    "request": {
      "method": "PUT",
      "url": "Organization/65d84c30-9ecb-4d0d-92d0-976f2b748826"
    }
  }, {
    "fullUrl": "https://madie.cms.gov/MeasureReport/72cfb143-00c9-43a6-b714-665608bec6d4",
    "resource": {
      "resourceType": "MeasureReport",
      "id": "72cfb143-00c9-43a6-b714-665608bec6d4",
      "meta": {
        "profile": [ "http://hl7.org/fhir/us/cqfmeasures/StructureDefinition/test-case-cqfm" ]
      },
      "contained": [ {
        "resourceType": "Parameters",
        "id": "7a10bfe9-db84-4b01-a346-be793219d083-parameters",
        "parameter": [ {
          "name": "subject",
          "valueString": "8b607dee-4e17-492d-9949-0c69c10587e3"
        } ]
      } ],
      "extension": [ {
        "url": "http://hl7.org/fhir/StructureDefinition/cqf-inputParameters",
        "valueReference": {
          "reference": "#7a10bfe9-db84-4b01-a346-be793219d083-parameters"
        }
      }, {
        "url": "http://hl7.org/fhir/us/cqfmeasures/StructureDefinition/cqfm-testCaseDescription",
        "valueMarkdown": "Encounter with Depression Present dx POA = Y. Meets RV"
      } ],
      "modifierExtension": [ {
        "url": "http://hl7.org/fhir/us/cqfmeasures/StructureDefinition/cqfm-isTestCase",
        "valueBoolean": true
      } ],
      "status": "complete",
      "type": "individual",
      "measure": "https://madie.cms.gov/Measure/CMS1017FHIRHHFI",
      "period": {
        "start": "2026-01-01",
        "end": "2026-12-31"
      },
      "group": [ {
        "id": "Group_1",
        "population": [ {
          "id": "InitialPopulation_1",
          "code": {
            "coding": [ {
              "system": "http://terminology.hl7.org/CodeSystem/measure-population",
              "code": "initial-population",
              "display": "Initial Population"
            } ]
          },
          "count": 1
        }, {
          "id": "Denominator_1",
          "code": {
            "coding": [ {
              "system": "http://terminology.hl7.org/CodeSystem/measure-population",
              "code": "denominator",
              "display": "Denominator"
            } ]
          },
          "count": 1
        }, {
          "id": "DenominatorExclusion_1",
          "code": {
            "coding": [ {
              "system": "http://terminology.hl7.org/CodeSystem/measure-population",
              "code": "denominator-exclusion",
              "display": "Denominator Exclusion"
            } ]
          },
          "count": 0
        }, {
          "id": "Numerator_1",
          "code": {
            "coding": [ {
              "system": "http://terminology.hl7.org/CodeSystem/measure-population",
              "code": "numerator",
              "display": "Numerator"
            } ]
          },
          "count": 0
        }, {
          "id": "NumeratorExclusion_1",
          "code": {
            "coding": [ {
              "system": "http://terminology.hl7.org/CodeSystem/measure-population",
              "code": "numerator-exclusion",
              "display": "Numerator Exclusion"
            } ]
          },
          "count": 0
        }, {
          "id": "MeasureObservation_1_1_1",
          "code": {
            "coding": [ {
              "system": "http://terminology.hl7.org/CodeSystem/measure-population",
              "code": "measure-observation",
              "display": "Measure Observation"
            } ]
          },
          "count": 6
        } ],
        "measureScore": {
          "value": 0.0
        }
      } ],
      "evaluatedResource": [ {
        "reference": "Claim/f08a05be-df14-4962-bcf3-bedd5259845d"
      }, {
        "reference": "Patient/8b607dee-4e17-492d-9949-0c69c10587e3"
      }, {
        "reference": "Encounter/a3d32825-5c5b-45b4-8fc3-45d95810f604"
      }, {
        "reference": "Practitioner/4adb04b5-1a00-4be9-8156-46aaf4258890"
      }, {
        "reference": "Coverage/d49a0b54-35f2-4795-9329-768c67d5d441"
      }, {
        "reference": "Organization/65d84c30-9ecb-4d0d-92d0-976f2b748826"
      } ]
    },
    "request": {
      "method": "PUT",
      "url": "MeasureReport/72cfb143-00c9-43a6-b714-665608bec6d4"
    }
  } ]
}