{
  "resourceType": "Bundle",
  "id": "60f82c2e98086b570510e264",
  "type": "transaction",
  "entry": [ {
    "fullUrl": "https://madie.cms.gov/Patient/2bdb83c0-fcd9-4f06-b908-e373a7dcf91e",
    "resource": {
      "resourceType": "Patient",
      "id": "2bdb83c0-fcd9-4f06-b908-e373a7dcf91e",
      "meta": {
        "profile": [ "http://hl7.org/fhir/us/qicore/StructureDefinition/qicore-patient" ]
      },
      "text": {
        "status": "generated",
        "div": "<div xmlns=\"http://www.w3.org/1999/xhtml\"><div class=\"hapiHeaderText\">CMP_DayOf_RelvDat_1minAftEDStart_EDEndLT1hrB4Obs_ObsEndLT1hrB4IP <b>DENEXPASS </b></div><table class=\"hapiPropertyTable\"><tbody><tr><td>Identifier</td><td>a4b5ca450b4d11ad50aba1ee99a95908</td></tr><tr><td>Date of birth</td><td><span>26 September 1975</span></td></tr></tbody></table></div>"
      },
      "extension": [ {
        "url": "http://hl7.org/fhir/us/core/StructureDefinition/us-core-race",
        "extension": [ {
          "url": "ombCategory",
          "valueCoding": {
            "system": "urn:oid:2.16.840.1.113883.6.238",
            "code": "2054-5",
            "display": "Black or African American",
            "userSelected": true
          }
        }, {
          "url": "text",
          "valueString": "Black or African American"
        } ]
      }, {
        "url": "http://hl7.org/fhir/us/core/StructureDefinition/us-core-ethnicity",
        "extension": [ {
          "url": "ombCategory",
          "valueCoding": {
            "system": "urn:oid:2.16.840.1.113883.6.238",
            "code": "2186-5",
            "display": "Not Hispanic or Latino",
            "userSelected": true
          }
        }, {
          "url": "text",
          "valueString": "Not Hispanic or Latino"
        } ]
      } ],
      "identifier": [ {
        "type": {
          "coding": [ {
            "system": "http://terminology.hl7.org/CodeSystem/v2-0203",
            "code": "MR"
          } ]
        },
        "system": "https://bonnie-fhir.healthit.gov/",
        "value": "60f82c2e98086b570510e264"
      } ],
      "active": true,
      "name": [ {
        "use": "usual",
        "family": "DENEXPass",
        "given": [ "CMPDayOfRelvDat1minAftEDStartEDEndLT1hrB4ObsObsEndLT1hrB4IP" ]
      } ],
      "gender": "female",
      "birthDate": "1976-09-26"
    },
    "request": {
      "method": "PUT",
      "url": "Patient/2bdb83c0-fcd9-4f06-b908-e373a7dcf91e"
    }
  }, {
    "fullUrl": "https://madie.cms.gov/Encounter/584a3b98-4d12-4317-94ef-31ae58e81396",
    "resource": {
      "resourceType": "Encounter",
      "id": "584a3b98-4d12-4317-94ef-31ae58e81396",
      "meta": {
        "profile": [ "http://hl7.org/fhir/us/qicore/StructureDefinition/qicore-encounter" ]
      },
      "status": "finished",
      "class": {
        "system": "http://terminology.hl7.org/CodeSystem/v3-ActCode",
        "code": "EMER",
        "display": "emergency",
        "userSelected": true
      },
      "type": [ {
        "coding": [ {
          "system": "http://snomed.info/sct",
          "code": "4525004"
        } ]
      } ],
      "subject": {
        "reference": "Patient/2bdb83c0-fcd9-4f06-b908-e373a7dcf91e"
      },
      "period": {
        "start": "2026-10-10T04:00:00.000+00:00",
        "end": "2026-10-10T06:00:00.000+00:00"
      },
      "length": {
        "value": 0,
        "unit": "days"
      }
    },
    "request": {
      "method": "PUT",
      "url": "Encounter/584a3b98-4d12-4317-94ef-31ae58e81396"
    }
  }, {
    "fullUrl": "https://madie.cms.gov/Encounter/22f811e3-60c1-46e0-b30e-b1626dedae59",
    "resource": {
      "resourceType": "Encounter",
      "id": "22f811e3-60c1-46e0-b30e-b1626dedae59",
      "meta": {
        "profile": [ "http://hl7.org/fhir/us/qicore/StructureDefinition/qicore-encounter" ]
      },
      "status": "finished",
      "class": {
        "system": "http://terminology.hl7.org/CodeSystem/v3-ActCode",
        "code": "IMP",
        "display": "inpatient encounter",
        "userSelected": true
      },
      "type": [ {
        "coding": [ {
          "system": "http://snomed.info/sct",
          "code": "32485007"
        } ]
      } ],
      "subject": {
        "reference": "Patient/2bdb83c0-fcd9-4f06-b908-e373a7dcf91e"
      },
      "period": {
        "start": "2026-10-10T08:59:00.000+00:00",
        "end": "2026-10-11T11:15:00.000+00:00"
      },
      "length": {
        "value": 1,
        "unit": "days"
      },
      "reasonReference": [ {
        "reference": "Condition/262d6a59-83c0-4eb3-8f14-76d9dbc23935"
      } ]
    },
    "request": {
      "method": "PUT",
      "url": "Encounter/22f811e3-60c1-46e0-b30e-b1626dedae59"
    }
  }, {
    "fullUrl": "https://madie.cms.gov/claim/5ca62962b8484628b8de1ec5",
    "resource": {
      "resourceType": "Claim",
      "id": "5ca62962b8484628b8de1ec5",
      "meta": {
        "profile": [ "http://hl7.org/fhir/us/qicore/StructureDefinition/qicore-claim" ]
      },
      "status": "active",
      "type": {
        "coding": [ {
          "system": "http://terminology.hl7.org/CodeSystem/claim-type",
          "code": "institutional"
        } ]
      },
      "use": "claim",
      "patient": {
        "reference": "Patient/2bdb83c0-fcd9-4f06-b908-e373a7dcf91e"
      },
      "created": "2026-12-01",
      "provider": {
        "reference": "Practitioner/practitioner-123456"
      },
      "priority": {
        "coding": [ {
          "system": "http://terminology.hl7.org/CodeSystem/processpriority",
          "code": "normal"
        } ]
      },
      "diagnosis": [ {
        "sequence": 1,
        "diagnosisCodeableConcept": {
          "coding": [ {
            "system": "http://hl7.org/fhir/sid/icd-10-cm",
            "code": "I63.00"
          } ]
        },
        "type": [ {
          "coding": [ {
            "system": "http://terminology.hl7.org/CodeSystem/ex-diagnosistype",
            "code": "principal"
          } ]
        } ]
      } ],
      "insurance": [ {
        "sequence": 1,
        "focal": true,
        "coverage": {
          "reference": "Coverage/6c7ab0b6-a022-475e-80c5-a36bf5d00755"
        }
      } ],
      "item": [ {
        "sequence": 1,
        "diagnosisSequence": [ 1 ],
        "productOrService": {
          "coding": [ {
            "system": "http://terminology.hl7.org/CodeSystem/ex-USCLS",
            "code": "99555"
          } ]
        },
        "encounter": [ {
          "reference": "Encounter/22f811e3-60c1-46e0-b30e-b1626dedae59"
        } ]
      } ]
    },
    "request": {
      "method": "PUT",
      "url": "Claim/5ca62962b8484628b8de1ec5"
    }
  }, {
    "fullUrl": "https://madie.cms.gov/Encounter/f34b431d-62dd-40db-b696-21188a5846a0",
    "resource": {
      "resourceType": "Encounter",
      "id": "f34b431d-62dd-40db-b696-21188a5846a0",
      "meta": {
        "profile": [ "http://hl7.org/fhir/us/qicore/StructureDefinition/qicore-encounter" ]
      },
      "status": "finished",
      "class": {
        "system": "http://terminology.hl7.org/CodeSystem/v3-ActCode",
        "code": "OBSENC",
        "display": "observation encounter",
        "userSelected": true
      },
      "type": [ {
        "coding": [ {
          "system": "http://snomed.info/sct",
          "code": "448951000124107"
        } ]
      } ],
      "subject": {
        "reference": "Patient/2bdb83c0-fcd9-4f06-b908-e373a7dcf91e"
      },
      "period": {
        "start": "2026-10-10T06:59:00.000+00:00",
        "end": "2026-10-10T08:00:00.000+00:00"
      }
    },
    "request": {
      "method": "PUT",
      "url": "Encounter/f34b431d-62dd-40db-b696-21188a5846a0"
    }
  }, {
    "fullUrl": "https://madie.cms.gov/Procedure/46cef62d-2610-4b43-8379-f80be8be5a1c",
    "resource": {
      "resourceType": "Procedure",
      "id": "46cef62d-2610-4b43-8379-f80be8be5a1c",
      "meta": {
        "profile": [ "http://hl7.org/fhir/us/qicore/StructureDefinition/qicore-procedure" ]
      },
      "extension": [ {
        "url": "http://hl7.org/fhir/us/qicore/StructureDefinition/qicore-recorded",
        "valueDateTime": "2026-10-10T13:35:00.000+00:00"
      } ],
      "status": "completed",
      "code": {
        "coding": [ {
          "system": "http://snomed.info/sct",
          "code": "133918004"
        } ]
      },
      "subject": {
        "reference": "Patient/2bdb83c0-fcd9-4f06-b908-e373a7dcf91e"
      },
      "performedPeriod": {
        "start": "2026-10-10T04:01:00.000+00:00",
        "end": "2026-10-10T06:00:00.000+00:00"
      }
    },
    "request": {
      "method": "PUT",
      "url": "Procedure/46cef62d-2610-4b43-8379-f80be8be5a1c"
    }
  }, {
    "fullUrl": "https://madie.cms.gov/Coverage/6c7ab0b6-a022-475e-80c5-a36bf5d00755",
    "resource": {
      "resourceType": "Coverage",
      "id": "6c7ab0b6-a022-475e-80c5-a36bf5d00755",
      "status": "active",
      "beneficiary": {
        "reference": "Patient/2bdb83c0-fcd9-4f06-b908-e373a7dcf91e"
      },
      "period": {
        "start": "1976-09-26T08:00:00.000+00:00"
      },
      "payor": [ {
        "reference": "Organization/61416e55-c14a-4028-9d33-4d30a4ddf59d"
      } ]
    },
    "request": {
      "method": "PUT",
      "url": "Coverage/6c7ab0b6-a022-475e-80c5-a36bf5d00755"
    }
  }, {
    "fullUrl": "https://madie.cms.gov/Condition/262d6a59-83c0-4eb3-8f14-76d9dbc23935",
    "resource": {
      "resourceType": "Condition",
      "id": "262d6a59-83c0-4eb3-8f14-76d9dbc23935",
      "meta": {
        "profile": [ "http://hl7.org/fhir/us/qicore/StructureDefinition/qicore-condition" ]
      },
      "clinicalStatus": {
        "coding": [ {
          "system": "http://terminology.hl7.org/CodeSystem/condition-clinical",
          "code": "active"
        } ]
      },
      "verificationStatus": {
        "coding": [ {
          "system": "http://terminology.hl7.org/CodeSystem/condition-ver-status",
          "code": "confirmed"
        } ]
      },
      "category": [ {
        "coding": [ {
          "system": "http://terminology.hl7.org/CodeSystem/condition-category",
          "code": "encounter-diagnosis",
          "display": "Encounter Diagnosis"
        } ]
      } ],
      "code": {
        "coding": [ {
          "system": "http://snomed.info/sct",
          "version": "2020-09",
          "code": "111297002",
          "display": "Nonparalytic stroke (disorder)",
          "userSelected": true
        } ]
      },
      "subject": {
        "reference": "Patient/2bdb83c0-fcd9-4f06-b908-e373a7dcf91e"
      },
      "recordedDate": "2026-08-13T08:00:00.000+00:00"
    },
    "request": {
      "method": "PUT",
      "url": "Condition/262d6a59-83c0-4eb3-8f14-76d9dbc23935"
    }
  }, {
    "fullUrl": "https://madie.cms.gov/Organization/61416e55-c14a-4028-9d33-4d30a4ddf59d",
    "resource": {
      "resourceType": "Organization",
      "id": "61416e55-c14a-4028-9d33-4d30a4ddf59d",
      "meta": {
        "profile": [ "http://hl7.org/fhir/us/qicore/StructureDefinition/qicore-organization" ]
      },
      "identifier": [ {
        "use": "temp",
        "system": "urn:oid:2.16.840.1.113883.4.4",
        "value": "21-3259825"
      } ],
      "active": true,
      "type": [ {
        "coding": [ {
          "system": "http://terminology.hl7.org/CodeSystem/organization-type",
          "code": "pay",
          "display": "Payer"
        } ]
      } ],
      "name": "Blue Cross Blue Shield of Texas",
      "telecom": [ {
        "system": "phone",
        "value": "(+1) 972-766-6900"
      } ],
      "address": [ {
        "use": "billing",
        "type": "postal",
        "line": [ "P.O. Box 660044" ],
        "city": "Dallas",
        "state": "TX",
        "postalCode": "75266-0044",
        "country": "USA"
      } ]
    },
    "request": {
      "method": "PUT",
      "url": "Organization/61416e55-c14a-4028-9d33-4d30a4ddf59d"
    }
  }, {
    "fullUrl": "https://madie.cms.gov/MeasureReport/22b711de-3ca5-48c4-9aa3-450f3ab2ac7a",
    "resource": {
      "resourceType": "MeasureReport",
      "id": "22b711de-3ca5-48c4-9aa3-450f3ab2ac7a",
      "meta": {
        "profile": [ "http://hl7.org/fhir/us/cqfmeasures/StructureDefinition/test-case-cqfm" ]
      },
      "contained": [ {
        "resourceType": "Parameters",
        "id": "a2ebb3eb-ffd9-4c14-a338-4035cc2dd262-parameters",
        "parameter": [ {
          "name": "subject",
          "valueString": "2bdb83c0-fcd9-4f06-b908-e373a7dcf91e"
        } ]
      } ],
      "extension": [ {
        "url": "http://hl7.org/fhir/StructureDefinition/cqf-inputParameters",
        "valueReference": {
          "reference": "#a2ebb3eb-ffd9-4c14-a338-4035cc2dd262-parameters"
        }
      }, {
        "url": "http://hl7.org/fhir/us/cqfmeasures/StructureDefinition/cqfm-testCaseDescription",
        "valueMarkdown": "Comfort measures performed on the first day of hospitalization using relevant dateTime, 1 minute after ED start, ED ends less than one hour before Obs start, Obs ends less than one hour before IP start.\n"
      } ],
      "modifierExtension": [ {
        "url": "http://hl7.org/fhir/us/cqfmeasures/StructureDefinition/cqfm-isTestCase",
        "valueBoolean": true
      } ],
      "status": "complete",
      "type": "individual",
      "measure": "https://madie.cms.gov/Measure/CMS72FHIRSTKAntithromboticDay2",
      "period": {
        "start": "2026-01-01",
        "end": "2026-12-31"
      },
      "group": [ {
        "id": "Group_1",
        "population": [ {
          "id": "InitialPopulation_1",
          "code": {
            "coding": [ {
              "system": "http://terminology.hl7.org/CodeSystem/measure-population",
              "code": "initial-population",
              "display": "Initial Population"
            } ]
          },
          "count": 1
        }, {
          "id": "Denominator_1",
          "code": {
            "coding": [ {
              "system": "http://terminology.hl7.org/CodeSystem/measure-population",
              "code": "denominator",
              "display": "Denominator"
            } ]
          },
          "count": 1
        }, {
          "id": "DenominatorExclusion_1",
          "code": {
            "coding": [ {
              "system": "http://terminology.hl7.org/CodeSystem/measure-population",
              "code": "denominator-exclusion",
              "display": "Denominator Exclusion"
            } ]
          },
          "count": 1
        }, {
          "id": "Numerator_1",
          "code": {
            "coding": [ {
              "system": "http://terminology.hl7.org/CodeSystem/measure-population",
              "code": "numerator",
              "display": "Numerator"
            } ]
          },
          "count": 0
        }, {
          "id": "DenominatorException_1",
          "code": {
            "coding": [ {
              "system": "http://terminology.hl7.org/CodeSystem/measure-population",
              "code": "denominator-exception",
              "display": "Denominator Exception"
            } ]
          },
          "count": 0
        } ],
        "measureScore": {
          "value": 0.0
        }
      } ],
      "evaluatedResource": [ {
        "reference": "Patient/2bdb83c0-fcd9-4f06-b908-e373a7dcf91e"
      }, {
        "reference": "Encounter/584a3b98-4d12-4317-94ef-31ae58e81396"
      }, {
        "reference": "Encounter/22f811e3-60c1-46e0-b30e-b1626dedae59"
      }, {
        "reference": "Claim/5ca62962b8484628b8de1ec5"
      }, {
        "reference": "Encounter/f34b431d-62dd-40db-b696-21188a5846a0"
      }, {
        "reference": "Procedure/46cef62d-2610-4b43-8379-f80be8be5a1c"
      }, {
        "reference": "Coverage/6c7ab0b6-a022-475e-80c5-a36bf5d00755"
      }, {
        "reference": "Condition/262d6a59-83c0-4eb3-8f14-76d9dbc23935"
      }, {
        "reference": "Organization/61416e55-c14a-4028-9d33-4d30a4ddf59d"
      } ]
    },
    "request": {
      "method": "PUT",
      "url": "MeasureReport/22b711de-3ca5-48c4-9aa3-450f3ab2ac7a"
    }
  } ]
}