{
  "resourceType": "Bundle",
  "id": "60f82c2f98086b570510e29a",
  "type": "transaction",
  "entry": [ {
    "fullUrl": "https://madie.cms.gov/Patient/5736982d-6c82-4815-b0d2-3416ebe105f4",
    "resource": {
      "resourceType": "Patient",
      "id": "5736982d-6c82-4815-b0d2-3416ebe105f4",
      "meta": {
        "profile": [ "http://hl7.org/fhir/us/qicore/StructureDefinition/qicore-patient" ]
      },
      "text": {
        "status": "generated",
        "div": "<div xmlns=\"http://www.w3.org/1999/xhtml\"><div class=\"hapiHeaderText\">PriorThrombolyticTherapy <b>DENEXPASS </b></div><table class=\"hapiPropertyTable\"><tbody><tr><td>Identifier</td><td>565104711a5f65734f311e1bcaee8e27aafbba4f5261e5e5779c11e36e48777e</td></tr><tr><td>Date of birth</td><td><span>26 September 1975</span></td></tr></tbody></table></div>"
      },
      "extension": [ {
        "url": "http://hl7.org/fhir/us/core/StructureDefinition/us-core-race",
        "extension": [ {
          "url": "ombCategory",
          "valueCoding": {
            "system": "urn:oid:2.16.840.1.113883.6.238",
            "code": "2054-5",
            "display": "Black or African American",
            "userSelected": true
          }
        }, {
          "url": "text",
          "valueString": "Black or African American"
        } ]
      }, {
        "url": "http://hl7.org/fhir/us/core/StructureDefinition/us-core-ethnicity",
        "extension": [ {
          "url": "ombCategory",
          "valueCoding": {
            "system": "urn:oid:2.16.840.1.113883.6.238",
            "code": "2186-5",
            "display": "Not Hispanic or Latino",
            "userSelected": true
          }
        }, {
          "url": "text",
          "valueString": "Not Hispanic or Latino"
        } ]
      } ],
      "identifier": [ {
        "type": {
          "coding": [ {
            "system": "http://terminology.hl7.org/CodeSystem/v2-0203",
            "code": "MR"
          } ]
        },
        "system": "https://bonnie-fhir.healthit.gov/",
        "value": "60f82c2f98086b570510e29a"
      } ],
      "active": true,
      "name": [ {
        "use": "usual",
        "family": "DENEXFail",
        "given": [ "PriorThrombolyticTherapy" ]
      } ],
      "gender": "female",
      "birthDate": "1976-09-26"
    },
    "request": {
      "method": "PUT",
      "url": "Patient/5736982d-6c82-4815-b0d2-3416ebe105f4"
    }
  }, {
    "fullUrl": "https://madie.cms.gov/Encounter/a0da653e-d9e1-4013-9691-c1c2b3f967bb",
    "resource": {
      "resourceType": "Encounter",
      "id": "a0da653e-d9e1-4013-9691-c1c2b3f967bb",
      "meta": {
        "profile": [ "http://hl7.org/fhir/us/qicore/StructureDefinition/qicore-encounter" ]
      },
      "status": "finished",
      "class": {
        "system": "http://terminology.hl7.org/CodeSystem/v3-ActCode",
        "code": "IMP",
        "display": "inpatient encounter",
        "userSelected": true
      },
      "type": [ {
        "coding": [ {
          "system": "http://snomed.info/sct",
          "code": "32485007"
        } ]
      } ],
      "subject": {
        "reference": "Patient/5736982d-6c82-4815-b0d2-3416ebe105f4"
      },
      "period": {
        "start": "2026-10-10T06:15:00.000+00:00",
        "end": "2026-10-24T11:30:00.000+00:00"
      },
      "length": {
        "value": 14,
        "unit": "days"
      },
      "reasonReference": [ {
        "reference": "Condition/5104cc1c-b60d-4717-a036-9d30b080bc70"
      } ]
    },
    "request": {
      "method": "PUT",
      "url": "Encounter/a0da653e-d9e1-4013-9691-c1c2b3f967bb"
    }
  }, {
    "fullUrl": "https://madie.cms.gov/Condition/5fbe4472-4e18-4ccd-a99d-4135de3b4ba5",
    "resource": {
      "resourceType": "Condition",
      "id": "5fbe4472-4e18-4ccd-a99d-4135de3b4ba5",
      "meta": {
        "profile": [ "http://hl7.org/fhir/us/qicore/StructureDefinition/qicore-condition-encounter-diagnosis" ]
      },
      "clinicalStatus": {
        "coding": [ {
          "system": "http://terminology.hl7.org/CodeSystem/condition-clinical",
          "code": "active"
        } ]
      },
      "verificationStatus": {
        "coding": [ {
          "system": "http://terminology.hl7.org/CodeSystem/condition-ver-status",
          "code": "confirmed"
        } ]
      },
      "category": [ {
        "coding": [ {
          "system": "http://terminology.hl7.org/CodeSystem/condition-category",
          "code": "encounter-diagnosis",
          "display": "Encounter Diagnosis"
        } ]
      } ],
      "code": {
        "coding": [ {
          "system": "http://snomed.info/sct",
          "version": "2020-09",
          "code": "111297002",
          "display": "Nonparalytic stroke (disorder)",
          "userSelected": true
        } ]
      },
      "subject": {
        "reference": "Patient/5736982d-6c82-4815-b0d2-3416ebe105f4"
      },
      "encounter": {
        "reference": "Encounter/a0da653e-d9e1-4013-9691-c1c2b3f967bb"
      },
      "recordedDate": "2026-08-12T08:00:00.000+00:00"
    },
    "request": {
      "method": "PUT",
      "url": "Condition/5fbe4472-4e18-4ccd-a99d-4135de3b4ba5"
    }
  }, {
    "fullUrl": "https://madie.cms.gov/claim/5ca62962b8484628b8de1ec5",
    "resource": {
      "resourceType": "Claim",
      "id": "5ca62962b8484628b8de1ec5",
      "meta": {
        "profile": [ "http://hl7.org/fhir/us/qicore/StructureDefinition/qicore-claim" ]
      },
      "status": "active",
      "type": {
        "coding": [ {
          "system": "http://terminology.hl7.org/CodeSystem/claim-type",
          "code": "institutional"
        } ]
      },
      "use": "claim",
      "patient": {
        "reference": "Patient/5450abfd-a667-4eb9-9b59-e85feed4865c"
      },
      "created": "2026-12-01",
      "provider": {
        "reference": "Practitioner/practitioner-123456"
      },
      "priority": {
        "coding": [ {
          "system": "http://terminology.hl7.org/CodeSystem/processpriority",
          "code": "normal"
        } ]
      },
      "diagnosis": [ {
        "sequence": 1,
        "diagnosisCodeableConcept": {
          "coding": [ {
            "system": "http://hl7.org/fhir/sid/icd-10-cm",
            "code": "I63.00"
          } ]
        },
        "type": [ {
          "coding": [ {
            "system": "http://terminology.hl7.org/CodeSystem/ex-diagnosistype",
            "code": "principal"
          } ]
        } ]
      } ],
      "insurance": [ {
        "sequence": 1,
        "focal": true,
        "coverage": {
          "reference": "Coverage/5fa041661c76ba66d9959367"
        }
      } ],
      "item": [ {
        "sequence": 1,
        "diagnosisSequence": [ 1 ],
        "productOrService": {
          "coding": [ {
            "system": "http://terminology.hl7.org/CodeSystem/ex-USCLS",
            "code": "99555"
          } ]
        },
        "encounter": [ {
          "reference": "Encounter/a0da653e-d9e1-4013-9691-c1c2b3f967bb"
        } ]
      } ]
    },
    "request": {
      "method": "PUT",
      "url": "Claim/5ca62962b8484628b8de1ec5"
    }
  }, {
    "fullUrl": "https://madie.cms.gov/Condition/5104cc1c-b60d-4717-a036-9d30b080bc70",
    "resource": {
      "resourceType": "Condition",
      "id": "5104cc1c-b60d-4717-a036-9d30b080bc70",
      "meta": {
        "profile": [ "http://hl7.org/fhir/us/qicore/StructureDefinition/qicore-condition-problems-health-concerns" ]
      },
      "clinicalStatus": {
        "coding": [ {
          "system": "http://terminology.hl7.org/CodeSystem/condition-clinical",
          "code": "active"
        } ]
      },
      "verificationStatus": {
        "coding": [ {
          "system": "http://terminology.hl7.org/CodeSystem/condition-ver-status",
          "code": "confirmed"
        } ]
      },
      "category": [ {
        "coding": [ {
          "system": "http://terminology.hl7.org/CodeSystem/condition-category",
          "code": "encounter-diagnosis",
          "display": "Encounter Diagnosis"
        } ]
      } ],
      "code": {
        "coding": [ {
          "system": "http://hl7.org/fhir/sid/icd-10-cm",
          "version": "2020-09",
          "code": "Z92.82",
          "display": "Status post administration of tPA (rtPA) in a different facility within the last 24 hours prior to admission to current facility",
          "userSelected": true
        } ]
      },
      "subject": {
        "reference": "Patient/5736982d-6c82-4815-b0d2-3416ebe105f4"
      },
      "encounter": {
        "reference": "Encounter/a0da653e-d9e1-4013-9691-c1c2b3f967bb"
      },
      "recordedDate": "2026-10-10T06:16:00.000+00:00"
    },
    "request": {
      "method": "PUT",
      "url": "Condition/5104cc1c-b60d-4717-a036-9d30b080bc70"
    }
  }, {
    "fullUrl": "https://madie.cms.gov/Coverage/afd6826c-5cf7-4d27-9f08-36370c440fd5",
    "resource": {
      "resourceType": "Coverage",
      "id": "afd6826c-5cf7-4d27-9f08-36370c440fd5",
      "meta": {
        "profile": [ "http://hl7.org/fhir/us/qicore/StructureDefinition/qicore-coverage" ]
      },
      "status": "active",
      "beneficiary": {
        "reference": "Patient/5736982d-6c82-4815-b0d2-3416ebe105f4"
      },
      "payor": [ {
        "reference": "Organization/31188cd1-3ffa-4d2b-aa00-3c67b7be1a76"
      } ]
    },
    "request": {
      "method": "PUT",
      "url": "Coverage/afd6826c-5cf7-4d27-9f08-36370c440fd5"
    }
  }, {
    "fullUrl": "https://madie.cms.gov/Organization/31188cd1-3ffa-4d2b-aa00-3c67b7be1a76",
    "resource": {
      "resourceType": "Organization",
      "id": "31188cd1-3ffa-4d2b-aa00-3c67b7be1a76",
      "meta": {
        "profile": [ "http://hl7.org/fhir/us/qicore/StructureDefinition/qicore-organization" ]
      },
      "identifier": [ {
        "use": "temp",
        "system": "urn:oid:2.16.840.1.113883.4.4",
        "value": "21-3259825"
      } ],
      "active": true,
      "type": [ {
        "coding": [ {
          "system": "http://terminology.hl7.org/CodeSystem/organization-type",
          "code": "pay",
          "display": "Payer"
        } ]
      } ],
      "name": "Blue Cross Blue Shield of Texas",
      "telecom": [ {
        "system": "phone",
        "value": "(+1) 972-766-6900"
      } ],
      "address": [ {
        "use": "billing",
        "type": "postal",
        "line": [ "P.O. Box 660044" ],
        "city": "Dallas",
        "state": "TX",
        "postalCode": "75266-0044",
        "country": "USA"
      } ]
    },
    "request": {
      "method": "PUT",
      "url": "Organization/31188cd1-3ffa-4d2b-aa00-3c67b7be1a76"
    }
  }, {
    "fullUrl": "https://madie.cms.gov/MeasureReport/a213ce00-3f27-4fba-8dc6-35d0f6da141a",
    "resource": {
      "resourceType": "MeasureReport",
      "id": "a213ce00-3f27-4fba-8dc6-35d0f6da141a",
      "meta": {
        "profile": [ "http://hl7.org/fhir/us/cqfmeasures/StructureDefinition/test-case-cqfm" ]
      },
      "contained": [ {
        "resourceType": "Parameters",
        "id": "66cdbb28-f4ba-4f6d-acf1-4ca771e4c289-parameters",
        "parameter": [ {
          "name": "subject",
          "valueString": "5736982d-6c82-4815-b0d2-3416ebe105f4"
        } ]
      } ],
      "extension": [ {
        "url": "http://hl7.org/fhir/StructureDefinition/cqf-inputParameters",
        "valueReference": {
          "reference": "#66cdbb28-f4ba-4f6d-acf1-4ca771e4c289-parameters"
        }
      }, {
        "url": "http://hl7.org/fhir/us/cqfmeasures/StructureDefinition/cqfm-testCaseDescription",
        "valueMarkdown": "Encounter Diagnosis Z-code Z92.82 signifying prior thrombolytic therapy. This causes DENEX to pass."
      } ],
      "modifierExtension": [ {
        "url": "http://hl7.org/fhir/us/cqfmeasures/StructureDefinition/cqfm-isTestCase",
        "valueBoolean": true
      } ],
      "status": "complete",
      "type": "individual",
      "measure": "https://madie.cms.gov/Measure/CMS72FHIRSTKAntithromboticDay2",
      "period": {
        "start": "2026-01-01",
        "end": "2026-12-31"
      },
      "group": [ {
        "id": "Group_1",
        "population": [ {
          "id": "InitialPopulation_1",
          "code": {
            "coding": [ {
              "system": "http://terminology.hl7.org/CodeSystem/measure-population",
              "code": "initial-population",
              "display": "Initial Population"
            } ]
          },
          "count": 1
        }, {
          "id": "Denominator_1",
          "code": {
            "coding": [ {
              "system": "http://terminology.hl7.org/CodeSystem/measure-population",
              "code": "denominator",
              "display": "Denominator"
            } ]
          },
          "count": 1
        }, {
          "id": "DenominatorExclusion_1",
          "code": {
            "coding": [ {
              "system": "http://terminology.hl7.org/CodeSystem/measure-population",
              "code": "denominator-exclusion",
              "display": "Denominator Exclusion"
            } ]
          },
          "count": 1
        }, {
          "id": "Numerator_1",
          "code": {
            "coding": [ {
              "system": "http://terminology.hl7.org/CodeSystem/measure-population",
              "code": "numerator",
              "display": "Numerator"
            } ]
          },
          "count": 0
        }, {
          "id": "DenominatorException_1",
          "code": {
            "coding": [ {
              "system": "http://terminology.hl7.org/CodeSystem/measure-population",
              "code": "denominator-exception",
              "display": "Denominator Exception"
            } ]
          },
          "count": 0
        } ],
        "measureScore": {
          "value": 0.0
        }
      } ],
      "evaluatedResource": [ {
        "reference": "Patient/5736982d-6c82-4815-b0d2-3416ebe105f4"
      }, {
        "reference": "Encounter/a0da653e-d9e1-4013-9691-c1c2b3f967bb"
      }, {
        "reference": "Condition/5fbe4472-4e18-4ccd-a99d-4135de3b4ba5"
      }, {
        "reference": "Claim/5ca62962b8484628b8de1ec5"
      }, {
        "reference": "Condition/5104cc1c-b60d-4717-a036-9d30b080bc70"
      }, {
        "reference": "Coverage/afd6826c-5cf7-4d27-9f08-36370c440fd5"
      }, {
        "reference": "Organization/31188cd1-3ffa-4d2b-aa00-3c67b7be1a76"
      } ]
    },
    "request": {
      "method": "PUT",
      "url": "MeasureReport/a213ce00-3f27-4fba-8dc6-35d0f6da141a"
    }
  } ]
}