{
  "resourceType": "Bundle",
  "id": "6109650598086b538055a0dc",
  "type": "transaction",
  "entry": [ {
    "fullUrl": "https://madie.cms.gov/Patient/925a689c-440c-409d-b256-b0046a43cc6d",
    "resource": {
      "resourceType": "Patient",
      "id": "925a689c-440c-409d-b256-b0046a43cc6d",
      "meta": {
        "profile": [ "http://hl7.org/fhir/us/qicore/StructureDefinition/qicore-patient" ]
      },
      "text": {
        "status": "generated",
        "div": "<div xmlns=\"http://www.w3.org/1999/xhtml\"><div class=\"hapiHeaderText\">RiskAssessPsychotherapyEncrelevantDatetime <b>NUMERPASS </b></div><table class=\"hapiPropertyTable\"><tbody><tr><td>Identifier</td><td>93c3e66aae1f7f1a8106f95a744c120c</td></tr><tr><td>Date of birth</td><td><span>24 March 2001</span></td></tr></tbody></table></div>"
      },
      "extension": [ {
        "url": "http://hl7.org/fhir/us/core/StructureDefinition/us-core-race",
        "extension": [ {
          "url": "ombCategory",
          "valueCoding": {
            "system": "urn:oid:2.16.840.1.113883.6.238",
            "code": "2106-3",
            "display": "White",
            "userSelected": true
          }
        }, {
          "url": "text",
          "valueString": "White"
        } ]
      }, {
        "url": "http://hl7.org/fhir/us/core/StructureDefinition/us-core-ethnicity",
        "extension": [ {
          "url": "ombCategory",
          "valueCoding": {
            "system": "urn:oid:2.16.840.1.113883.6.238",
            "code": "2135-2",
            "display": "Hispanic or Latino",
            "userSelected": true
          }
        }, {
          "url": "text",
          "valueString": "Hispanic or Latino"
        } ]
      } ],
      "identifier": [ {
        "type": {
          "coding": [ {
            "system": "http://terminology.hl7.org/CodeSystem/v2-0203",
            "code": "MR"
          } ]
        },
        "system": "https://bonnie-fhir.healthit.gov/",
        "value": "6109650598086b538055a0dc"
      } ],
      "active": true,
      "name": [ {
        "use": "usual",
        "family": "NUMPass",
        "given": [ "RiskAssmtEncrelevantDatetime" ]
      } ],
      "gender": "male",
      "birthDate": "2016-03-24"
    },
    "request": {
      "method": "PUT",
      "url": "Patient/925a689c-440c-409d-b256-b0046a43cc6d"
    }
  }, {
    "fullUrl": "https://madie.cms.gov/Encounter/27a3fe7f-f924-454d-83e4-5b12e0271393",
    "resource": {
      "resourceType": "Encounter",
      "id": "27a3fe7f-f924-454d-83e4-5b12e0271393",
      "meta": {
        "profile": [ "http://hl7.org/fhir/us/qicore/StructureDefinition/qicore-encounter" ]
      },
      "status": "finished",
      "class": {
        "system": "http://terminology.hl7.org/CodeSystem/v3-ActCode",
        "code": "AMB",
        "display": "ambulatory",
        "userSelected": true
      },
      "type": [ {
        "coding": [ {
          "system": "http://snomed.info/sct",
          "code": "281036007"
        } ]
      } ],
      "subject": {
        "reference": "Patient/925a689c-440c-409d-b256-b0046a43cc6d"
      },
      "period": {
        "start": "2026-07-12T11:45:00.000+00:00",
        "end": "2026-07-12T12:15:00.000+00:00"
      },
      "length": {
        "value": 0.0,
        "unit": "days"
      },
      "reasonCode": [ {
        "coding": [ {
          "system": "http://snomed.info/sct",
          "version": "2023-09",
          "code": "320751009",
          "display": "Major depression, melancholic type (disorder)",
          "userSelected": true
        } ]
      } ],
      "diagnosis": [ {
        "condition": {
          "reference": "Condition/cdeb456c-3911-4a49-89ff-995521df8d94"
        },
        "use": {
          "coding": [ {
            "system": "http://snomed.info/sct",
            "version": "2023-09",
            "code": "320751009",
            "display": "Major depression, melancholic type (disorder)",
            "userSelected": true
          } ]
        }
      } ]
    },
    "request": {
      "method": "PUT",
      "url": "Encounter/27a3fe7f-f924-454d-83e4-5b12e0271393"
    }
  }, {
    "fullUrl": "https://madie.cms.gov/Procedure/f46bc2cb-e5a9-44b3-a985-ba89454df64c",
    "resource": {
      "resourceType": "Procedure",
      "id": "f46bc2cb-e5a9-44b3-a985-ba89454df64c",
      "meta": {
        "profile": [ "http://hl7.org/fhir/us/qicore/StructureDefinition/qicore-procedure" ]
      },
      "extension": [ {
        "url": "http://hl7.org/fhir/us/qicore/StructureDefinition/qicore-recorded",
        "valueDateTime": "2026-07-12T11:47:00.000+00:00"
      } ],
      "status": "completed",
      "code": {
        "coding": [ {
          "system": "http://snomed.info/sct",
          "code": "225337009"
        } ]
      },
      "subject": {
        "reference": "Patient/925a689c-440c-409d-b256-b0046a43cc6d"
      },
      "performedDateTime": "2026-07-12T11:47:00.000+00:00"
    },
    "request": {
      "method": "PUT",
      "url": "Procedure/f46bc2cb-e5a9-44b3-a985-ba89454df64c"
    }
  }, {
    "fullUrl": "https://madie.cms.gov/Condition/cdeb456c-3911-4a49-89ff-995521df8d94",
    "resource": {
      "resourceType": "Condition",
      "id": "cdeb456c-3911-4a49-89ff-995521df8d94",
      "meta": {
        "profile": [ "http://hl7.org/fhir/us/qicore/StructureDefinition/qicore-condition" ]
      },
      "category": [ {
        "coding": [ {
          "system": "http://terminology.hl7.org/CodeSystem/condition-category",
          "code": "encounter-diagnosis",
          "display": "Encounter Diagnosis"
        } ]
      } ],
      "code": {
        "coding": [ {
          "system": "http://snomed.info/sct",
          "version": "2023-09",
          "code": "320751009",
          "display": "Major depression, melancholic type (disorder)",
          "userSelected": true
        } ]
      },
      "subject": {
        "reference": "Patient/925a689c-440c-409d-b256-b0046a43cc6d"
      },
      "recordedDate": "2026-07-12T11:45:00.000+00:00"
    },
    "request": {
      "method": "PUT",
      "url": "Condition/cdeb456c-3911-4a49-89ff-995521df8d94"
    }
  }, {
    "fullUrl": "https://madie.cms.gov/Coverage/662bfd65-9500-489b-88f6-4dcc5e816bbc",
    "resource": {
      "resourceType": "Coverage",
      "id": "662bfd65-9500-489b-88f6-4dcc5e816bbc",
      "meta": {
        "profile": [ "http://hl7.org/fhir/us/qicore/StructureDefinition/qicore-coverage" ]
      },
      "identifier": [ {
        "system": "http://benefitsinc.com/certificate",
        "value": "12345"
      } ],
      "status": "active",
      "type": {
        "coding": [ {
          "system": "https://nahdo.org/sopt",
          "code": "19",
          "userSelected": true
        } ]
      },
      "beneficiary": {
        "reference": "Patient/925a689c-440c-409d-b256-b0046a43cc6d"
      },
      "period": {
        "start": "2026-04-01T08:00:00.000+00:00",
        "end": "2026-10-01T08:15:00.000+00:00"
      },
      "payor": [ {
        "reference": "Organization/21aa3935-10f1-4b68-bd02-6012b9ca7b3e"
      } ]
    },
    "request": {
      "method": "PUT",
      "url": "Coverage/662bfd65-9500-489b-88f6-4dcc5e816bbc"
    }
  }, {
    "fullUrl": "https://madie.cms.gov/Organization/21aa3935-10f1-4b68-bd02-6012b9ca7b3e",
    "resource": {
      "resourceType": "Organization",
      "id": "21aa3935-10f1-4b68-bd02-6012b9ca7b3e",
      "meta": {
        "profile": [ "http://hl7.org/fhir/us/qicore/StructureDefinition/qicore-organization" ]
      },
      "identifier": [ {
        "use": "temp",
        "system": "urn:oid:2.16.840.1.113883.4.4",
        "value": "21-3259825"
      } ],
      "active": true,
      "type": [ {
        "coding": [ {
          "system": "http://terminology.hl7.org/CodeSystem/organization-type",
          "code": "pay",
          "display": "Payer"
        } ]
      } ],
      "name": "Blue Cross Blue Shield of Texas",
      "telecom": [ {
        "system": "phone",
        "value": "(+1) 972-766-6900"
      } ],
      "address": [ {
        "use": "billing",
        "type": "postal",
        "line": [ "P.O. Box 660044" ],
        "city": "Dallas",
        "state": "TX",
        "postalCode": "75266-0044",
        "country": "USA"
      } ]
    },
    "request": {
      "method": "PUT",
      "url": "Organization/21aa3935-10f1-4b68-bd02-6012b9ca7b3e"
    }
  }, {
    "fullUrl": "https://madie.cms.gov/Practitioner/d4a6951a-bb29-4ca3-abaf-9bc429530aed",
    "resource": {
      "resourceType": "Practitioner",
      "id": "d4a6951a-bb29-4ca3-abaf-9bc429530aed",
      "meta": {
        "profile": [ "http://hl7.org/fhir/us/qicore/StructureDefinition/qicore-practitioner" ]
      },
      "identifier": [ {
        "system": "http://hl7.org/fhir/sid/us-npi",
        "value": "123456"
      } ],
      "name": [ {
        "family": "Evil",
        "prefix": [ "Dr" ]
      } ]
    },
    "request": {
      "method": "PUT",
      "url": "Practitioner/d4a6951a-bb29-4ca3-abaf-9bc429530aed"
    }
  }, {
    "fullUrl": "https://madie.cms.gov/MeasureReport/098911c6-a81a-48c0-8879-cdf488b57fca",
    "resource": {
      "resourceType": "MeasureReport",
      "id": "098911c6-a81a-48c0-8879-cdf488b57fca",
      "meta": {
        "profile": [ "http://hl7.org/fhir/us/cqfmeasures/StructureDefinition/test-case-cqfm" ]
      },
      "contained": [ {
        "resourceType": "Parameters",
        "id": "49189631-87f6-4f55-8ea6-693916e5ab8b-parameters",
        "parameter": [ {
          "name": "subject",
          "valueString": "925a689c-440c-409d-b256-b0046a43cc6d"
        } ]
      } ],
      "extension": [ {
        "url": "http://hl7.org/fhir/StructureDefinition/cqf-inputParameters",
        "valueReference": {
          "reference": "#49189631-87f6-4f55-8ea6-693916e5ab8b-parameters"
        }
      }, {
        "url": "http://hl7.org/fhir/us/cqfmeasures/StructureDefinition/cqfm-testCaseDescription",
        "valueMarkdown": "Patient with depression and suicide risk assessment during psychotherapy encounter using relevantDatetime"
      } ],
      "modifierExtension": [ {
        "url": "http://hl7.org/fhir/us/cqfmeasures/StructureDefinition/cqfm-isTestCase",
        "valueBoolean": true
      } ],
      "status": "complete",
      "type": "individual",
      "measure": "https://madie.cms.gov/Measure/CMS177FHIRChildMDDSuicideAssmt",
      "period": {
        "start": "2026-01-01",
        "end": "2026-12-31"
      },
      "group": [ {
        "id": "Group_1",
        "population": [ {
          "id": "InitialPopulation_1",
          "code": {
            "coding": [ {
              "system": "http://terminology.hl7.org/CodeSystem/measure-population",
              "code": "initial-population",
              "display": "Initial Population"
            } ]
          },
          "count": 1
        }, {
          "id": "Denominator_1",
          "code": {
            "coding": [ {
              "system": "http://terminology.hl7.org/CodeSystem/measure-population",
              "code": "denominator",
              "display": "Denominator"
            } ]
          },
          "count": 1
        }, {
          "id": "Numerator_1",
          "code": {
            "coding": [ {
              "system": "http://terminology.hl7.org/CodeSystem/measure-population",
              "code": "numerator",
              "display": "Numerator"
            } ]
          },
          "count": 1
        } ],
        "measureScore": {
          "value": 0.0
        }
      } ],
      "evaluatedResource": [ {
        "reference": "Patient/925a689c-440c-409d-b256-b0046a43cc6d"
      }, {
        "reference": "Encounter/27a3fe7f-f924-454d-83e4-5b12e0271393"
      }, {
        "reference": "Procedure/f46bc2cb-e5a9-44b3-a985-ba89454df64c"
      }, {
        "reference": "Condition/cdeb456c-3911-4a49-89ff-995521df8d94"
      }, {
        "reference": "Coverage/662bfd65-9500-489b-88f6-4dcc5e816bbc"
      }, {
        "reference": "Organization/21aa3935-10f1-4b68-bd02-6012b9ca7b3e"
      }, {
        "reference": "Practitioner/d4a6951a-bb29-4ca3-abaf-9bc429530aed"
      } ]
    },
    "request": {
      "method": "PUT",
      "url": "MeasureReport/098911c6-a81a-48c0-8879-cdf488b57fca"
    }
  } ]
}