{
  "resourceType": "Bundle",
  "id": "63487c2e0968f80122540166",
  "type": "transaction",
  "entry": [ {
    "fullUrl": "https://madie.cms.gov/Patient/85099d00-576e-495a-97de-b1cd5d4377cf",
    "resource": {
      "resourceType": "Patient",
      "id": "85099d00-576e-495a-97de-b1cd5d4377cf",
      "meta": {
        "profile": [ "http://hl7.org/fhir/us/qicore/StructureDefinition/qicore-patient" ]
      },
      "text": {
        "status": "generated",
        "div": "<div xmlns=\"http://www.w3.org/1999/xhtml\"><div class=\"hapiHeaderText\">AssessP0RelDateTime42wk1MinB4TimeOfDelivTime <b>DENOMFail</b></div><table class=\"hapiPropertyTable\"><tbody><tr><td>Identifier</td><td>a4f89b063325e93d9c0619322ab83006b1a8a4bc33d4a91258dd77ce8e032520</td></tr><tr><td>Date of birth</td><td><span>14 February 1985</span></td></tr></tbody></table></div>"
      },
      "extension": [ {
        "url": "http://hl7.org/fhir/us/core/StructureDefinition/us-core-race",
        "extension": [ {
          "url": "ombCategory",
          "valueCoding": {
            "system": "urn:oid:2.16.840.1.113883.6.238",
            "code": "1002-5",
            "display": "American Indian or Alaska Native",
            "userSelected": true
          }
        }, {
          "url": "text",
          "valueString": "American Indian or Alaska Native"
        } ]
      }, {
        "url": "http://hl7.org/fhir/us/core/StructureDefinition/us-core-ethnicity",
        "extension": [ {
          "url": "ombCategory",
          "valueCoding": {
            "system": "urn:oid:2.16.840.1.113883.6.238",
            "code": "2135-2",
            "display": "Hispanic or Latino",
            "userSelected": true
          }
        }, {
          "url": "text",
          "valueString": "Hispanic or Latino"
        } ]
      } ],
      "identifier": [ {
        "type": {
          "coding": [ {
            "system": "http://terminology.hl7.org/CodeSystem/v2-0203",
            "code": "MR"
          } ]
        },
        "system": "https://bonnie-fhir.healthit.gov/",
        "value": "63487c2e0968f80122540166"
      } ],
      "active": true,
      "name": [ {
        "use": "usual",
        "family": "DENOMFail",
        "given": [ "AssessP0RelDateTime42wk1MinB4TimeOfDelivTime" ]
      } ],
      "gender": "female",
      "birthDate": "1998-02-14"
    },
    "request": {
      "method": "PUT",
      "url": "Patient/85099d00-576e-495a-97de-b1cd5d4377cf"
    }
  }, {
    "fullUrl": "https://madie.cms.gov/Observation/d37c1d79-3527-4208-b43e-255df6e7b596",
    "resource": {
      "resourceType": "Observation",
      "id": "d37c1d79-3527-4208-b43e-255df6e7b596",
      "meta": {
        "profile": [ "http://hl7.org/fhir/us/qicore/StructureDefinition/qicore-simple-observation" ]
      },
      "status": "final",
      "category": [ {
        "coding": [ {
          "system": "http://terminology.hl7.org/CodeSystem/observation-category",
          "code": "exam",
          "display": "exam",
          "userSelected": true
        } ]
      } ],
      "code": {
        "coding": [ {
          "system": "http://loinc.org",
          "code": "11977-6"
        } ]
      },
      "subject": {
        "reference": "Patient/85099d00-576e-495a-97de-b1cd5d4377cf"
      },
      "effectiveDateTime": "2012-08-19T19:59:00.000+00:00",
      "valueInteger": 0
    },
    "request": {
      "method": "PUT",
      "url": "Observation/d37c1d79-3527-4208-b43e-255df6e7b596"
    }
  }, {
    "fullUrl": "https://madie.cms.gov/Observation/4fbb3416-c6e0-4e26-952e-0ac4c1745396",
    "resource": {
      "resourceType": "Observation",
      "id": "4fbb3416-c6e0-4e26-952e-0ac4c1745396",
      "meta": {
        "profile": [ "http://hl7.org/fhir/us/qicore/StructureDefinition/qicore-simple-observation" ]
      },
      "status": "final",
      "category": [ {
        "coding": [ {
          "system": "http://terminology.hl7.org/CodeSystem/observation-category",
          "code": "exam",
          "display": "exam",
          "userSelected": true
        } ]
      } ],
      "code": {
        "coding": [ {
          "system": "http://loinc.org",
          "code": "11884-4"
        } ]
      },
      "subject": {
        "reference": "Patient/85099d00-576e-495a-97de-b1cd5d4377cf"
      },
      "effectiveDateTime": "2026-06-08T20:00:00.000+00:00",
      "valueQuantity": {
        "value": 37,
        "system": "http://unitsofmeasure.org",
        "code": "wk"
      }
    },
    "request": {
      "method": "PUT",
      "url": "Observation/4fbb3416-c6e0-4e26-952e-0ac4c1745396"
    }
  }, {
    "fullUrl": "https://madie.cms.gov/Observation/5884e602-7f22-4c26-912a-e5dbab213d8a",
    "resource": {
      "resourceType": "Observation",
      "id": "5884e602-7f22-4c26-912a-e5dbab213d8a",
      "meta": {
        "profile": [ "http://hl7.org/fhir/us/qicore/StructureDefinition/qicore-simple-observation" ]
      },
      "status": "final",
      "category": [ {
        "coding": [ {
          "system": "http://terminology.hl7.org/CodeSystem/observation-category",
          "code": "exam",
          "display": "exam",
          "userSelected": true
        } ]
      } ],
      "code": {
        "coding": [ {
          "system": "http://loinc.org",
          "code": "93857-1"
        } ]
      },
      "subject": {
        "reference": "Patient/85099d00-576e-495a-97de-b1cd5d4377cf"
      },
      "effectiveDateTime": "2026-06-08T20:00:00.000+00:00",
      "valueDateTime": "2026-06-08T20:00:00.000+00:00"
    },
    "request": {
      "method": "PUT",
      "url": "Observation/5884e602-7f22-4c26-912a-e5dbab213d8a"
    }
  }, {
    "fullUrl": "https://madie.cms.gov/Encounter/0a0438c7-c0a4-403e-98ba-ae6bad0498d9",
    "resource": {
      "resourceType": "Encounter",
      "id": "0a0438c7-c0a4-403e-98ba-ae6bad0498d9",
      "meta": {
        "profile": [ "http://hl7.org/fhir/us/qicore/StructureDefinition/qicore-encounter" ]
      },
      "status": "finished",
      "class": {
        "system": "http://terminology.hl7.org/CodeSystem/v3-ActCode",
        "code": "IMP",
        "display": "inpatient encounter"
      },
      "type": [ {
        "coding": [ {
          "system": "http://snomed.info/sct",
          "code": "8715000"
        } ]
      } ],
      "subject": {
        "reference": "Patient/85099d00-576e-495a-97de-b1cd5d4377cf"
      },
      "period": {
        "start": "2026-06-08T08:00:00.000+00:00",
        "end": "2026-06-10T08:15:00.000+00:00"
      },
      "length": {
        "value": 2,
        "unit": "days"
      },
      "reasonReference": [ {
        "reference": "Condition/8b9ae609-74fe-4abf-8434-ed91f576707b"
      } ]
    },
    "request": {
      "method": "PUT",
      "url": "Encounter/0a0438c7-c0a4-403e-98ba-ae6bad0498d9"
    }
  }, {
    "fullUrl": "https://madie.cms.gov/Procedure/cd03d174-7f1d-4fdc-b4db-a3ef1b543cb4",
    "resource": {
      "resourceType": "Procedure",
      "id": "cd03d174-7f1d-4fdc-b4db-a3ef1b543cb4",
      "meta": {
        "profile": [ "http://hl7.org/fhir/us/qicore/StructureDefinition/qicore-procedure" ]
      },
      "extension": [ {
        "url": "http://hl7.org/fhir/us/qicore/StructureDefinition/qicore-recorded",
        "valueDateTime": "2014-04-05T13:35:00.000+00:00"
      } ],
      "status": "completed",
      "code": {
        "coding": [ {
          "system": "http://www.cms.gov/Medicare/Coding/ICD10",
          "code": "10D00Z0"
        }, {
          "system": "http://snomed.info/sct",
          "code": "4504004"
        } ]
      },
      "subject": {
        "reference": "Patient/85099d00-576e-495a-97de-b1cd5d4377cf"
      },
      "performedPeriod": {
        "start": "2026-06-08T20:00:00.000+00:00",
        "end": "2026-06-08T20:15:00.000+00:00"
      }
    },
    "request": {
      "method": "PUT",
      "url": "Procedure/cd03d174-7f1d-4fdc-b4db-a3ef1b543cb4"
    }
  }, {
    "fullUrl": "https://madie.cms.gov/Condition/8b9ae609-74fe-4abf-8434-ed91f576707b",
    "resource": {
      "resourceType": "Condition",
      "id": "8b9ae609-74fe-4abf-8434-ed91f576707b",
      "meta": {
        "profile": [ "http://hl7.org/fhir/us/qicore/StructureDefinition/qicore-condition-encounter-diagnosis" ]
      },
      "category": [ {
        "coding": [ {
          "system": "http://terminology.hl7.org/CodeSystem/condition-category",
          "code": "encounter-diagnosis",
          "display": "Encounter Diagnosis"
        } ]
      } ],
      "code": {
        "coding": [ {
          "system": "http://snomed.info/sct",
          "version": "2022-09",
          "code": "169826009",
          "display": "Single live birth from singleton pregnancy (finding)",
          "userSelected": true
        } ]
      },
      "subject": {
        "reference": "Patient/85099d00-576e-495a-97de-b1cd5d4377cf"
      },
      "encounter": {
        "reference": "Encounter/0a0438c7-c0a4-403e-98ba-ae6bad0498d9"
      },
      "recordedDate": "2026-10-21T08:00:00.000+00:00"
    },
    "request": {
      "method": "PUT",
      "url": "Condition/8b9ae609-74fe-4abf-8434-ed91f576707b"
    }
  }, {
    "fullUrl": "https://madie.cms.gov/Coverage/0471e76c-818a-415b-bf16-aa35dc024ee5",
    "resource": {
      "resourceType": "Coverage",
      "id": "0471e76c-818a-415b-bf16-aa35dc024ee5",
      "meta": {
        "profile": [ "http://hl7.org/fhir/us/qicore/StructureDefinition/qicore-coverage" ]
      },
      "status": "active",
      "subscriberId": "523435",
      "beneficiary": {
        "reference": "Patient/85099d00-576e-495a-97de-b1cd5d4377cf"
      },
      "relationship": {
        "coding": [ {
          "system": "http://terminology.hl7.org/CodeSystem/subscriber-relationship",
          "code": "self"
        } ]
      },
      "payor": [ {
        "reference": "Organization/68923164-7ac0-43a0-80dd-c3004585b0cd"
      } ]
    },
    "request": {
      "method": "PUT",
      "url": "Coverage/0471e76c-818a-415b-bf16-aa35dc024ee5"
    }
  }, {
    "fullUrl": "https://madie.cms.gov/Organization/68923164-7ac0-43a0-80dd-c3004585b0cd",
    "resource": {
      "resourceType": "Organization",
      "id": "68923164-7ac0-43a0-80dd-c3004585b0cd",
      "meta": {
        "profile": [ "http://hl7.org/fhir/us/qicore/StructureDefinition/qicore-organization" ]
      },
      "identifier": [ {
        "use": "temp",
        "system": "urn:oid:2.16.840.1.113883.4.4",
        "value": "21-3259825"
      } ],
      "active": true,
      "type": [ {
        "coding": [ {
          "system": "http://terminology.hl7.org/CodeSystem/organization-type",
          "code": "pay",
          "display": "Payer"
        } ]
      } ],
      "name": "Blue Cross Blue Shield of Texas",
      "telecom": [ {
        "system": "phone",
        "value": "(+1) 972-766-6900"
      } ],
      "address": [ {
        "use": "billing",
        "type": "postal",
        "line": [ "P.O. Box 660044" ],
        "city": "Dallas",
        "state": "TX",
        "postalCode": "75266-0044",
        "country": "USA"
      } ]
    },
    "request": {
      "method": "PUT",
      "url": "Organization/68923164-7ac0-43a0-80dd-c3004585b0cd"
    }
  }, {
    "fullUrl": "https://madie.cms.gov/Practitioner/7860615c-37ae-45b2-9e9d-33734219d7c2",
    "resource": {
      "resourceType": "Practitioner",
      "id": "7860615c-37ae-45b2-9e9d-33734219d7c2",
      "meta": {
        "profile": [ "http://hl7.org/fhir/us/qicore/StructureDefinition/qicore-practitioner" ]
      },
      "identifier": [ {
        "system": "http://hl7.org/fhir/sid/us-npi",
        "value": "1234567890"
      } ],
      "name": [ {
        "family": "Evil",
        "prefix": [ "Dr" ]
      } ]
    },
    "request": {
      "method": "PUT",
      "url": "Practitioner/7860615c-37ae-45b2-9e9d-33734219d7c2"
    }
  }, {
    "fullUrl": "https://madie.cms.gov/MeasureReport/7b052090-a94b-46c3-b6f8-1d1eade12f21",
    "resource": {
      "resourceType": "MeasureReport",
      "id": "7b052090-a94b-46c3-b6f8-1d1eade12f21",
      "meta": {
        "profile": [ "http://hl7.org/fhir/us/cqfmeasures/StructureDefinition/test-case-cqfm" ]
      },
      "contained": [ {
        "resourceType": "Parameters",
        "id": "43dad318-e1d4-4175-b9cf-2022362240c6-parameters",
        "parameter": [ {
          "name": "subject",
          "valueString": "85099d00-576e-495a-97de-b1cd5d4377cf"
        } ]
      } ],
      "extension": [ {
        "url": "http://hl7.org/fhir/StructureDefinition/cqf-inputParameters",
        "valueReference": {
          "reference": "#43dad318-e1d4-4175-b9cf-2022362240c6-parameters"
        }
      }, {
        "url": "http://hl7.org/fhir/us/cqfmeasures/StructureDefinition/cqfm-testCaseDescription",
        "valueMarkdown": "Parity=0, Rel date/time before 42 weeks 1min prior to delivery  date/time.  \n"
      } ],
      "modifierExtension": [ {
        "url": "http://hl7.org/fhir/us/cqfmeasures/StructureDefinition/cqfm-isTestCase",
        "valueBoolean": true
      } ],
      "status": "complete",
      "type": "individual",
      "measure": "https://madie.cms.gov/Measure/CMS0334FHIRPCCesareanBirth",
      "period": {
        "start": "2026-01-01",
        "end": "2026-12-31"
      },
      "group": [ {
        "id": "Group_1",
        "population": [ {
          "id": "InitialPopulation_1",
          "code": {
            "coding": [ {
              "system": "http://terminology.hl7.org/CodeSystem/measure-population",
              "code": "initial-population",
              "display": "Initial Population"
            } ]
          },
          "count": 1
        }, {
          "id": "Denominator_1",
          "code": {
            "coding": [ {
              "system": "http://terminology.hl7.org/CodeSystem/measure-population",
              "code": "denominator",
              "display": "Denominator"
            } ]
          },
          "count": 0
        }, {
          "id": "DenominatorExclusion_1",
          "code": {
            "coding": [ {
              "system": "http://terminology.hl7.org/CodeSystem/measure-population",
              "code": "denominator-exclusion",
              "display": "Denominator Exclusion"
            } ]
          },
          "count": 0
        }, {
          "id": "Numerator_1",
          "code": {
            "coding": [ {
              "system": "http://terminology.hl7.org/CodeSystem/measure-population",
              "code": "numerator",
              "display": "Numerator"
            } ]
          },
          "count": 0
        } ],
        "measureScore": {
          "value": 0.0
        }
      } ],
      "evaluatedResource": [ {
        "reference": "Patient/85099d00-576e-495a-97de-b1cd5d4377cf"
      }, {
        "reference": "Observation/d37c1d79-3527-4208-b43e-255df6e7b596"
      }, {
        "reference": "Observation/4fbb3416-c6e0-4e26-952e-0ac4c1745396"
      }, {
        "reference": "Observation/5884e602-7f22-4c26-912a-e5dbab213d8a"
      }, {
        "reference": "Encounter/0a0438c7-c0a4-403e-98ba-ae6bad0498d9"
      }, {
        "reference": "Procedure/cd03d174-7f1d-4fdc-b4db-a3ef1b543cb4"
      }, {
        "reference": "Condition/8b9ae609-74fe-4abf-8434-ed91f576707b"
      }, {
        "reference": "Coverage/0471e76c-818a-415b-bf16-aa35dc024ee5"
      }, {
        "reference": "Organization/68923164-7ac0-43a0-80dd-c3004585b0cd"
      }, {
        "reference": "Practitioner/7860615c-37ae-45b2-9e9d-33734219d7c2"
      } ]
    },
    "request": {
      "method": "PUT",
      "url": "MeasureReport/7b052090-a94b-46c3-b6f8-1d1eade12f21"
    }
  } ]
}