{
  "resourceType": "Bundle",
  "id": "63487c2d0968f80122540148",
  "type": "transaction",
  "entry": [ {
    "fullUrl": "https://madie.cms.gov/Patient/213cfa17-45e4-4a27-8f69-6e29a40fd803",
    "resource": {
      "resourceType": "Patient",
      "id": "213cfa17-45e4-4a27-8f69-6e29a40fd803",
      "meta": {
        "profile": [ "http://hl7.org/fhir/us/qicore/StructureDefinition/qicore-patient" ]
      },
      "text": {
        "status": "generated",
        "div": "<div xmlns=\"http://www.w3.org/1999/xhtml\"><div class=\"hapiHeaderText\">AgeLT8<b>IPOPFail</b></div><table class=\"hapiPropertyTable\"><tbody><tr><td>Identifier</td><td>5de8faa62ce8d02e536ae8f9871c680ddfb3801eebe589f1938c81dd0173f1aa</td></tr><tr><td>Date of birth</td><td><span>14 February 2005</span></td></tr></tbody></table></div>"
      },
      "extension": [ {
        "url": "http://hl7.org/fhir/us/core/StructureDefinition/us-core-race",
        "extension": [ {
          "url": "ombCategory",
          "valueCoding": {
            "system": "urn:oid:2.16.840.1.113883.6.238",
            "code": "1002-5",
            "display": "American Indian or Alaska Native",
            "userSelected": true
          }
        }, {
          "url": "text",
          "valueString": "American Indian or Alaska Native"
        } ]
      }, {
        "url": "http://hl7.org/fhir/us/core/StructureDefinition/us-core-ethnicity",
        "extension": [ {
          "url": "ombCategory",
          "valueCoding": {
            "system": "urn:oid:2.16.840.1.113883.6.238",
            "code": "2135-2",
            "display": "Hispanic or Latino",
            "userSelected": true
          }
        }, {
          "url": "text",
          "valueString": "Hispanic or Latino"
        } ]
      } ],
      "identifier": [ {
        "type": {
          "coding": [ {
            "system": "http://terminology.hl7.org/CodeSystem/v2-0203",
            "code": "MR"
          } ]
        },
        "system": "https://bonnie-fhir.healthit.gov/",
        "value": "63487c2d0968f80122540148"
      } ],
      "active": true,
      "name": [ {
        "use": "usual",
        "family": "IPOPFail",
        "given": [ "AgeLT8" ]
      } ],
      "gender": "female",
      "birthDate": "2019-02-14"
    },
    "request": {
      "method": "PUT",
      "url": "Patient/213cfa17-45e4-4a27-8f69-6e29a40fd803"
    }
  }, {
    "fullUrl": "https://madie.cms.gov/Encounter/7b85da66-b0bb-4125-8efe-452753536956",
    "resource": {
      "resourceType": "Encounter",
      "id": "7b85da66-b0bb-4125-8efe-452753536956",
      "meta": {
        "profile": [ "http://hl7.org/fhir/us/qicore/StructureDefinition/qicore-encounter" ]
      },
      "status": "finished",
      "class": {
        "system": "http://terminology.hl7.org/CodeSystem/v3-ActCode",
        "code": "IMP",
        "display": "inpatient encounter"
      },
      "type": [ {
        "coding": [ {
          "system": "http://snomed.info/sct",
          "code": "8715000"
        } ]
      } ],
      "subject": {
        "reference": "Patient/213cfa17-45e4-4a27-8f69-6e29a40fd803"
      },
      "period": {
        "start": "2026-11-28T08:00:00.000+00:00",
        "end": "2026-11-30T08:15:00.000+00:00"
      },
      "length": {
        "value": 2,
        "unit": "days"
      },
      "reasonCode": [ {
        "coding": [ {
          "system": "http://snomed.info/sct",
          "code": "169826009",
          "display": "Single live birth from singleton pregnancy (finding)"
        } ]
      } ]
    },
    "request": {
      "method": "PUT",
      "url": "Encounter/7b85da66-b0bb-4125-8efe-452753536956"
    }
  }, {
    "fullUrl": "https://madie.cms.gov/Procedure/59d93587-62e6-45fb-bd2d-e7f85fbe0e74",
    "resource": {
      "resourceType": "Procedure",
      "id": "59d93587-62e6-45fb-bd2d-e7f85fbe0e74",
      "meta": {
        "profile": [ "http://hl7.org/fhir/us/qicore/StructureDefinition/qicore-procedure" ]
      },
      "extension": [ {
        "url": "http://hl7.org/fhir/us/qicore/StructureDefinition/qicore-recorded",
        "valueDateTime": "2014-04-05T13:35:00.000+00:00"
      } ],
      "status": "completed",
      "code": {
        "coding": [ {
          "system": "http://www.cms.gov/Medicare/Coding/ICD10",
          "code": "10D00Z0"
        } ]
      },
      "subject": {
        "reference": "Patient/213cfa17-45e4-4a27-8f69-6e29a40fd803"
      },
      "performedPeriod": {
        "start": "2026-11-28T20:00:00.000+00:00",
        "end": "2026-11-28T20:15:00.000+00:00"
      }
    },
    "request": {
      "method": "PUT",
      "url": "Procedure/59d93587-62e6-45fb-bd2d-e7f85fbe0e74"
    }
  }, {
    "fullUrl": "https://madie.cms.gov/Coverage/9170c5f6-0d22-4e11-aa44-7da265a8af25",
    "resource": {
      "resourceType": "Coverage",
      "id": "9170c5f6-0d22-4e11-aa44-7da265a8af25",
      "meta": {
        "profile": [ "http://hl7.org/fhir/us/qicore/StructureDefinition/qicore-coverage" ]
      },
      "status": "active",
      "subscriberId": "523435",
      "beneficiary": {
        "reference": "Patient/213cfa17-45e4-4a27-8f69-6e29a40fd803"
      },
      "relationship": {
        "coding": [ {
          "system": "http://terminology.hl7.org/CodeSystem/subscriber-relationship",
          "code": "self"
        } ]
      },
      "payor": [ {
        "reference": "Organization/f499845a-b026-4f5a-a7de-3bf2a5074149"
      } ]
    },
    "request": {
      "method": "PUT",
      "url": "Coverage/9170c5f6-0d22-4e11-aa44-7da265a8af25"
    }
  }, {
    "fullUrl": "https://madie.cms.gov/Organization/f499845a-b026-4f5a-a7de-3bf2a5074149",
    "resource": {
      "resourceType": "Organization",
      "id": "f499845a-b026-4f5a-a7de-3bf2a5074149",
      "meta": {
        "profile": [ "http://hl7.org/fhir/us/qicore/StructureDefinition/qicore-organization" ]
      },
      "identifier": [ {
        "use": "temp",
        "system": "urn:oid:2.16.840.1.113883.4.4",
        "value": "21-3259825"
      } ],
      "active": true,
      "type": [ {
        "coding": [ {
          "system": "http://terminology.hl7.org/CodeSystem/organization-type",
          "code": "pay",
          "display": "Payer"
        } ]
      } ],
      "name": "Blue Cross Blue Shield of Texas",
      "telecom": [ {
        "system": "phone",
        "value": "(+1) 972-766-6900"
      } ],
      "address": [ {
        "use": "billing",
        "type": "postal",
        "line": [ "P.O. Box 660044" ],
        "city": "Dallas",
        "state": "TX",
        "postalCode": "75266-0044",
        "country": "USA"
      } ]
    },
    "request": {
      "method": "PUT",
      "url": "Organization/f499845a-b026-4f5a-a7de-3bf2a5074149"
    }
  }, {
    "fullUrl": "https://madie.cms.gov/Practitioner/1a5a2216-aef5-4e82-8b72-f42037332b41",
    "resource": {
      "resourceType": "Practitioner",
      "id": "1a5a2216-aef5-4e82-8b72-f42037332b41",
      "meta": {
        "profile": [ "http://hl7.org/fhir/us/qicore/StructureDefinition/qicore-practitioner" ]
      },
      "identifier": [ {
        "system": "http://hl7.org/fhir/sid/us-npi",
        "value": "1234567890"
      } ],
      "name": [ {
        "family": "Evil",
        "prefix": [ "Dr" ]
      } ]
    },
    "request": {
      "method": "PUT",
      "url": "Practitioner/1a5a2216-aef5-4e82-8b72-f42037332b41"
    }
  }, {
    "fullUrl": "https://madie.cms.gov/MeasureReport/e11971e2-d033-4ab7-9c8b-2de8cdb4e4e9",
    "resource": {
      "resourceType": "MeasureReport",
      "id": "e11971e2-d033-4ab7-9c8b-2de8cdb4e4e9",
      "meta": {
        "profile": [ "http://hl7.org/fhir/us/cqfmeasures/StructureDefinition/test-case-cqfm" ]
      },
      "contained": [ {
        "resourceType": "Parameters",
        "id": "f767655c-ef02-401f-bb62-da53e65e3f26-parameters",
        "parameter": [ {
          "name": "subject",
          "valueString": "213cfa17-45e4-4a27-8f69-6e29a40fd803"
        } ]
      } ],
      "extension": [ {
        "url": "http://hl7.org/fhir/StructureDefinition/cqf-inputParameters",
        "valueReference": {
          "reference": "#f767655c-ef02-401f-bb62-da53e65e3f26-parameters"
        }
      }, {
        "url": "http://hl7.org/fhir/us/cqfmeasures/StructureDefinition/cqfm-testCaseDescription",
        "valueMarkdown": "age < 8 fail IPP,\n\n"
      } ],
      "modifierExtension": [ {
        "url": "http://hl7.org/fhir/us/cqfmeasures/StructureDefinition/cqfm-isTestCase",
        "valueBoolean": true
      } ],
      "status": "complete",
      "type": "individual",
      "measure": "https://madie.cms.gov/Measure/CMS0334FHIRPCCesareanBirth",
      "period": {
        "start": "2026-01-01",
        "end": "2026-12-31"
      },
      "group": [ {
        "id": "Group_1",
        "population": [ {
          "id": "InitialPopulation_1",
          "code": {
            "coding": [ {
              "system": "http://terminology.hl7.org/CodeSystem/measure-population",
              "code": "initial-population",
              "display": "Initial Population"
            } ]
          },
          "count": 0
        }, {
          "id": "Denominator_1",
          "code": {
            "coding": [ {
              "system": "http://terminology.hl7.org/CodeSystem/measure-population",
              "code": "denominator",
              "display": "Denominator"
            } ]
          },
          "count": 0
        }, {
          "id": "DenominatorExclusion_1",
          "code": {
            "coding": [ {
              "system": "http://terminology.hl7.org/CodeSystem/measure-population",
              "code": "denominator-exclusion",
              "display": "Denominator Exclusion"
            } ]
          },
          "count": 0
        }, {
          "id": "Numerator_1",
          "code": {
            "coding": [ {
              "system": "http://terminology.hl7.org/CodeSystem/measure-population",
              "code": "numerator",
              "display": "Numerator"
            } ]
          },
          "count": 0
        } ],
        "measureScore": {
          "value": 0.0
        }
      } ],
      "evaluatedResource": [ {
        "reference": "Patient/213cfa17-45e4-4a27-8f69-6e29a40fd803"
      }, {
        "reference": "Encounter/7b85da66-b0bb-4125-8efe-452753536956"
      }, {
        "reference": "Procedure/59d93587-62e6-45fb-bd2d-e7f85fbe0e74"
      }, {
        "reference": "Coverage/9170c5f6-0d22-4e11-aa44-7da265a8af25"
      }, {
        "reference": "Organization/f499845a-b026-4f5a-a7de-3bf2a5074149"
      }, {
        "reference": "Practitioner/1a5a2216-aef5-4e82-8b72-f42037332b41"
      } ]
    },
    "request": {
      "method": "PUT",
      "url": "MeasureReport/e11971e2-d033-4ab7-9c8b-2de8cdb4e4e9"
    }
  } ]
}