{
  "resourceType": "Bundle",
  "id": "633b3f9e0968f80122503cbd",
  "type": "transaction",
  "entry": [ {
    "fullUrl": "https://madie.cms.gov/Patient/0d5cd646-0816-4d3e-84df-d03e4a656e85",
    "resource": {
      "resourceType": "Patient",
      "id": "0d5cd646-0816-4d3e-84df-d03e4a656e85",
      "meta": {
        "profile": [ "http://hl7.org/fhir/us/qicore/StructureDefinition/qicore-patient" ]
      },
      "text": {
        "status": "generated",
        "div": "<div xmlns=\"http://www.w3.org/1999/xhtml\"><div class=\"hapiHeaderText\">Age8OnDayAftEncStart<b>IPFAIL</b></div><table class=\"hapiPropertyTable\"><tbody><tr><td>Date of birth</td><td><span>02 February 2004</span></td></tr></tbody></table></div>"
      },
      "extension": [ {
        "url": "http://hl7.org/fhir/us/core/StructureDefinition/us-core-race",
        "extension": [ {
          "url": "ombCategory",
          "valueCoding": {
            "system": "urn:oid:2.16.840.1.113883.6.238",
            "code": "1002-5",
            "display": "American Indian or Alaska Native",
            "userSelected": true
          }
        }, {
          "url": "text",
          "valueString": "American Indian or Alaska Native"
        } ]
      }, {
        "url": "http://hl7.org/fhir/us/core/StructureDefinition/us-core-ethnicity",
        "extension": [ {
          "url": "ombCategory",
          "valueCoding": {
            "system": "urn:oid:2.16.840.1.113883.6.238",
            "code": "2135-2",
            "display": "Hispanic or Latino",
            "userSelected": true
          }
        }, {
          "url": "text",
          "valueString": "Hispanic or Latino"
        } ]
      } ],
      "identifier": [ {
        "type": {
          "coding": [ {
            "system": "http://terminology.hl7.org/CodeSystem/v2-0203",
            "code": "MR"
          } ]
        },
        "system": "https://bonnie-fhir.healthit.gov/",
        "value": "633b3f9e0968f80122503cbd"
      } ],
      "active": true,
      "name": [ {
        "use": "usual",
        "family": "IPFail",
        "given": [ "Age8OnDayAftEncStart" ]
      } ],
      "gender": "female",
      "birthDate": "2018-02-02"
    },
    "request": {
      "method": "PUT",
      "url": "Patient/0d5cd646-0816-4d3e-84df-d03e4a656e85"
    }
  }, {
    "fullUrl": "https://madie.cms.gov/Encounter/223077d5-d1ef-4083-90ef-13e7c0e877ea",
    "resource": {
      "resourceType": "Encounter",
      "id": "223077d5-d1ef-4083-90ef-13e7c0e877ea",
      "meta": {
        "profile": [ "http://hl7.org/fhir/us/qicore/StructureDefinition/qicore-encounter" ]
      },
      "status": "finished",
      "class": {
        "system": "http://terminology.hl7.org/CodeSystem/v3-ActCode",
        "code": "IMP",
        "display": "inpatient encounter"
      },
      "type": [ {
        "coding": [ {
          "system": "http://snomed.info/sct",
          "code": "183452005"
        } ]
      } ],
      "subject": {
        "reference": "Patient/0d5cd646-0816-4d3e-84df-d03e4a656e85"
      },
      "period": {
        "start": "2026-02-01T08:00:00.000+00:00",
        "end": "2026-02-05T08:15:00.000+00:00"
      }
    },
    "request": {
      "method": "PUT",
      "url": "Encounter/223077d5-d1ef-4083-90ef-13e7c0e877ea"
    }
  }, {
    "fullUrl": "https://madie.cms.gov/Procedure/ebfa894b-1a8e-4ddb-9776-b147d526420c",
    "resource": {
      "resourceType": "Procedure",
      "id": "ebfa894b-1a8e-4ddb-9776-b147d526420c",
      "meta": {
        "profile": [ "http://hl7.org/fhir/us/qicore/StructureDefinition/qicore-procedure" ]
      },
      "extension": [ {
        "url": "http://hl7.org/fhir/us/qicore/StructureDefinition/qicore-recorded",
        "valueDateTime": "2014-04-05T13:35:00.000+00:00"
      } ],
      "status": "completed",
      "code": {
        "coding": [ {
          "system": "http://snomed.info/sct",
          "code": "10745001"
        } ]
      },
      "subject": {
        "reference": "Patient/0d5cd646-0816-4d3e-84df-d03e4a656e85"
      },
      "performedPeriod": {
        "start": "2026-02-01T08:00:00.000+00:00",
        "end": "2026-02-05T08:15:00.000+00:00"
      }
    },
    "request": {
      "method": "PUT",
      "url": "Procedure/ebfa894b-1a8e-4ddb-9776-b147d526420c"
    }
  }, {
    "fullUrl": "https://madie.cms.gov/Coverage/76b2e3a7-5fba-48f1-8e17-038bbd77c6a0",
    "resource": {
      "resourceType": "Coverage",
      "id": "76b2e3a7-5fba-48f1-8e17-038bbd77c6a0",
      "meta": {
        "profile": [ "http://hl7.org/fhir/us/qicore/StructureDefinition/qicore-coverage" ]
      },
      "status": "active",
      "beneficiary": {
        "reference": "Patient/0d5cd646-0816-4d3e-84df-d03e4a656e85"
      },
      "payor": [ {
        "reference": "Organization/f6cb8e00-d955-436b-9e93-e239d2bdb836"
      } ]
    },
    "request": {
      "method": "PUT",
      "url": "Coverage/76b2e3a7-5fba-48f1-8e17-038bbd77c6a0"
    }
  }, {
    "fullUrl": "https://madie.cms.gov/Organization/f6cb8e00-d955-436b-9e93-e239d2bdb836",
    "resource": {
      "resourceType": "Organization",
      "id": "f6cb8e00-d955-436b-9e93-e239d2bdb836",
      "meta": {
        "profile": [ "http://hl7.org/fhir/us/qicore/StructureDefinition/qicore-organization" ]
      },
      "identifier": [ {
        "use": "temp",
        "system": "urn:oid:2.16.840.1.113883.4.4",
        "value": "21-3259825"
      } ],
      "active": true,
      "type": [ {
        "coding": [ {
          "system": "http://terminology.hl7.org/CodeSystem/organization-type",
          "code": "pay",
          "display": "Payer"
        } ]
      } ],
      "name": "Blue Cross Blue Shield of Texas",
      "telecom": [ {
        "system": "phone",
        "value": "(+1) 972-766-6900"
      } ],
      "address": [ {
        "use": "billing",
        "type": "postal",
        "line": [ "P.O. Box 660044" ],
        "city": "Dallas",
        "state": "TX",
        "postalCode": "75266-0044",
        "country": "USA"
      } ]
    },
    "request": {
      "method": "PUT",
      "url": "Organization/f6cb8e00-d955-436b-9e93-e239d2bdb836"
    }
  }, {
    "fullUrl": "https://madie.cms.gov/Practitioner/817348e7-c6d3-4d2a-bbb3-f7b1a34c6940",
    "resource": {
      "resourceType": "Practitioner",
      "id": "817348e7-c6d3-4d2a-bbb3-f7b1a34c6940",
      "identifier": [ {
        "system": "http://hl7.org/fhir/sid/us-npi",
        "value": "123456"
      } ],
      "name": [ {
        "family": "Evil",
        "prefix": [ "Dr" ]
      } ]
    },
    "request": {
      "method": "PUT",
      "url": "Practitioner/817348e7-c6d3-4d2a-bbb3-f7b1a34c6940"
    }
  }, {
    "fullUrl": "https://madie.cms.gov/MeasureReport/14f40e8d-acad-4202-b9e5-ecd2604c20e1",
    "resource": {
      "resourceType": "MeasureReport",
      "id": "14f40e8d-acad-4202-b9e5-ecd2604c20e1",
      "meta": {
        "profile": [ "http://hl7.org/fhir/us/cqfmeasures/StructureDefinition/test-case-cqfm" ]
      },
      "contained": [ {
        "resourceType": "Parameters",
        "id": "82678a8d-1cda-43b0-9f0b-325804ede551-parameters",
        "parameter": [ {
          "name": "subject",
          "valueString": "0d5cd646-0816-4d3e-84df-d03e4a656e85"
        } ]
      } ],
      "extension": [ {
        "url": "http://hl7.org/fhir/StructureDefinition/cqf-inputParameters",
        "valueReference": {
          "reference": "#82678a8d-1cda-43b0-9f0b-325804ede551-parameters"
        }
      }, {
        "url": "http://hl7.org/fhir/us/cqfmeasures/StructureDefinition/cqfm-testCaseDescription",
        "valueMarkdown": "Patient is 8 years of age on day after encounter start.\n"
      } ],
      "modifierExtension": [ {
        "url": "http://hl7.org/fhir/us/cqfmeasures/StructureDefinition/cqfm-isTestCase",
        "valueBoolean": true
      } ],
      "status": "complete",
      "type": "individual",
      "measure": "https://madie.cms.gov/Measure/CMS1028FHIRPCSevereOBComps",
      "period": {
        "start": "2026-01-01",
        "end": "2026-12-31"
      },
      "group": [ {
        "id": "Group_1",
        "population": [ {
          "id": "InitialPopulation_1",
          "code": {
            "coding": [ {
              "system": "http://terminology.hl7.org/CodeSystem/measure-population",
              "code": "initial-population",
              "display": "Initial Population"
            } ]
          },
          "count": 0
        }, {
          "id": "Denominator_1",
          "code": {
            "coding": [ {
              "system": "http://terminology.hl7.org/CodeSystem/measure-population",
              "code": "denominator",
              "display": "Denominator"
            } ]
          },
          "count": 0
        }, {
          "id": "Numerator_1",
          "code": {
            "coding": [ {
              "system": "http://terminology.hl7.org/CodeSystem/measure-population",
              "code": "numerator",
              "display": "Numerator"
            } ]
          },
          "count": 0
        }, {
          "id": "NumeratorExclusion_1",
          "code": {
            "coding": [ {
              "system": "http://terminology.hl7.org/CodeSystem/measure-population",
              "code": "numerator-exclusion",
              "display": "Numerator Exclusion"
            } ]
          },
          "count": 0
        } ],
        "measureScore": {
          "value": 0.0
        }
      }, {
        "id": "Group_2",
        "population": [ {
          "id": "InitialPopulation_2",
          "code": {
            "coding": [ {
              "system": "http://terminology.hl7.org/CodeSystem/measure-population",
              "code": "initial-population",
              "display": "Initial Population"
            } ]
          },
          "count": 0
        }, {
          "id": "Denominator_2",
          "code": {
            "coding": [ {
              "system": "http://terminology.hl7.org/CodeSystem/measure-population",
              "code": "denominator",
              "display": "Denominator"
            } ]
          },
          "count": 0
        }, {
          "id": "Numerator_2",
          "code": {
            "coding": [ {
              "system": "http://terminology.hl7.org/CodeSystem/measure-population",
              "code": "numerator",
              "display": "Numerator"
            } ]
          },
          "count": 0
        }, {
          "id": "NumeratorExclusion_2",
          "code": {
            "coding": [ {
              "system": "http://terminology.hl7.org/CodeSystem/measure-population",
              "code": "numerator-exclusion",
              "display": "Numerator Exclusion"
            } ]
          },
          "count": 0
        } ],
        "measureScore": {
          "value": 0.0
        }
      } ],
      "evaluatedResource": [ {
        "reference": "Patient/0d5cd646-0816-4d3e-84df-d03e4a656e85"
      }, {
        "reference": "Encounter/223077d5-d1ef-4083-90ef-13e7c0e877ea"
      }, {
        "reference": "Procedure/ebfa894b-1a8e-4ddb-9776-b147d526420c"
      }, {
        "reference": "Coverage/76b2e3a7-5fba-48f1-8e17-038bbd77c6a0"
      }, {
        "reference": "Organization/f6cb8e00-d955-436b-9e93-e239d2bdb836"
      }, {
        "reference": "Practitioner/817348e7-c6d3-4d2a-bbb3-f7b1a34c6940"
      } ]
    },
    "request": {
      "method": "PUT",
      "url": "MeasureReport/14f40e8d-acad-4202-b9e5-ecd2604c20e1"
    }
  } ]
}