{
  "resourceType": "Bundle",
  "id": "64e774b92e9f5b621ea08698",
  "type": "collection",
  "entry": [ {
    "fullUrl": "https://madie.cms.gov/Patient/e216b280-8e64-4b45-97dc-98011f39205a",
    "resource": {
      "resourceType": "Patient",
      "id": "e216b280-8e64-4b45-97dc-98011f39205a",
      "meta": {
        "profile": [ "http://hl7.org/fhir/us/qicore/StructureDefinition/qicore-patient" ]
      },
      "text": {
        "status": "generated",
        "div": "<div xmlns=\"http://www.w3.org/1999/xhtml\"><div class=\"hapiHeaderText\">Pt18AtEndOfMPGlaucomaOverlapsEnc <b>IPPPASS </b></div><table class=\"hapiPropertyTable\"><tbody><tr><td>Identifier</td><td>5acb67c60dbd9f474db3d5ce4da8c4ffe9af7a0275006cb1d348983f2da0a2b7</td></tr><tr><td>Date of birth</td><td><span>31 December 1993</span></td></tr></tbody></table></div>"
      },
      "extension": [ {
        "url": "http://hl7.org/fhir/us/core/StructureDefinition/us-core-race",
        "extension": [ {
          "url": "ombCategory",
          "valueCoding": {
            "system": "urn:oid:2.16.840.1.113883.6.238",
            "code": "1002-5",
            "display": "American Indian or Alaska Native",
            "userSelected": true
          }
        }, {
          "url": "text",
          "valueString": "American Indian or Alaska Native"
        } ]
      }, {
        "url": "http://hl7.org/fhir/us/core/StructureDefinition/us-core-ethnicity",
        "extension": [ {
          "url": "ombCategory",
          "valueCoding": {
            "system": "urn:oid:2.16.840.1.113883.6.238",
            "code": "2186-5",
            "display": "Not Hispanic or Latino",
            "userSelected": true
          }
        }, {
          "url": "text",
          "valueString": "Not Hispanic or Latino"
        } ]
      } ],
      "identifier": [ {
        "type": {
          "coding": [ {
            "system": "http://terminology.hl7.org/CodeSystem/v2-0203",
            "code": "MR"
          } ]
        },
        "system": "https://bonnie-fhir.healthit.gov/",
        "value": "64e774b92e9f5b621ea08698"
      } ],
      "active": true,
      "name": [ {
        "use": "usual",
        "family": "AAAPracticeIPPPass",
        "given": [ "MultipleEnc" ]
      } ],
      "gender": "female",
      "birthDate": "2006-01-01"
    }
  }, {
    "fullUrl": "https://madie.cms.gov/Condition/90cd3c65-e122-4e5a-a30d-e5c85e6197c7",
    "resource": {
      "resourceType": "Condition",
      "id": "90cd3c65-e122-4e5a-a30d-e5c85e6197c7",
      "meta": {
        "profile": [ "http://hl7.org/fhir/us/qicore/StructureDefinition/qicore-condition-problems-health-concerns" ]
      },
      "clinicalStatus": {
        "coding": [ {
          "system": "http://terminology.hl7.org/CodeSystem/condition-clinical",
          "code": "active",
          "display": "active",
          "userSelected": true
        } ]
      },
      "category": [ {
        "coding": [ {
          "system": "http://terminology.hl7.org/CodeSystem/condition-category",
          "code": "problem-list-item",
          "display": "Problem List Item"
        } ]
      } ],
      "code": {
        "coding": [ {
          "system": "http://snomed.info/sct",
          "version": "http://snomed.info/sct/731000124108/version/20250301",
          "code": "111513000"
        } ]
      },
      "subject": {
        "reference": "Patient/e216b280-8e64-4b45-97dc-98011f39205a"
      },
      "onsetDateTime": "2025-01-01T08:00:00.000+00:00"
    }
  }, {
    "fullUrl": "https://madie.cms.gov/Encounter/8de8a306-b214-4323-b329-ac5f7a7472dd",
    "resource": {
      "resourceType": "Encounter",
      "id": "8de8a306-b214-4323-b329-ac5f7a7472dd",
      "meta": {
        "profile": [ "http://hl7.org/fhir/us/qicore/StructureDefinition/qicore-encounter" ]
      },
      "status": "finished",
      "class": {
        "system": "http://terminology.hl7.org/CodeSystem/v3-ActCode",
        "code": "AMB",
        "display": "ambulatory",
        "userSelected": true
      },
      "type": [ {
        "coding": [ {
          "system": "http://www.ama-assn.org/go/cpt",
          "code": "99204"
        } ]
      } ],
      "subject": {
        "reference": "Patient/e216b280-8e64-4b45-97dc-98011f39205a"
      },
      "period": {
        "start": "2025-01-25T14:30:00.000+00:00",
        "end": "2025-01-25T14:30:00.000+00:00"
      },
      "length": {
        "value": 0.0,
        "unit": "days"
      }
    }
  }, {
    "fullUrl": "https://madie.cms.gov/Encounter/78ed51ab-15f5-4fa2-993a-1635a8a9e3ab",
    "resource": {
      "resourceType": "Encounter",
      "id": "78ed51ab-15f5-4fa2-993a-1635a8a9e3ab",
      "meta": {
        "profile": [ "http://hl7.org/fhir/us/qicore/StructureDefinition/qicore-encounter" ]
      },
      "status": "finished",
      "class": {
        "system": "http://terminology.hl7.org/CodeSystem/v3-ActCode",
        "code": "AMB",
        "display": "ambulatory",
        "userSelected": true
      },
      "type": [ {
        "coding": [ {
          "system": "http://snomed.info/sct",
          "version": "2021-09",
          "code": "209099002",
          "display": "History and physical examination with management of domiciliary or rest home patient (procedure)",
          "userSelected": true
        } ]
      } ],
      "subject": {
        "reference": "Patient/e216b280-8e64-4b45-97dc-98011f39205a"
      },
      "period": {
        "start": "2026-01-28T08:00:00.000+00:00",
        "end": "2026-01-28T08:15:00.000+00:00"
      },
      "length": {
        "value": 0.0,
        "unit": "days"
      }
    }
  }, {
    "fullUrl": "https://madie.cms.gov/Encounter/b0f629ba-2cef-4cf7-8da3-e2e01dd3ce78",
    "resource": {
      "resourceType": "Encounter",
      "id": "b0f629ba-2cef-4cf7-8da3-e2e01dd3ce78",
      "meta": {
        "profile": [ "http://hl7.org/fhir/us/qicore/StructureDefinition/qicore-encounter" ]
      },
      "status": "finished",
      "class": {
        "system": "http://terminology.hl7.org/CodeSystem/v3-ActCode",
        "code": "AMB",
        "display": "ambulatory",
        "userSelected": true
      },
      "type": [ {
        "coding": [ {
          "system": "http://snomed.info/sct",
          "version": "2021-09",
          "code": "448951000124107",
          "display": "Admission to observation unit (procedure)",
          "userSelected": true
        } ]
      } ],
      "subject": {
        "reference": "Patient/e216b280-8e64-4b45-97dc-98011f39205a"
      },
      "period": {
        "start": "2025-01-30T08:00:00.000+00:00",
        "end": "2025-01-30T08:15:00.000+00:00"
      },
      "length": {
        "value": 0.0,
        "unit": "days"
      }
    }
  }, {
    "fullUrl": "https://madie.cms.gov/Encounter/55127d9e-149a-4e21-b356-0411eca7d875",
    "resource": {
      "resourceType": "Encounter",
      "id": "55127d9e-149a-4e21-b356-0411eca7d875",
      "meta": {
        "profile": [ "http://hl7.org/fhir/us/qicore/StructureDefinition/qicore-encounter" ]
      },
      "status": "finished",
      "class": {
        "system": "http://terminology.hl7.org/CodeSystem/v3-ActCode",
        "code": "AMB",
        "display": "ambulatory",
        "userSelected": true
      },
      "type": [ {
        "coding": [ {
          "system": "http://snomed.info/sct",
          "version": "2021-09",
          "code": "281036007",
          "display": "Follow-up consultation (procedure)",
          "userSelected": true
        } ]
      } ],
      "subject": {
        "reference": "Patient/e216b280-8e64-4b45-97dc-98011f39205a"
      },
      "period": {
        "start": "2025-02-01T08:00:00.000+00:00",
        "end": "2025-02-01T08:15:00.000+00:00"
      },
      "length": {
        "value": 0.0,
        "unit": "days"
      }
    }
  }, {
    "fullUrl": "https://madie.cms.gov/Coverage/4b895ccb-20b5-4842-a9d5-6bcfdc8e6421",
    "resource": {
      "resourceType": "Coverage",
      "id": "4b895ccb-20b5-4842-a9d5-6bcfdc8e6421",
      "meta": {
        "profile": [ "http://hl7.org/fhir/us/qicore/StructureDefinition/qicore-coverage" ]
      },
      "status": "active",
      "subscriberId": "123456",
      "beneficiary": {
        "reference": "Patient/e216b280-8e64-4b45-97dc-98011f39205a"
      },
      "relationship": {
        "coding": [ {
          "system": "http://terminology.hl7.org/CodeSystem/subscriber-relationship",
          "code": "self",
          "display": "Self"
        } ]
      },
      "payor": [ {
        "reference": "Organization/d66fca83-1621-4001-94b0-8133c1f37023"
      } ]
    }
  }, {
    "fullUrl": "https://madie.cms.gov/Organization/d66fca83-1621-4001-94b0-8133c1f37023",
    "resource": {
      "resourceType": "Organization",
      "id": "d66fca83-1621-4001-94b0-8133c1f37023",
      "meta": {
        "profile": [ "http://hl7.org/fhir/us/qicore/StructureDefinition/qicore-organization" ]
      },
      "identifier": [ {
        "use": "temp",
        "system": "urn:oid:2.16.840.1.113883.4.4",
        "value": "21-3259825"
      } ],
      "active": true,
      "type": [ {
        "coding": [ {
          "system": "http://terminology.hl7.org/CodeSystem/organization-type",
          "code": "pay",
          "display": "Payer"
        } ]
      } ],
      "name": "Blue Cross Blue Shield of Texas",
      "telecom": [ {
        "system": "phone",
        "value": "(+1) 972-766-6900"
      } ],
      "address": [ {
        "use": "billing",
        "type": "postal",
        "line": [ "P.O. Box 660044" ],
        "city": "Dallas",
        "state": "TX",
        "postalCode": "75266-0044",
        "country": "USA"
      } ]
    }
  }, {
    "fullUrl": "https://madie.cms.gov/Practitioner/0d3f2e12-978d-4d0b-962e-be08a2e5cc41",
    "resource": {
      "resourceType": "Practitioner",
      "id": "0d3f2e12-978d-4d0b-962e-be08a2e5cc41",
      "meta": {
        "profile": [ "http://hl7.org/fhir/us/qicore/StructureDefinition/qicore-practitioner" ]
      },
      "identifier": [ {
        "system": "http://hl7.org/fhir/sid/us-npi",
        "value": "1689411712"
      } ],
      "name": [ {
        "family": "Evil",
        "prefix": [ "Dr" ]
      } ]
    }
  }, {
    "fullUrl": "https://madie.cms.gov/MeasureReport/05cc6301-8a37-48b9-a974-ef43f1f6ab0c",
    "resource": {
      "resourceType": "MeasureReport",
      "id": "05cc6301-8a37-48b9-a974-ef43f1f6ab0c",
      "meta": {
        "profile": [ "http://hl7.org/fhir/us/cqfmeasures/StructureDefinition/test-case-cqfm" ]
      },
      "contained": [ {
        "resourceType": "Parameters",
        "id": "7bac689c-6216-40b1-a396-ec57570f3703-parameters",
        "parameter": [ {
          "name": "subject",
          "valueString": "e216b280-8e64-4b45-97dc-98011f39205a"
        } ]
      } ],
      "extension": [ {
        "url": "http://hl7.org/fhir/StructureDefinition/cqf-inputParameters",
        "valueReference": {
          "reference": "#7bac689c-6216-40b1-a396-ec57570f3703-parameters"
        }
      }, {
        "url": "http://hl7.org/fhir/us/cqfmeasures/StructureDefinition/cqfm-testCaseDescription",
        "valueMarkdown": "Patient has multiple qualifying encounters "
      } ],
      "modifierExtension": [ {
        "url": "http://hl7.org/fhir/us/cqfmeasures/StructureDefinition/cqfm-isTestCase",
        "valueBoolean": true
      } ],
      "status": "complete",
      "type": "individual",
      "measure": "https://madie.cms.gov/Measure/CMS143FHIRPOAGOpticNerveEval",
      "period": {
        "start": "2026-01-01",
        "end": "2026-12-31"
      },
      "group": [ {
        "id": "Group_1",
        "population": [ {
          "id": "InitialPopulation_1",
          "code": {
            "coding": [ {
              "system": "http://terminology.hl7.org/CodeSystem/measure-population",
              "code": "initial-population",
              "display": "Initial Population"
            } ]
          },
          "count": 1
        }, {
          "id": "Denominator_1",
          "code": {
            "coding": [ {
              "system": "http://terminology.hl7.org/CodeSystem/measure-population",
              "code": "denominator",
              "display": "Denominator"
            } ]
          },
          "count": 1
        }, {
          "id": "Numerator_1",
          "code": {
            "coding": [ {
              "system": "http://terminology.hl7.org/CodeSystem/measure-population",
              "code": "numerator",
              "display": "Numerator"
            } ]
          },
          "count": 0
        }, {
          "id": "DenominatorException_1",
          "code": {
            "coding": [ {
              "system": "http://terminology.hl7.org/CodeSystem/measure-population",
              "code": "denominator-exception",
              "display": "Denominator Exception"
            } ]
          },
          "count": 0
        } ],
        "measureScore": {
          "value": 1.0
        }
      } ],
      "evaluatedResource": [ {
        "reference": "Patient/e216b280-8e64-4b45-97dc-98011f39205a"
      }, {
        "reference": "Condition/90cd3c65-e122-4e5a-a30d-e5c85e6197c7"
      }, {
        "reference": "Encounter/8de8a306-b214-4323-b329-ac5f7a7472dd"
      }, {
        "reference": "Encounter/78ed51ab-15f5-4fa2-993a-1635a8a9e3ab"
      }, {
        "reference": "Encounter/b0f629ba-2cef-4cf7-8da3-e2e01dd3ce78"
      }, {
        "reference": "Encounter/55127d9e-149a-4e21-b356-0411eca7d875"
      }, {
        "reference": "Coverage/4b895ccb-20b5-4842-a9d5-6bcfdc8e6421"
      }, {
        "reference": "Organization/d66fca83-1621-4001-94b0-8133c1f37023"
      }, {
        "reference": "Practitioner/0d3f2e12-978d-4d0b-962e-be08a2e5cc41"
      } ]
    }
  } ]
}