{
  "resourceType": "Bundle",
  "id": "4c608c06-c958-11ed-aa7e-325096b39f47",
  "type": "collection",
  "entry": [ {
    "fullUrl": "https://madie.cms.gov/Patient/6552cc29-c4e2-441f-9ae5-41d3a2f5aea4",
    "resource": {
      "resourceType": "Patient",
      "id": "6552cc29-c4e2-441f-9ae5-41d3a2f5aea4",
      "meta": {
        "profile": [ "http://hl7.org/fhir/us/qicore/StructureDefinition/qicore-patient" ]
      },
      "extension": [ {
        "url": "http://hl7.org/fhir/us/core/StructureDefinition/us-core-race",
        "extension": [ {
          "url": "ombCategory",
          "valueCoding": {
            "system": "urn:oid:2.16.840.1.113883.6.238",
            "code": "2054-5",
            "display": "Black or African American"
          }
        }, {
          "url": "text",
          "valueString": "Black or African American"
        } ]
      }, {
        "url": "http://hl7.org/fhir/us/core/StructureDefinition/us-core-ethnicity",
        "extension": [ {
          "url": "ombCategory",
          "valueCoding": {
            "system": "urn:oid:2.16.840.1.113883.6.238",
            "code": "2186-5",
            "display": "Not Hispanic or Latino",
            "userSelected": true
          }
        }, {
          "url": "text",
          "valueString": "Not Hispanic or Latino"
        } ]
      }, {
        "url": "http://hl7.org/fhir/us/core/StructureDefinition/us-core-sex",
        "valueCode": "248153007"
      } ],
      "identifier": [ {
        "type": {
          "coding": [ {
            "system": "http://terminology.hl7.org/CodeSystem/v2-0203",
            "code": "MR"
          } ]
        },
        "system": "http://myGoodHealth.com",
        "value": "900082319426"
      } ],
      "name": [ {
        "family": "DENEXFail",
        "given": [ "BPHDxInHospitalEncGT30DaysAfterEnc" ]
      } ],
      "gender": "male",
      "birthDate": "1979-01-05"
    }
  }, {
    "fullUrl": "https://madie.cms.gov/Encounter/d6f8cd67-e258-4c54-b0f7-e11fe6739429",
    "resource": {
      "resourceType": "Encounter",
      "id": "d6f8cd67-e258-4c54-b0f7-e11fe6739429",
      "meta": {
        "profile": [ "http://hl7.org/fhir/us/qicore/StructureDefinition/qicore-encounter" ]
      },
      "status": "finished",
      "class": {
        "system": "http://terminology.hl7.org/CodeSystem/v3-ActCode",
        "code": "AMB",
        "display": "ambulatory"
      },
      "type": [ {
        "coding": [ {
          "system": "http://snomed.info/sct",
          "version": "http://snomed.info/sct/731000124108/version/20240301",
          "code": "185463005",
          "display": "Visit out of hours (procedure)",
          "userSelected": true
        } ]
      } ],
      "subject": {
        "reference": "Patient/6552cc29-c4e2-441f-9ae5-41d3a2f5aea4"
      },
      "period": {
        "start": "2026-05-01T08:00:00.000+00:00",
        "end": "2026-05-01T08:30:00.000+00:00"
      }
    }
  }, {
    "fullUrl": "https://madie.cms.gov/Encounter/eef72e42-be40-4550-808e-e2a6cda825de",
    "resource": {
      "resourceType": "Encounter",
      "id": "eef72e42-be40-4550-808e-e2a6cda825de",
      "meta": {
        "profile": [ "http://hl7.org/fhir/us/qicore/StructureDefinition/qicore-encounter" ]
      },
      "status": "finished",
      "class": {
        "system": "http://terminology.hl7.org/CodeSystem/v3-ActCode",
        "code": "IMP",
        "display": "inpatient encounter"
      },
      "type": [ {
        "coding": [ {
          "system": "http://www.ama-assn.org/go/cpt",
          "version": "2024",
          "code": "99223",
          "display": "Initial hospital inpatient or observation care, per day, for the evaluation and management of a patient, which requires a medically appropriate history and/or examination and high level of medical decision making. When using total time on the date of the encounter for code selection, 75 minutes must be met or exceeded.",
          "userSelected": true
        } ]
      } ],
      "subject": {
        "reference": "Patient/6552cc29-c4e2-441f-9ae5-41d3a2f5aea4"
      },
      "period": {
        "start": "2025-10-01T08:00:00.000+00:00",
        "end": "2025-10-05T08:30:00.000+00:00"
      }
    }
  }, {
    "fullUrl": "https://madie.cms.gov/Condition/41ec3bb7-1362-4a96-aa5d-9f2c072728cf",
    "resource": {
      "resourceType": "Condition",
      "id": "41ec3bb7-1362-4a96-aa5d-9f2c072728cf",
      "meta": {
        "profile": [ "http://hl7.org/fhir/us/qicore/StructureDefinition/qicore-condition-encounter-diagnosis" ]
      },
      "clinicalStatus": {
        "coding": [ {
          "system": "http://terminology.hl7.org/CodeSystem/condition-clinical",
          "code": "active",
          "display": "active",
          "userSelected": true
        } ]
      },
      "verificationStatus": {
        "coding": [ {
          "system": "http://terminology.hl7.org/CodeSystem/condition-ver-status",
          "code": "confirmed",
          "display": "Confirmed",
          "userSelected": true
        } ]
      },
      "category": [ {
        "coding": [ {
          "system": "http://terminology.hl7.org/CodeSystem/condition-category",
          "code": "encounter-diagnosis",
          "display": "Encounter Diagnosis"
        } ]
      } ],
      "code": {
        "coding": [ {
          "system": "http://hl7.org/fhir/sid/icd-10-cm",
          "version": "2024",
          "code": "N40.1",
          "display": "Benign prostatic hyperplasia with lower urinary tract symptoms",
          "userSelected": true
        } ]
      },
      "subject": {
        "reference": "Patient/6552cc29-c4e2-441f-9ae5-41d3a2f5aea4"
      },
      "encounter": {
        "reference": "Encounter/55509251"
      },
      "onsetPeriod": {
        "start": "2025-11-07T08:55:00.000+00:00"
      }
    }
  }, {
    "fullUrl": "https://madie.cms.gov/Observation/469a1b12-d460-4372-be9e-1be8125c39fd",
    "resource": {
      "resourceType": "Observation",
      "id": "469a1b12-d460-4372-be9e-1be8125c39fd",
      "meta": {
        "profile": [ "http://hl7.org/fhir/us/qicore/StructureDefinition/qicore-observation-screening-assessment" ]
      },
      "status": "final",
      "category": [ {
        "coding": [ {
          "system": "http://terminology.hl7.org/CodeSystem/observation-category",
          "code": "survey",
          "display": "Survey"
        } ]
      } ],
      "code": {
        "coding": [ {
          "system": "http://loinc.org",
          "version": "2.76",
          "code": "80976-4",
          "display": "International Prostate Symptom Score [IPSS]",
          "userSelected": true
        } ]
      },
      "subject": {
        "reference": "Patient/6552cc29-c4e2-441f-9ae5-41d3a2f5aea4"
      },
      "effectiveDateTime": "2025-12-01T08:15:00.000+00:00",
      "valueInteger": 9
    }
  }, {
    "fullUrl": "https://madie.cms.gov/Observation/39af7679-c098-453b-9ead-61405b8d879a",
    "resource": {
      "resourceType": "Observation",
      "id": "39af7679-c098-453b-9ead-61405b8d879a",
      "meta": {
        "profile": [ "http://hl7.org/fhir/us/qicore/StructureDefinition/qicore-observation-screening-assessment" ]
      },
      "status": "final",
      "category": [ {
        "coding": [ {
          "system": "http://terminology.hl7.org/CodeSystem/observation-category",
          "code": "survey",
          "display": "Survey"
        } ]
      } ],
      "code": {
        "coding": [ {
          "system": "http://loinc.org",
          "version": "2.76",
          "code": "80976-4",
          "display": "International Prostate Symptom Score [IPSS]",
          "userSelected": true
        } ]
      },
      "subject": {
        "reference": "Patient/6552cc29-c4e2-441f-9ae5-41d3a2f5aea4"
      },
      "effectiveDateTime": "2026-06-01T08:15:00.000+00:00",
      "valueInteger": 7
    }
  }, {
    "fullUrl": "https://madie.cms.gov/MeasureReport/3aff18fd-6794-4022-8a22-644983f7044f",
    "resource": {
      "resourceType": "MeasureReport",
      "id": "3aff18fd-6794-4022-8a22-644983f7044f",
      "meta": {
        "profile": [ "http://hl7.org/fhir/us/cqfmeasures/StructureDefinition/test-case-cqfm" ]
      },
      "contained": [ {
        "resourceType": "Parameters",
        "id": "d4e5557a-af2e-4e0e-b134-7a8128f95c30-parameters",
        "parameter": [ {
          "name": "subject",
          "valueString": "6552cc29-c4e2-441f-9ae5-41d3a2f5aea4"
        } ]
      } ],
      "extension": [ {
        "url": "http://hl7.org/fhir/StructureDefinition/cqf-inputParameters",
        "valueReference": {
          "reference": "#d4e5557a-af2e-4e0e-b134-7a8128f95c30-parameters"
        }
      }, {
        "url": "http://hl7.org/fhir/us/cqfmeasures/StructureDefinition/cqfm-testCaseDescription",
        "valueMarkdown": "Patient with OV in MP, initial and followup USS, has BPH Dx GT 30 days after hospitalization Encounter"
      } ],
      "modifierExtension": [ {
        "url": "http://hl7.org/fhir/us/cqfmeasures/StructureDefinition/cqfm-isTestCase",
        "valueBoolean": true
      } ],
      "status": "complete",
      "type": "individual",
      "measure": "https://madie.cms.gov/Measure/CMS771FHIRUrinarySymptomScoreBPH",
      "period": {
        "start": "2026-01-01",
        "end": "2026-12-31"
      },
      "group": [ {
        "id": "Group_1",
        "population": [ {
          "id": "InitialPopulation_1",
          "code": {
            "coding": [ {
              "system": "http://terminology.hl7.org/CodeSystem/measure-population",
              "code": "initial-population",
              "display": "Initial Population"
            } ]
          },
          "count": 1
        }, {
          "id": "Denominator_1",
          "code": {
            "coding": [ {
              "system": "http://terminology.hl7.org/CodeSystem/measure-population",
              "code": "denominator",
              "display": "Denominator"
            } ]
          },
          "count": 1
        }, {
          "id": "DenominatorExclusion_1",
          "code": {
            "coding": [ {
              "system": "http://terminology.hl7.org/CodeSystem/measure-population",
              "code": "denominator-exclusion",
              "display": "Denominator Exclusion"
            } ]
          },
          "count": 0
        }, {
          "id": "Numerator_1",
          "code": {
            "coding": [ {
              "system": "http://terminology.hl7.org/CodeSystem/measure-population",
              "code": "numerator",
              "display": "Numerator"
            } ]
          },
          "count": 0
        } ],
        "measureScore": {
          "value": 1.0
        }
      } ],
      "evaluatedResource": [ {
        "reference": "Patient/6552cc29-c4e2-441f-9ae5-41d3a2f5aea4"
      }, {
        "reference": "Encounter/d6f8cd67-e258-4c54-b0f7-e11fe6739429"
      }, {
        "reference": "Encounter/eef72e42-be40-4550-808e-e2a6cda825de"
      }, {
        "reference": "Condition/41ec3bb7-1362-4a96-aa5d-9f2c072728cf"
      }, {
        "reference": "Observation/469a1b12-d460-4372-be9e-1be8125c39fd"
      }, {
        "reference": "Observation/39af7679-c098-453b-9ead-61405b8d879a"
      } ]
    }
  } ]
}