{
  "resourceType": "Bundle",
  "id": "649f2d6b4d3c687e9304f0cd",
  "type": "collection",
  "entry": [ {
    "fullUrl": "https://madie.cms.gov/Patient/876ad4f9-f0aa-431e-b76d-c0ef5b9425e0",
    "resource": {
      "resourceType": "Patient",
      "id": "876ad4f9-f0aa-431e-b76d-c0ef5b9425e0",
      "meta": {
        "profile": [ "http://hl7.org/fhir/us/qicore/StructureDefinition/qicore-patient" ]
      },
      "extension": [ {
        "url": "http://hl7.org/fhir/us/core/StructureDefinition/us-core-race",
        "extension": [ {
          "url": "ombCategory",
          "valueCoding": {
            "system": "urn:oid:2.16.840.1.113883.6.238",
            "code": "2054-5",
            "display": "Black or African American",
            "userSelected": true
          }
        }, {
          "url": "text",
          "valueString": "Black or African American"
        } ]
      }, {
        "url": "http://hl7.org/fhir/us/core/StructureDefinition/us-core-ethnicity",
        "extension": [ {
          "url": "ombCategory",
          "valueCoding": {
            "system": "urn:oid:2.16.840.1.113883.6.238",
            "code": "2186-5",
            "display": "Not Hispanic or Latino",
            "userSelected": true
          }
        }, {
          "url": "text",
          "valueString": "Not Hispanic or Latino"
        } ]
      } ],
      "identifier": [ {
        "type": {
          "coding": [ {
            "system": "http://terminology.hl7.org/CodeSystem/v2-0203",
            "code": "MR"
          } ]
        },
        "system": "https://bonnie-fhir.healthit.gov/",
        "value": "649f2d6b4d3c687e9304f0cd"
      } ],
      "name": [ {
        "family": "IPPass",
        "given": [ "HIVBeforeMP" ]
      } ],
      "gender": "male",
      "birthDate": "2001-02-04"
    }
  }, {
    "fullUrl": "https://madie.cms.gov/Condition/e3ac258a-7954-41b2-a332-2ef2c8d119ed",
    "resource": {
      "resourceType": "Condition",
      "id": "e3ac258a-7954-41b2-a332-2ef2c8d119ed",
      "meta": {
        "profile": [ "http://hl7.org/fhir/us/qicore/StructureDefinition/qicore-condition-problems-health-concerns" ]
      },
      "clinicalStatus": {
        "coding": [ {
          "system": "http://terminology.hl7.org/CodeSystem/condition-clinical",
          "code": "active"
        } ]
      },
      "category": [ {
        "coding": [ {
          "system": "http://terminology.hl7.org/CodeSystem/condition-category",
          "code": "problem-list-item",
          "display": "Problem List Item"
        } ]
      } ],
      "code": {
        "coding": [ {
          "system": "http://hl7.org/fhir/sid/icd-9-cm",
          "version": "2013",
          "code": "042",
          "display": "Human immunodeficiency virus [HIV] disease",
          "userSelected": true
        }, {
          "system": "http://snomed.info/sct",
          "version": "http://snomed.info/sct/731000124108/version/20250301",
          "code": "165816005",
          "userSelected": true
        } ]
      },
      "subject": {
        "reference": "Patient/876ad4f9-f0aa-431e-b76d-c0ef5b9425e0"
      },
      "onsetDateTime": "2018-09-28T08:00:00.000+00:00",
      "recordedDate": "2018-09-28T08:00:00.000+00:00"
    }
  }, {
    "fullUrl": "https://madie.cms.gov/Encounter/5bf56bfe-d346-4165-bcfb-b6e3d1254f78",
    "resource": {
      "resourceType": "Encounter",
      "id": "5bf56bfe-d346-4165-bcfb-b6e3d1254f78",
      "meta": {
        "profile": [ "http://hl7.org/fhir/us/qicore/StructureDefinition/qicore-encounter" ]
      },
      "status": "finished",
      "class": {
        "system": "http://terminology.hl7.org/CodeSystem/v3-ActCode",
        "code": "AMB",
        "display": "ambulatory"
      },
      "type": [ {
        "coding": [ {
          "system": "http://www.ama-assn.org/go/cpt",
          "version": "2023",
          "code": "99395",
          "display": "Periodic comprehensive preventive medicine reevaluation and management of an individual including an age and gender appropriate history, examination, counseling/anticipatory guidance/risk factor reduction interventions, and the ordering of laboratory/diagnostic procedures, established patient; 18-39 years",
          "userSelected": true
        } ]
      } ],
      "subject": {
        "reference": "Patient/876ad4f9-f0aa-431e-b76d-c0ef5b9425e0"
      },
      "period": {
        "start": "2026-09-29T08:00:00.000+00:00",
        "end": "2026-09-29T08:30:00.000+00:00"
      }
    }
  }, {
    "fullUrl": "https://madie.cms.gov/Coverage/23e51955-d5e1-4578-964a-e9b7fbda214d",
    "resource": {
      "resourceType": "Coverage",
      "id": "23e51955-d5e1-4578-964a-e9b7fbda214d",
      "meta": {
        "profile": [ "http://hl7.org/fhir/us/qicore/StructureDefinition/qicore-coverage" ]
      },
      "status": "active",
      "subscriberId": "123456",
      "beneficiary": {
        "reference": "Patient/876ad4f9-f0aa-431e-b76d-c0ef5b9425e0"
      },
      "relationship": {
        "coding": [ {
          "system": "http://terminology.hl7.org/CodeSystem/subscriber-relationship",
          "code": "self",
          "display": "Self"
        } ]
      },
      "payor": [ {
        "reference": "Organization/7bc1eaa1-4761-4188-b0e4-7ba9b23a56e2"
      } ]
    }
  }, {
    "fullUrl": "https://madie.cms.gov/Organization/7bc1eaa1-4761-4188-b0e4-7ba9b23a56e2",
    "resource": {
      "resourceType": "Organization",
      "id": "7bc1eaa1-4761-4188-b0e4-7ba9b23a56e2",
      "meta": {
        "profile": [ "http://hl7.org/fhir/us/qicore/StructureDefinition/qicore-organization" ]
      },
      "identifier": [ {
        "use": "temp",
        "system": "urn:oid:2.16.840.1.113883.4.4",
        "value": "21-3259825"
      } ],
      "active": true,
      "type": [ {
        "coding": [ {
          "system": "http://terminology.hl7.org/CodeSystem/organization-type",
          "code": "pay",
          "display": "Payer"
        } ]
      } ],
      "name": "Blue Cross Blue Shield of Texas",
      "telecom": [ {
        "system": "phone",
        "value": "(+1) 972-766-6900"
      } ],
      "address": [ {
        "use": "billing",
        "type": "postal",
        "line": [ "P.O. Box 660044" ],
        "city": "Dallas",
        "state": "TX",
        "postalCode": "75266-0044",
        "country": "USA"
      } ]
    }
  }, {
    "fullUrl": "https://madie.cms.gov/Practitioner/45220325-2602-4336-8d87-f9395dbbb676",
    "resource": {
      "resourceType": "Practitioner",
      "id": "45220325-2602-4336-8d87-f9395dbbb676",
      "meta": {
        "profile": [ "http://hl7.org/fhir/us/qicore/StructureDefinition/qicore-practitioner" ]
      },
      "identifier": [ {
        "system": "http://hl7.org/fhir/sid/us-npi",
        "value": "1689411712"
      } ],
      "name": [ {
        "family": "Evil",
        "prefix": [ "Dr" ]
      } ]
    }
  }, {
    "fullUrl": "https://madie.cms.gov/MeasureReport/ddad2502-a5c1-427a-bb02-07dc94d4e030",
    "resource": {
      "resourceType": "MeasureReport",
      "id": "ddad2502-a5c1-427a-bb02-07dc94d4e030",
      "meta": {
        "profile": [ "http://hl7.org/fhir/us/cqfmeasures/StructureDefinition/test-case-cqfm" ]
      },
      "contained": [ {
        "resourceType": "Parameters",
        "id": "26d6ad23-5fdb-4d4a-b17c-3952beac02e9-parameters",
        "parameter": [ {
          "name": "subject",
          "valueString": "876ad4f9-f0aa-431e-b76d-c0ef5b9425e0"
        } ]
      } ],
      "extension": [ {
        "url": "http://hl7.org/fhir/StructureDefinition/cqf-inputParameters",
        "valueReference": {
          "reference": "#26d6ad23-5fdb-4d4a-b17c-3952beac02e9-parameters"
        }
      }, {
        "url": "http://hl7.org/fhir/us/cqfmeasures/StructureDefinition/cqfm-testCaseDescription",
        "valueMarkdown": "Patient is over 13 years old with a dx of HIV before the MP and has an encounter after the MP"
      } ],
      "modifierExtension": [ {
        "url": "http://hl7.org/fhir/us/cqfmeasures/StructureDefinition/cqfm-isTestCase",
        "valueBoolean": true
      } ],
      "status": "complete",
      "type": "individual",
      "measure": "https://madie.cms.gov/Measure/CMS1188FHIRHIVSTITesting",
      "period": {
        "start": "2026-01-01",
        "end": "2026-12-31"
      },
      "group": [ {
        "id": "Group_1",
        "population": [ {
          "id": "InitialPopulation_1",
          "code": {
            "coding": [ {
              "system": "http://terminology.hl7.org/CodeSystem/measure-population",
              "code": "initial-population",
              "display": "Initial Population"
            } ]
          },
          "count": 1
        }, {
          "id": "Denominator_1",
          "code": {
            "coding": [ {
              "system": "http://terminology.hl7.org/CodeSystem/measure-population",
              "code": "denominator",
              "display": "Denominator"
            } ]
          },
          "count": 1
        }, {
          "id": "Numerator_1",
          "code": {
            "coding": [ {
              "system": "http://terminology.hl7.org/CodeSystem/measure-population",
              "code": "numerator",
              "display": "Numerator"
            } ]
          },
          "count": 0
        } ],
        "measureScore": {
          "value": 1.0
        }
      } ],
      "evaluatedResource": [ {
        "reference": "Patient/876ad4f9-f0aa-431e-b76d-c0ef5b9425e0"
      }, {
        "reference": "Condition/e3ac258a-7954-41b2-a332-2ef2c8d119ed"
      }, {
        "reference": "Encounter/5bf56bfe-d346-4165-bcfb-b6e3d1254f78"
      }, {
        "reference": "Coverage/23e51955-d5e1-4578-964a-e9b7fbda214d"
      }, {
        "reference": "Organization/7bc1eaa1-4761-4188-b0e4-7ba9b23a56e2"
      }, {
        "reference": "Practitioner/45220325-2602-4336-8d87-f9395dbbb676"
      } ]
    }
  } ]
}