{
  "resourceType": "Bundle",
  "id": "IPPPass-HypertensionDuringFirst6Months",
  "type": "transaction",
  "entry": [ {
    "fullUrl": "https://madie.cms.gov/Patient/4d50f3eb-f56f-4f13-8fcf-4d26e05b9a6a",
    "resource": {
      "resourceType": "Patient",
      "id": "4d50f3eb-f56f-4f13-8fcf-4d26e05b9a6a",
      "meta": {
        "profile": [ "http://hl7.org/fhir/us/qicore/StructureDefinition/qicore-patient" ]
      },
      "extension": [ {
        "url": "http://hl7.org/fhir/us/core/StructureDefinition/us-core-race",
        "extension": [ {
          "url": "ombCategory",
          "valueCoding": {
            "system": "urn:oid:2.16.840.1.113883.6.238",
            "code": "2028-9",
            "display": "Asian"
          }
        }, {
          "url": "text",
          "valueString": "Asian"
        } ]
      }, {
        "url": "http://hl7.org/fhir/us/core/StructureDefinition/us-core-ethnicity",
        "extension": [ {
          "url": "ombCategory",
          "valueCoding": {
            "system": "urn:oid:2.16.840.1.113883.6.238",
            "code": "2135-2",
            "display": "Hispanic or Latino"
          }
        }, {
          "url": "text",
          "valueString": "Hispanic or Latino"
        } ]
      } ],
      "identifier": [ {
        "system": "http://hospital.smarthealthit.org",
        "value": "999999995"
      } ],
      "name": [ {
        "family": "IPPass",
        "given": [ "HypertensionDuringFirst6Months" ]
      } ],
      "gender": "female",
      "birthDate": "2007-12-31"
    },
    "request": {
      "method": "PUT",
      "url": "Patient/4d50f3eb-f56f-4f13-8fcf-4d26e05b9a6a"
    }
  }, {
    "fullUrl": "https://madie.cms.gov/Encounter/655098d8-6e21-4b6a-875a-f107573b2fc2",
    "resource": {
      "resourceType": "Encounter",
      "id": "655098d8-6e21-4b6a-875a-f107573b2fc2",
      "meta": {
        "profile": [ "http://hl7.org/fhir/us/qicore/StructureDefinition/qicore-encounter" ]
      },
      "status": "finished",
      "class": {
        "system": "http://terminology.hl7.org/CodeSystem/v3-ActCode",
        "code": "AMB",
        "display": "ambulatory"
      },
      "type": [ {
        "coding": [ {
          "system": "http://snomed.info/sct",
          "code": "3391000175108",
          "display": "Office visit for pediatric care and assessment (procedure)"
        } ]
      } ],
      "subject": {
        "reference": "Patient/4d50f3eb-f56f-4f13-8fcf-4d26e05b9a6a"
      },
      "period": {
        "start": "2026-01-01T00:00:00.000+00:00",
        "end": "2026-01-01T01:00:00.000+00:00"
      }
    },
    "request": {
      "method": "PUT",
      "url": "Encounter/655098d8-6e21-4b6a-875a-f107573b2fc2"
    }
  }, {
    "fullUrl": "https://madie.cms.gov/Condition/67c25556-a695-49fa-b91c-2cd7e0422d41",
    "resource": {
      "resourceType": "Condition",
      "id": "67c25556-a695-49fa-b91c-2cd7e0422d41",
      "meta": {
        "profile": [ "http://hl7.org/fhir/us/qicore/StructureDefinition/qicore-condition-encounter-diagnosis" ]
      },
      "clinicalStatus": {
        "coding": [ {
          "system": "http://terminology.hl7.org/CodeSystem/condition-clinical",
          "code": "active"
        } ]
      },
      "category": [ {
        "coding": [ {
          "system": "http://terminology.hl7.org/CodeSystem/condition-category",
          "code": "encounter-diagnosis",
          "display": "Encounter Diagnosis"
        } ]
      } ],
      "code": {
        "coding": [ {
          "system": "http://snomed.info/sct",
          "code": "371125006",
          "display": "Labile essential hypertension (disorder)"
        } ]
      },
      "subject": {
        "reference": "Patient/4d50f3eb-f56f-4f13-8fcf-4d26e05b9a6a"
      },
      "onsetDateTime": "2026-06-30T23:59:59.000+00:00"
    },
    "request": {
      "method": "PUT",
      "url": "Condition/67c25556-a695-49fa-b91c-2cd7e0422d41"
    }
  }, {
    "fullUrl": "https://madie.cms.gov/Coverage/3984a570-c22b-4d3b-a59d-52a3921703b1",
    "resource": {
      "resourceType": "Coverage",
      "id": "3984a570-c22b-4d3b-a59d-52a3921703b1",
      "meta": {
        "profile": [ "http://hl7.org/fhir/us/qicore/StructureDefinition/qicore-coverage" ]
      },
      "status": "active",
      "type": {
        "coding": [ {
          "system": "https://nahdo.org/sopt",
          "code": "99",
          "display": "No Typology Code available for payment source"
        } ]
      },
      "subscriberId": "12191",
      "beneficiary": {
        "reference": "Patient/4d50f3eb-f56f-4f13-8fcf-4d26e05b9a6a"
      },
      "relationship": {
        "coding": [ {
          "system": "http://terminology.hl7.org/CodeSystem/subscriber-relationship",
          "code": "self"
        } ]
      },
      "payor": [ {
        "reference": "Organization/example"
      } ]
    },
    "request": {
      "method": "PUT",
      "url": "Coverage/3984a570-c22b-4d3b-a59d-52a3921703b1"
    }
  }, {
    "fullUrl": "https://madie.cms.gov/MeasureReport/5c4d32a9-5bfa-4894-96b5-b382c7a5931b",
    "resource": {
      "resourceType": "MeasureReport",
      "id": "5c4d32a9-5bfa-4894-96b5-b382c7a5931b",
      "meta": {
        "profile": [ "http://hl7.org/fhir/us/cqfmeasures/StructureDefinition/test-case-cqfm" ]
      },
      "contained": [ {
        "resourceType": "Parameters",
        "id": "1b07b5e3-c1e2-4e99-9036-937b3cb6f954-parameters",
        "parameter": [ {
          "name": "subject",
          "valueString": "4d50f3eb-f56f-4f13-8fcf-4d26e05b9a6a"
        } ]
      } ],
      "extension": [ {
        "url": "http://hl7.org/fhir/StructureDefinition/cqf-inputParameters",
        "valueReference": {
          "reference": "#1b07b5e3-c1e2-4e99-9036-937b3cb6f954-parameters"
        }
      }, {
        "url": "http://hl7.org/fhir/us/cqfmeasures/StructureDefinition/cqfm-testCaseDescription",
        "valueMarkdown": "Hypertension onsets on 6/30"
      } ],
      "modifierExtension": [ {
        "url": "http://hl7.org/fhir/us/cqfmeasures/StructureDefinition/cqfm-isTestCase",
        "valueBoolean": true
      } ],
      "status": "complete",
      "type": "individual",
      "measure": "https://madie.cms.gov/Measure/CMS165FHIRControllingHighBP",
      "period": {
        "start": "2026-01-01",
        "end": "2026-12-31"
      },
      "group": [ {
        "id": "Group_1",
        "population": [ {
          "id": "InitialPopulation_1",
          "code": {
            "coding": [ {
              "system": "http://terminology.hl7.org/CodeSystem/measure-population",
              "code": "initial-population",
              "display": "Initial Population"
            } ]
          },
          "count": 1
        }, {
          "id": "Denominator_1",
          "code": {
            "coding": [ {
              "system": "http://terminology.hl7.org/CodeSystem/measure-population",
              "code": "denominator",
              "display": "Denominator"
            } ]
          },
          "count": 1
        }, {
          "id": "DenominatorExclusion_1",
          "code": {
            "coding": [ {
              "system": "http://terminology.hl7.org/CodeSystem/measure-population",
              "code": "denominator-exclusion",
              "display": "Denominator Exclusion"
            } ]
          },
          "count": 0
        }, {
          "id": "Numerator_1",
          "code": {
            "coding": [ {
              "system": "http://terminology.hl7.org/CodeSystem/measure-population",
              "code": "numerator",
              "display": "Numerator"
            } ]
          },
          "count": 0
        } ],
        "measureScore": {
          "value": 1.0
        }
      } ],
      "evaluatedResource": [ {
        "reference": "Patient/4d50f3eb-f56f-4f13-8fcf-4d26e05b9a6a"
      }, {
        "reference": "Encounter/655098d8-6e21-4b6a-875a-f107573b2fc2"
      }, {
        "reference": "Condition/67c25556-a695-49fa-b91c-2cd7e0422d41"
      }, {
        "reference": "Coverage/3984a570-c22b-4d3b-a59d-52a3921703b1"
      } ]
    },
    "request": {
      "method": "PUT",
      "url": "MeasureReport/5c4d32a9-5bfa-4894-96b5-b382c7a5931b"
    }
  } ]
}