{
  "resourceType": "Bundle",
  "id": "612e6b2202c62a011f2ec9a3",
  "type": "transaction",
  "entry": [ {
    "fullUrl": "https://madie.cms.gov/Patient/d69b5757-4a47-4f3f-b138-88a11272880b",
    "resource": {
      "resourceType": "Patient",
      "id": "d69b5757-4a47-4f3f-b138-88a11272880b",
      "meta": {
        "profile": [ "http://hl7.org/fhir/us/qicore/StructureDefinition/qicore-patient" ]
      },
      "text": {
        "status": "generated",
        "div": "<div xmlns=\"http://www.w3.org/1999/xhtml\"><div class=\"hapiHeaderText\">SCIP_NeuroRank1_ProRvltDTDuringEnc <b>DENEXPASS </b></div><table class=\"hapiPropertyTable\"><tbody><tr><td>Identifier</td><td>66c70c125db369967b4b164e75338304</td></tr><tr><td>Date of birth</td><td><span>01 September 2000</span></td></tr></tbody></table></div>"
      },
      "extension": [ {
        "url": "http://hl7.org/fhir/us/core/StructureDefinition/us-core-race",
        "extension": [ {
          "url": "ombCategory",
          "valueCoding": {
            "system": "urn:oid:2.16.840.1.113883.6.238",
            "code": "1002-5",
            "display": "American Indian or Alaska Native",
            "userSelected": true
          }
        }, {
          "url": "text",
          "valueString": "American Indian or Alaska Native"
        } ]
      }, {
        "url": "http://hl7.org/fhir/us/core/StructureDefinition/us-core-ethnicity",
        "extension": [ {
          "url": "ombCategory",
          "valueCoding": {
            "system": "urn:oid:2.16.840.1.113883.6.238",
            "code": "2135-2",
            "display": "Hispanic or Latino",
            "userSelected": true
          }
        }, {
          "url": "text",
          "valueString": "Hispanic or Latino"
        } ]
      } ],
      "identifier": [ {
        "type": {
          "coding": [ {
            "system": "http://terminology.hl7.org/CodeSystem/v2-0203",
            "code": "MR"
          } ]
        },
        "system": "https://bonnie-fhir.healthit.gov/",
        "value": "612e6b2202c62a011f2ec9a3"
      } ],
      "active": true,
      "name": [ {
        "use": "usual",
        "family": "DENEXPass",
        "given": [ "SCIPNeuroRank1ProRvltDTDuringEncWRef" ]
      } ],
      "gender": "male",
      "birthDate": "2001-09-01"
    },
    "request": {
      "method": "PUT",
      "url": "Patient/d69b5757-4a47-4f3f-b138-88a11272880b"
    }
  }, {
    "fullUrl": "https://madie.cms.gov/Encounter/521f491e-3e04-432a-8bdf-ee3c2d899504",
    "resource": {
      "resourceType": "Encounter",
      "id": "521f491e-3e04-432a-8bdf-ee3c2d899504",
      "meta": {
        "profile": [ "http://hl7.org/fhir/us/qicore/StructureDefinition/qicore-encounter" ]
      },
      "status": "finished",
      "class": {
        "system": "http://terminology.hl7.org/CodeSystem/v3-ActCode",
        "code": "IMP",
        "display": "inpatient encounter"
      },
      "type": [ {
        "coding": [ {
          "system": "http://snomed.info/sct",
          "code": "183452005"
        } ]
      } ],
      "subject": {
        "reference": "Patient/d69b5757-4a47-4f3f-b138-88a11272880b"
      },
      "period": {
        "start": "2026-09-02T06:00:00.000+00:00",
        "end": "2026-12-31T12:59:00.000+00:00"
      },
      "length": {
        "value": 120,
        "unit": "days"
      }
    },
    "request": {
      "method": "PUT",
      "url": "Encounter/521f491e-3e04-432a-8bdf-ee3c2d899504"
    }
  }, {
    "fullUrl": "https://madie.cms.gov/claim/5ca62962b8484628b8de1ec5",
    "resource": {
      "resourceType": "Claim",
      "id": "5ca62962b8484628b8de1ec5",
      "meta": {
        "profile": [ "http://hl7.org/fhir/us/qicore/StructureDefinition/qicore-claim" ]
      },
      "status": "active",
      "type": {
        "coding": [ {
          "system": "http://terminology.hl7.org/CodeSystem/claim-type",
          "code": "institutional"
        } ]
      },
      "use": "claim",
      "patient": {
        "reference": "Patient/d69b5757-4a47-4f3f-b138-88a11272880b"
      },
      "created": "2026-12-01",
      "provider": {
        "reference": "Practitioner/0e83494e-1e3e-4b96-8c57-06b602aef67f"
      },
      "priority": {
        "coding": [ {
          "system": "http://terminology.hl7.org/CodeSystem/processpriority",
          "code": "normal"
        } ]
      },
      "procedure": [ {
        "sequence": 1,
        "type": [ {
          "coding": [ {
            "system": "http://terminology.hl7.org/CodeSystem/ex-procedure-type",
            "code": "primary"
          } ]
        } ],
        "procedureReference": {
          "reference": "Procedure/1c5050c0-722f-4f46-bf2a-25b4e5c674d0"
        }
      } ],
      "insurance": [ {
        "sequence": 1,
        "focal": true,
        "coverage": {
          "reference": "Coverage/8f5fe23b-3e73-47a7-8869-223c06ec7d8e"
        }
      } ],
      "item": [ {
        "sequence": 1,
        "procedureSequence": [ 1 ],
        "productOrService": {
          "coding": [ {
            "system": "http://terminology.hl7.org/CodeSystem/ex-USCLS",
            "code": "99555"
          } ]
        },
        "encounter": [ {
          "reference": "Encounter/521f491e-3e04-432a-8bdf-ee3c2d899504"
        } ]
      } ]
    },
    "request": {
      "method": "PUT",
      "url": "Claim/5ca62962b8484628b8de1ec5"
    }
  }, {
    "fullUrl": "https://madie.cms.gov/Coverage/8f5fe23b-3e73-47a7-8869-223c06ec7d8e",
    "resource": {
      "resourceType": "Coverage",
      "id": "8f5fe23b-3e73-47a7-8869-223c06ec7d8e",
      "status": "active",
      "beneficiary": {
        "reference": "Patient/d69b5757-4a47-4f3f-b138-88a11272880b"
      },
      "period": {
        "start": "2001-09-01T08:00:00.000+00:00"
      },
      "payor": [ {
        "reference": "Organization/7ac62c0d-7111-4ae6-aefd-326f11076c21"
      } ]
    },
    "request": {
      "method": "PUT",
      "url": "Coverage/8f5fe23b-3e73-47a7-8869-223c06ec7d8e"
    }
  }, {
    "fullUrl": "https://madie.cms.gov/Procedure/1c5050c0-722f-4f46-bf2a-25b4e5c674d0",
    "resource": {
      "resourceType": "Procedure",
      "id": "1c5050c0-722f-4f46-bf2a-25b4e5c674d0",
      "meta": {
        "profile": [ "http://hl7.org/fhir/us/qicore/StructureDefinition/qicore-procedure" ]
      },
      "extension": [ {
        "url": "http://hl7.org/fhir/us/qicore/StructureDefinition/qicore-recorded",
        "valueDateTime": "2013-09-02T13:35:00.000+00:00"
      } ],
      "status": "completed",
      "code": {
        "coding": [ {
          "system": "http://www.cms.gov/Medicare/Coding/ICD10",
          "code": "0W910ZZ",
          "display": "Drainage of Cranial Cavity, Open Approach"
        } ]
      },
      "subject": {
        "reference": "Patient/d69b5757-4a47-4f3f-b138-88a11272880b"
      },
      "performedDateTime": "2026-09-02T09:00:00.000+00:00"
    },
    "request": {
      "method": "PUT",
      "url": "Procedure/1c5050c0-722f-4f46-bf2a-25b4e5c674d0"
    }
  }, {
    "fullUrl": "https://madie.cms.gov/Organization/7ac62c0d-7111-4ae6-aefd-326f11076c21",
    "resource": {
      "resourceType": "Organization",
      "id": "7ac62c0d-7111-4ae6-aefd-326f11076c21",
      "meta": {
        "profile": [ "http://hl7.org/fhir/us/qicore/StructureDefinition/qicore-organization" ]
      },
      "identifier": [ {
        "use": "temp",
        "system": "urn:oid:2.16.840.1.113883.4.4",
        "value": "21-3259825"
      } ],
      "active": true,
      "type": [ {
        "coding": [ {
          "system": "http://terminology.hl7.org/CodeSystem/organization-type",
          "code": "pay",
          "display": "Payer"
        } ]
      } ],
      "name": "Blue Cross Blue Shield of Texas",
      "telecom": [ {
        "system": "phone",
        "value": "(+1) 972-766-6900"
      } ],
      "address": [ {
        "use": "billing",
        "type": "postal",
        "line": [ "P.O. Box 660044" ],
        "city": "Dallas",
        "state": "TX",
        "postalCode": "75266-0044",
        "country": "USA"
      } ]
    },
    "request": {
      "method": "PUT",
      "url": "Organization/7ac62c0d-7111-4ae6-aefd-326f11076c21"
    }
  }, {
    "fullUrl": "https://madie.cms.gov/Practitioner/0e83494e-1e3e-4b96-8c57-06b602aef67f",
    "resource": {
      "resourceType": "Practitioner",
      "id": "0e83494e-1e3e-4b96-8c57-06b602aef67f",
      "identifier": [ {
        "system": "http://hl7.org/fhir/sid/us-npi",
        "value": "123456"
      } ],
      "name": [ {
        "family": "Evil",
        "prefix": [ "Dr" ]
      } ]
    },
    "request": {
      "method": "PUT",
      "url": "Practitioner/0e83494e-1e3e-4b96-8c57-06b602aef67f"
    }
  }, {
    "fullUrl": "https://madie.cms.gov/MeasureReport/f3cd7c08-ee79-4312-9779-968423b02570",
    "resource": {
      "resourceType": "MeasureReport",
      "id": "f3cd7c08-ee79-4312-9779-968423b02570",
      "meta": {
        "profile": [ "http://hl7.org/fhir/us/cqfmeasures/StructureDefinition/test-case-cqfm" ]
      },
      "contained": [ {
        "resourceType": "Parameters",
        "id": "c8ffd935-6ee3-4b69-9231-58c446df4636-parameters",
        "parameter": [ {
          "name": "subject",
          "valueString": "d69b5757-4a47-4f3f-b138-88a11272880b"
        } ]
      } ],
      "extension": [ {
        "url": "http://hl7.org/fhir/StructureDefinition/cqf-inputParameters",
        "valueReference": {
          "reference": "#c8ffd935-6ee3-4b69-9231-58c446df4636-parameters"
        }
      }, {
        "url": "http://hl7.org/fhir/us/cqfmeasures/StructureDefinition/cqfm-testCaseDescription",
        "valueMarkdown": "Patient had SCIP -NeruoSurg during Encounter and Rank =1\n"
      } ],
      "modifierExtension": [ {
        "url": "http://hl7.org/fhir/us/cqfmeasures/StructureDefinition/cqfm-isTestCase",
        "valueBoolean": true
      } ],
      "status": "complete",
      "type": "individual",
      "measure": "https://madie.cms.gov/Measure/CMS108FHIRVTEProphylaxis",
      "period": {
        "start": "2026-01-01",
        "end": "2026-12-31"
      },
      "group": [ {
        "id": "Group_1",
        "population": [ {
          "id": "InitialPopulation_1",
          "code": {
            "coding": [ {
              "system": "http://terminology.hl7.org/CodeSystem/measure-population",
              "code": "initial-population",
              "display": "Initial Population"
            } ]
          },
          "count": 1
        }, {
          "id": "Denominator_1",
          "code": {
            "coding": [ {
              "system": "http://terminology.hl7.org/CodeSystem/measure-population",
              "code": "denominator",
              "display": "Denominator"
            } ]
          },
          "count": 1
        }, {
          "id": "DenominatorExclusion_1",
          "code": {
            "coding": [ {
              "system": "http://terminology.hl7.org/CodeSystem/measure-population",
              "code": "denominator-exclusion",
              "display": "Denominator Exclusion"
            } ]
          },
          "count": 1
        }, {
          "id": "Numerator_1",
          "code": {
            "coding": [ {
              "system": "http://terminology.hl7.org/CodeSystem/measure-population",
              "code": "numerator",
              "display": "Numerator"
            } ]
          },
          "count": 0
        } ],
        "measureScore": {
          "value": 0.0
        }
      } ],
      "evaluatedResource": [ {
        "reference": "Patient/d69b5757-4a47-4f3f-b138-88a11272880b"
      }, {
        "reference": "Encounter/521f491e-3e04-432a-8bdf-ee3c2d899504"
      }, {
        "reference": "Claim/5ca62962b8484628b8de1ec5"
      }, {
        "reference": "Coverage/8f5fe23b-3e73-47a7-8869-223c06ec7d8e"
      }, {
        "reference": "Procedure/1c5050c0-722f-4f46-bf2a-25b4e5c674d0"
      }, {
        "reference": "Organization/7ac62c0d-7111-4ae6-aefd-326f11076c21"
      }, {
        "reference": "Practitioner/0e83494e-1e3e-4b96-8c57-06b602aef67f"
      } ]
    },
    "request": {
      "method": "PUT",
      "url": "MeasureReport/f3cd7c08-ee79-4312-9779-968423b02570"
    }
  } ]
}