{
  "resourceType": "Bundle",
  "id": "6101649198086b4fedf65dfe",
  "type": "collection",
  "entry": [ {
    "fullUrl": "https://madie.cms.gov/Patient/bf0f8968-c2c0-4416-88db-11ea3e3da968",
    "resource": {
      "resourceType": "Patient",
      "id": "bf0f8968-c2c0-4416-88db-11ea3e3da968",
      "meta": {
        "profile": [ "http://hl7.org/fhir/us/qicore/StructureDefinition/qicore-patient" ]
      },
      "extension": [ {
        "url": "http://hl7.org/fhir/us/core/StructureDefinition/us-core-race",
        "extension": [ {
          "url": "ombCategory",
          "valueCoding": {
            "system": "urn:oid:2.16.840.1.113883.6.238",
            "code": "1002-5",
            "display": "American Indian or Alaska Native"
          }
        }, {
          "url": "text",
          "valueString": "American Indian or Alaska Native"
        } ]
      }, {
        "url": "http://hl7.org/fhir/us/core/StructureDefinition/us-core-ethnicity",
        "extension": [ {
          "url": "ombCategory",
          "valueCoding": {
            "system": "urn:oid:2.16.840.1.113883.6.238",
            "code": "2135-2",
            "display": "Hispanic or Latino"
          }
        }, {
          "url": "text",
          "valueString": "Hispanic or Latino"
        } ]
      }, {
        "url": "http://hl7.org/fhir/us/core/StructureDefinition/us-core-sex",
        "valueCode": "248153007"
      } ],
      "identifier": [ {
        "type": {
          "coding": [ {
            "system": "http://terminology.hl7.org/CodeSystem/v2-0203",
            "code": "MR"
          } ]
        },
        "system": "https://bonnie-fhir.healthit.gov/",
        "value": "74612635468413203"
      } ],
      "active": true,
      "name": [ {
        "use": "usual",
        "family": "NUMERPass",
        "given": [ "USSMultipleIn1DayImprovement10" ]
      } ],
      "gender": "male",
      "birthDate": "1949-04-28"
    }
  }, {
    "fullUrl": "https://madie.cms.gov/Observation/2e9bf559-e9ca-4bf6-be5f-b9b6bbcd6d5c",
    "resource": {
      "resourceType": "Observation",
      "id": "2e9bf559-e9ca-4bf6-be5f-b9b6bbcd6d5c",
      "meta": {
        "profile": [ "http://hl7.org/fhir/us/qicore/StructureDefinition/qicore-observation-screening-assessment" ]
      },
      "status": "final",
      "category": [ {
        "coding": [ {
          "system": "http://terminology.hl7.org/CodeSystem/observation-category",
          "code": "survey",
          "display": "Survey"
        } ]
      } ],
      "code": {
        "coding": [ {
          "system": "http://loinc.org",
          "version": "2.76",
          "code": "80976-4"
        } ]
      },
      "subject": {
        "reference": "Patient/bf0f8968-c2c0-4416-88db-11ea3e3da968"
      },
      "effectivePeriod": {
        "start": "2026-01-06T10:00:00.000+00:00"
      },
      "valueInteger": 10
    }
  }, {
    "fullUrl": "https://madie.cms.gov/Observation/77616b68-7336-45e8-84a6-6e7193ae0593",
    "resource": {
      "resourceType": "Observation",
      "id": "77616b68-7336-45e8-84a6-6e7193ae0593",
      "meta": {
        "profile": [ "http://hl7.org/fhir/us/qicore/StructureDefinition/qicore-observation-screening-assessment" ]
      },
      "status": "final",
      "category": [ {
        "coding": [ {
          "system": "http://terminology.hl7.org/CodeSystem/observation-category",
          "code": "survey",
          "display": "Survey"
        } ]
      } ],
      "code": {
        "coding": [ {
          "system": "http://loinc.org",
          "version": "2.76",
          "code": "80976-4"
        } ]
      },
      "subject": {
        "reference": "Patient/bf0f8968-c2c0-4416-88db-11ea3e3da968"
      },
      "effectivePeriod": {
        "start": "2026-01-06T11:30:00.000+00:00"
      },
      "valueInteger": 12
    }
  }, {
    "fullUrl": "https://madie.cms.gov/Observation/8a87bb2e-3123-493c-996d-11574e374cc9",
    "resource": {
      "resourceType": "Observation",
      "id": "8a87bb2e-3123-493c-996d-11574e374cc9",
      "meta": {
        "profile": [ "http://hl7.org/fhir/us/qicore/StructureDefinition/qicore-observation-screening-assessment" ]
      },
      "status": "final",
      "category": [ {
        "coding": [ {
          "system": "http://terminology.hl7.org/CodeSystem/observation-category",
          "code": "survey",
          "display": "Survey"
        } ]
      } ],
      "code": {
        "coding": [ {
          "system": "http://loinc.org",
          "version": "2.76",
          "code": "80976-4"
        } ]
      },
      "subject": {
        "reference": "Patient/bf0f8968-c2c0-4416-88db-11ea3e3da968"
      },
      "effectivePeriod": {
        "start": "2026-01-06T08:00:00.000+00:00"
      },
      "valueInteger": 20
    }
  }, {
    "fullUrl": "https://madie.cms.gov/Observation/79eb8120-eb55-4c0b-a6ab-700ae09dedcc",
    "resource": {
      "resourceType": "Observation",
      "id": "79eb8120-eb55-4c0b-a6ab-700ae09dedcc",
      "meta": {
        "profile": [ "http://hl7.org/fhir/us/qicore/StructureDefinition/qicore-observation-screening-assessment" ]
      },
      "status": "final",
      "category": [ {
        "coding": [ {
          "system": "http://terminology.hl7.org/CodeSystem/observation-category",
          "code": "survey",
          "display": "Survey"
        } ]
      } ],
      "code": {
        "coding": [ {
          "system": "http://loinc.org",
          "version": "2.76",
          "code": "80976-4"
        } ]
      },
      "subject": {
        "reference": "Patient/bf0f8968-c2c0-4416-88db-11ea3e3da968"
      },
      "effectivePeriod": {
        "start": "2026-10-06T08:00:00.000+00:00"
      },
      "valueInteger": 10
    }
  }, {
    "fullUrl": "https://madie.cms.gov/Condition/d4cf0f82-6eb0-4d39-8f69-2b2daaca6473",
    "resource": {
      "resourceType": "Condition",
      "id": "d4cf0f82-6eb0-4d39-8f69-2b2daaca6473",
      "meta": {
        "profile": [ "http://hl7.org/fhir/us/qicore/StructureDefinition/qicore-condition-problems-health-concerns" ]
      },
      "clinicalStatus": {
        "coding": [ {
          "system": "http://terminology.hl7.org/CodeSystem/condition-clinical",
          "code": "active"
        } ]
      },
      "verificationStatus": {
        "coding": [ {
          "system": "http://terminology.hl7.org/CodeSystem/condition-ver-status",
          "code": "confirmed"
        } ]
      },
      "category": [ {
        "coding": [ {
          "system": "http://terminology.hl7.org/CodeSystem/condition-category",
          "code": "problem-list-item",
          "display": "Problem List Item"
        } ]
      } ],
      "code": {
        "coding": [ {
          "system": "http://hl7.org/fhir/sid/icd-10-cm",
          "version": "2024",
          "code": "N40.1"
        } ]
      },
      "subject": {
        "reference": "Patient/bf0f8968-c2c0-4416-88db-11ea3e3da968"
      },
      "onsetPeriod": {
        "start": "2025-12-31T08:00:00.000+00:00"
      }
    }
  }, {
    "fullUrl": "https://madie.cms.gov/Encounter/56206edb-2ea5-449e-80c5-7596baaaf185",
    "resource": {
      "resourceType": "Encounter",
      "id": "56206edb-2ea5-449e-80c5-7596baaaf185",
      "meta": {
        "profile": [ "http://hl7.org/fhir/us/qicore/StructureDefinition/qicore-encounter" ]
      },
      "status": "finished",
      "class": {
        "system": "http://terminology.hl7.org/CodeSystem/v3-ActCode",
        "code": "AMB",
        "display": "ambulatory"
      },
      "type": [ {
        "coding": [ {
          "system": "http://www.ama-assn.org/go/cpt",
          "version": "2024",
          "code": "99214"
        } ]
      } ],
      "subject": {
        "reference": "Patient/bf0f8968-c2c0-4416-88db-11ea3e3da968"
      },
      "period": {
        "start": "2026-04-06T08:00:00.000+00:00",
        "end": "2026-04-06T08:15:00.000+00:00"
      }
    }
  }, {
    "fullUrl": "https://madie.cms.gov/MeasureReport/bcce208a-3ff4-4c82-9d49-c0b64ccb9138",
    "resource": {
      "resourceType": "MeasureReport",
      "id": "bcce208a-3ff4-4c82-9d49-c0b64ccb9138",
      "meta": {
        "profile": [ "http://hl7.org/fhir/us/cqfmeasures/StructureDefinition/test-case-cqfm" ]
      },
      "contained": [ {
        "resourceType": "Parameters",
        "id": "4bc09cf3-762b-48bb-b957-9b86ca544f8b-parameters",
        "parameter": [ {
          "name": "subject",
          "valueString": "bf0f8968-c2c0-4416-88db-11ea3e3da968"
        } ]
      } ],
      "extension": [ {
        "url": "http://hl7.org/fhir/StructureDefinition/cqf-inputParameters",
        "valueReference": {
          "reference": "#4bc09cf3-762b-48bb-b957-9b86ca544f8b-parameters"
        }
      }, {
        "url": "http://hl7.org/fhir/us/cqfmeasures/StructureDefinition/cqfm-testCaseDescription",
        "valueMarkdown": "Male Pt with BPH Dx, Office Visit and multiple urinary assessments occuring on same day along with one occuring six months later which qualifies for numerator. "
      } ],
      "modifierExtension": [ {
        "url": "http://hl7.org/fhir/us/cqfmeasures/StructureDefinition/cqfm-isTestCase",
        "valueBoolean": true
      } ],
      "status": "complete",
      "type": "individual",
      "measure": "https://madie.cms.gov/Measure/CMS771FHIRUrinarySymptomScoreBPH",
      "period": {
        "start": "2026-01-01",
        "end": "2026-12-31"
      },
      "group": [ {
        "id": "Group_1",
        "population": [ {
          "id": "InitialPopulation_1",
          "code": {
            "coding": [ {
              "system": "http://terminology.hl7.org/CodeSystem/measure-population",
              "code": "initial-population",
              "display": "Initial Population"
            } ]
          },
          "count": 1
        }, {
          "id": "Denominator_1",
          "code": {
            "coding": [ {
              "system": "http://terminology.hl7.org/CodeSystem/measure-population",
              "code": "denominator",
              "display": "Denominator"
            } ]
          },
          "count": 1
        }, {
          "id": "DenominatorExclusion_1",
          "code": {
            "coding": [ {
              "system": "http://terminology.hl7.org/CodeSystem/measure-population",
              "code": "denominator-exclusion",
              "display": "Denominator Exclusion"
            } ]
          },
          "count": 0
        }, {
          "id": "Numerator_1",
          "code": {
            "coding": [ {
              "system": "http://terminology.hl7.org/CodeSystem/measure-population",
              "code": "numerator",
              "display": "Numerator"
            } ]
          },
          "count": 1
        } ],
        "measureScore": {
          "value": 1.0
        }
      } ],
      "evaluatedResource": [ {
        "reference": "Patient/bf0f8968-c2c0-4416-88db-11ea3e3da968"
      }, {
        "reference": "Observation/2e9bf559-e9ca-4bf6-be5f-b9b6bbcd6d5c"
      }, {
        "reference": "Observation/77616b68-7336-45e8-84a6-6e7193ae0593"
      }, {
        "reference": "Observation/8a87bb2e-3123-493c-996d-11574e374cc9"
      }, {
        "reference": "Observation/79eb8120-eb55-4c0b-a6ab-700ae09dedcc"
      }, {
        "reference": "Condition/d4cf0f82-6eb0-4d39-8f69-2b2daaca6473"
      }, {
        "reference": "Encounter/56206edb-2ea5-449e-80c5-7596baaaf185"
      } ]
    }
  } ]
}