{
  "resourceType": "Bundle",
  "id": "62aa63d1c4be4c506d4a534d",
  "type": "collection",
  "entry": [ {
    "fullUrl": "https://madie.cms.gov/Patient/7902e3dc-f3da-4cc2-9f2e-4a6c8cd33b88",
    "resource": {
      "resourceType": "Patient",
      "id": "7902e3dc-f3da-4cc2-9f2e-4a6c8cd33b88",
      "meta": {
        "profile": [ "http://hl7.org/fhir/us/qicore/StructureDefinition/qicore-patient" ]
      },
      "extension": [ {
        "url": "http://hl7.org/fhir/us/core/StructureDefinition/us-core-race",
        "extension": [ {
          "url": "ombCategory",
          "valueCoding": {
            "system": "urn:oid:2.16.840.1.113883.6.238",
            "code": "2106-3",
            "display": "White",
            "userSelected": true
          }
        }, {
          "url": "text",
          "valueString": "White"
        } ]
      }, {
        "url": "http://hl7.org/fhir/us/core/StructureDefinition/us-core-ethnicity",
        "extension": [ {
          "url": "ombCategory",
          "valueCoding": {
            "system": "urn:oid:2.16.840.1.113883.6.238",
            "code": "2186-5",
            "display": "Not Hispanic or Latino",
            "userSelected": true
          }
        }, {
          "url": "text",
          "valueString": "Not Hispanic or Latino"
        } ]
      } ],
      "identifier": [ {
        "type": {
          "coding": [ {
            "system": "http://terminology.hl7.org/CodeSystem/v2-0203",
            "code": "MR"
          } ]
        },
        "system": "https://bonnie-fhir.healthit.gov/",
        "value": "62aa63d1c4be4c506d4a534d"
      } ],
      "name": [ {
        "family": "NUMERPass",
        "given": [ "LowBMIAndInterventionPerformed" ]
      } ],
      "gender": "unknown",
      "birthDate": "1957-11-07"
    }
  }, {
    "fullUrl": "https://madie.cms.gov/Encounter/67cc10df-36bf-4aee-9f72-6fd174e00360",
    "resource": {
      "resourceType": "Encounter",
      "id": "67cc10df-36bf-4aee-9f72-6fd174e00360",
      "meta": {
        "profile": [ "http://hl7.org/fhir/us/qicore/StructureDefinition/qicore-encounter" ]
      },
      "status": "finished",
      "class": {
        "system": "http://terminology.hl7.org/CodeSystem/v3-ActCode",
        "code": "AMB",
        "display": "ambulatory"
      },
      "type": [ {
        "coding": [ {
          "system": "http://snomed.info/sct",
          "code": "10197000",
          "display": "Psychiatric interview and evaluation (procedure)",
          "userSelected": true
        } ]
      } ],
      "subject": {
        "reference": "Patient/7902e3dc-f3da-4cc2-9f2e-4a6c8cd33b88"
      },
      "period": {
        "start": "2026-06-15T08:00:00.000+00:00",
        "end": "2026-06-15T08:15:00.000+00:00"
      }
    }
  }, {
    "fullUrl": "https://madie.cms.gov/Observation/4d96f09f-622d-4691-b1c4-d1be124fbd11",
    "resource": {
      "resourceType": "Observation",
      "id": "4d96f09f-622d-4691-b1c4-d1be124fbd11",
      "meta": {
        "profile": [ "http://hl7.org/fhir/us/core/StructureDefinition/us-core-bmi" ]
      },
      "status": "final",
      "category": [ {
        "coding": [ {
          "system": "http://terminology.hl7.org/CodeSystem/observation-category",
          "code": "vital-signs",
          "display": "Vital Signs"
        } ]
      } ],
      "code": {
        "coding": [ {
          "system": "http://loinc.org",
          "code": "39156-5",
          "display": "Body mass index (BMI) [Ratio]",
          "userSelected": true
        } ]
      },
      "subject": {
        "reference": "Patient/7902e3dc-f3da-4cc2-9f2e-4a6c8cd33b88"
      },
      "effectiveDateTime": "2026-06-15T08:05:00.000+00:00",
      "valueQuantity": {
        "value": 17.0,
        "unit": "kg/m2",
        "system": "http://unitsofmeasure.org",
        "code": "kg/m2"
      }
    }
  }, {
    "fullUrl": "https://madie.cms.gov/Procedure/ec760f6d-2a5c-49d8-abc5-19bcbf8dc430",
    "resource": {
      "resourceType": "Procedure",
      "id": "ec760f6d-2a5c-49d8-abc5-19bcbf8dc430",
      "meta": {
        "profile": [ "http://hl7.org/fhir/us/qicore/StructureDefinition/qicore-procedure" ]
      },
      "extension": [ {
        "url": "http://hl7.org/fhir/us/qicore/StructureDefinition/qicore-recorded",
        "valueDateTime": "2026-02-01T09:00:00.000+00:00"
      } ],
      "status": "completed",
      "code": {
        "coding": [ {
          "system": "http://snomed.info/sct",
          "code": "182922004",
          "display": "Dietary regime (regime/therapy)",
          "userSelected": true
        } ]
      },
      "subject": {
        "reference": "Patient/7902e3dc-f3da-4cc2-9f2e-4a6c8cd33b88"
      },
      "performedDateTime": "2026-06-26T08:00:00.000+00:00",
      "reasonCode": [ {
        "coding": [ {
          "system": "http://hl7.org/fhir/sid/icd-10-cm",
          "code": "R63.6",
          "display": "Underweight",
          "userSelected": true
        } ]
      } ]
    }
  }, {
    "fullUrl": "https://madie.cms.gov/Coverage/7cb4bb6c-5318-42d2-afc7-342c36093265",
    "resource": {
      "resourceType": "Coverage",
      "id": "7cb4bb6c-5318-42d2-afc7-342c36093265",
      "meta": {
        "profile": [ "http://hl7.org/fhir/us/qicore/StructureDefinition/qicore-coverage" ]
      },
      "status": "active",
      "subscriberId": "123456",
      "beneficiary": {
        "reference": "Patient/7902e3dc-f3da-4cc2-9f2e-4a6c8cd33b88"
      },
      "relationship": {
        "coding": [ {
          "system": "http://terminology.hl7.org/CodeSystem/subscriber-relationship",
          "code": "self",
          "display": "Self",
          "userSelected": true
        } ]
      },
      "payor": [ {
        "reference": "Organization/b12e6d77-a782-4add-a2ca-ccda8b69ba3c"
      } ]
    }
  }, {
    "fullUrl": "https://madie.cms.gov/Organization/b12e6d77-a782-4add-a2ca-ccda8b69ba3c",
    "resource": {
      "resourceType": "Organization",
      "id": "b12e6d77-a782-4add-a2ca-ccda8b69ba3c",
      "meta": {
        "profile": [ "http://hl7.org/fhir/us/qicore/StructureDefinition/qicore-organization" ]
      },
      "identifier": [ {
        "use": "temp",
        "system": "urn:oid:2.16.840.1.113883.4.4",
        "value": "21-3259825"
      } ],
      "active": true,
      "type": [ {
        "coding": [ {
          "system": "http://terminology.hl7.org/CodeSystem/organization-type",
          "code": "pay",
          "display": "Payer"
        } ]
      } ],
      "name": "Blue Cross Blue Shield of Texas",
      "telecom": [ {
        "system": "phone",
        "value": "(+1) 972-766-6900"
      } ],
      "address": [ {
        "use": "billing",
        "type": "postal",
        "line": [ "P.O. Box 660044" ],
        "city": "Dallas",
        "state": "TX",
        "postalCode": "75266-0044",
        "country": "USA"
      } ]
    }
  }, {
    "fullUrl": "https://madie.cms.gov/MeasureReport/ff7090ac-931d-4cc7-83f7-ee15beec8ed1",
    "resource": {
      "resourceType": "MeasureReport",
      "id": "ff7090ac-931d-4cc7-83f7-ee15beec8ed1",
      "meta": {
        "profile": [ "http://hl7.org/fhir/us/cqfmeasures/StructureDefinition/test-case-cqfm" ]
      },
      "contained": [ {
        "resourceType": "Parameters",
        "id": "36a937bf-c023-4553-a48b-f20cfe8f37dd-parameters",
        "parameter": [ {
          "name": "subject",
          "valueString": "7902e3dc-f3da-4cc2-9f2e-4a6c8cd33b88"
        } ]
      } ],
      "extension": [ {
        "url": "http://hl7.org/fhir/StructureDefinition/cqf-inputParameters",
        "valueReference": {
          "reference": "#36a937bf-c023-4553-a48b-f20cfe8f37dd-parameters"
        }
      }, {
        "url": "http://hl7.org/fhir/us/cqfmeasures/StructureDefinition/cqfm-testCaseDescription",
        "valueMarkdown": "Adult, ambulatory enc., BMI low at 17 kg/m2 and interventions performed with reason code first minute of enc.\n\n"
      } ],
      "modifierExtension": [ {
        "url": "http://hl7.org/fhir/us/cqfmeasures/StructureDefinition/cqfm-isTestCase",
        "valueBoolean": true
      } ],
      "status": "complete",
      "type": "individual",
      "measure": "https://madie.cms.gov/Measure/CMS69FHIRPCSBMIScreenAndFollowUp",
      "period": {
        "start": "2026-01-01",
        "end": "2026-12-31"
      },
      "group": [ {
        "id": "Group_1",
        "population": [ {
          "id": "InitialPopulation_1",
          "code": {
            "coding": [ {
              "system": "http://terminology.hl7.org/CodeSystem/measure-population",
              "code": "initial-population",
              "display": "Initial Population"
            } ]
          },
          "count": 1
        }, {
          "id": "Denominator_1",
          "code": {
            "coding": [ {
              "system": "http://terminology.hl7.org/CodeSystem/measure-population",
              "code": "denominator",
              "display": "Denominator"
            } ]
          },
          "count": 1
        }, {
          "id": "DenominatorExclusion_1",
          "code": {
            "coding": [ {
              "system": "http://terminology.hl7.org/CodeSystem/measure-population",
              "code": "denominator-exclusion",
              "display": "Denominator Exclusion"
            } ]
          },
          "count": 0
        }, {
          "id": "Numerator_1",
          "code": {
            "coding": [ {
              "system": "http://terminology.hl7.org/CodeSystem/measure-population",
              "code": "numerator",
              "display": "Numerator"
            } ]
          },
          "count": 1
        }, {
          "id": "DenominatorException_1",
          "code": {
            "coding": [ {
              "system": "http://terminology.hl7.org/CodeSystem/measure-population",
              "code": "denominator-exception",
              "display": "Denominator Exception"
            } ]
          },
          "count": 0
        } ],
        "measureScore": {
          "value": 1.0
        }
      } ],
      "evaluatedResource": [ {
        "reference": "Patient/7902e3dc-f3da-4cc2-9f2e-4a6c8cd33b88"
      }, {
        "reference": "Encounter/67cc10df-36bf-4aee-9f72-6fd174e00360"
      }, {
        "reference": "Observation/4d96f09f-622d-4691-b1c4-d1be124fbd11"
      }, {
        "reference": "Procedure/ec760f6d-2a5c-49d8-abc5-19bcbf8dc430"
      }, {
        "reference": "Coverage/7cb4bb6c-5318-42d2-afc7-342c36093265"
      }, {
        "reference": "Organization/b12e6d77-a782-4add-a2ca-ccda8b69ba3c"
      } ]
    }
  } ]
}