{
  "resourceType": "Bundle",
  "id": "tests-0ef36c93-9547-4238-a59e-3f7c2fa37293-bundle",
  "type": "transaction",
  "entry": [ {
    "fullUrl": "https://madie.cms.gov/Patient/3ad2c243-5601-463f-99cb-def89646e3c3",
    "resource": {
      "resourceType": "Patient",
      "id": "3ad2c243-5601-463f-99cb-def89646e3c3",
      "meta": {
        "profile": [ "http://hl7.org/fhir/us/qicore/StructureDefinition/qicore-patient" ]
      },
      "extension": [ {
        "url": "http://hl7.org/fhir/us/core/StructureDefinition/us-core-race",
        "extension": [ {
          "url": "ombCategory",
          "valueCoding": {
            "system": "urn:oid:2.16.840.1.113883.6.238",
            "code": "2054-5",
            "display": "Black or African American",
            "userSelected": true
          }
        }, {
          "url": "text",
          "valueString": "Black or African American"
        } ]
      }, {
        "url": "http://hl7.org/fhir/us/core/StructureDefinition/us-core-ethnicity",
        "extension": [ {
          "url": "ombCategory",
          "valueCoding": {
            "system": "urn:oid:2.16.840.1.113883.6.238",
            "code": "2186-5",
            "display": "Not Hispanic or Latino",
            "userSelected": true
          }
        }, {
          "url": "text",
          "valueString": "Not Hispanic or Latino"
        } ]
      } ],
      "identifier": [ {
        "type": {
          "coding": [ {
            "system": "http://terminology.hl7.org/CodeSystem/v2-0203",
            "code": "MR"
          } ]
        },
        "system": "https://bonnie-fhir.healthit.gov/",
        "value": "61152a3b98086b7a79cbd7c1"
      } ],
      "active": true,
      "name": [ {
        "use": "usual",
        "family": "NUMERPass",
        "given": [ "Num3EncWithExtubationGT48Hrs" ]
      } ],
      "gender": "female",
      "birthDate": "1966-07-12"
    },
    "request": {
      "method": "PUT",
      "url": "Patient/3ad2c243-5601-463f-99cb-def89646e3c3"
    }
  }, {
    "fullUrl": "https://madie.cms.gov/Encounter/13b0a084-0019-42da-84b2-36525b655c2f",
    "resource": {
      "resourceType": "Encounter",
      "id": "13b0a084-0019-42da-84b2-36525b655c2f",
      "meta": {
        "profile": [ "http://hl7.org/fhir/us/qicore/StructureDefinition/qicore-encounter" ]
      },
      "status": "finished",
      "class": {
        "system": "http://terminology.hl7.org/CodeSystem/v3-ActCode",
        "code": "IMP",
        "display": "inpatient encounter"
      },
      "type": [ {
        "coding": [ {
          "system": "http://snomed.info/sct",
          "code": "112689000",
          "display": "Hospital admission, elective, with complete pre-admission work-up"
        } ],
        "text": "Hospital admission, elective, with complete pre-admission work-up"
      } ],
      "priority": {
        "coding": [ {
          "system": "http://snomed.info/sct",
          "code": "103390000"
        } ]
      },
      "subject": {
        "reference": "Patient/3ad2c243-5601-463f-99cb-def89646e3c3"
      },
      "period": {
        "start": "2026-04-10T08:00:00.000+00:00",
        "end": "2026-04-14T08:15:00.000+00:00"
      }
    },
    "request": {
      "method": "PUT",
      "url": "Encounter/13b0a084-0019-42da-84b2-36525b655c2f"
    }
  }, {
    "fullUrl": "https://madie.cms.gov/Procedure/e26fb41a-f680-4763-befa-d9f1e7907a06",
    "resource": {
      "resourceType": "Procedure",
      "id": "e26fb41a-f680-4763-befa-d9f1e7907a06",
      "meta": {
        "profile": [ "http://hl7.org/fhir/us/qicore/StructureDefinition/qicore-procedure" ]
      },
      "extension": [ {
        "url": "http://hl7.org/fhir/us/qicore/StructureDefinition/qicore-recorded",
        "valueDateTime": "2026-04-11T10:20:00.000+00:00"
      } ],
      "status": "completed",
      "category": {
        "coding": [ {
          "system": "http://snomed.info/sct",
          "code": "18286008",
          "display": "General or neuraxial anesthesia"
        } ]
      },
      "code": {
        "coding": [ {
          "system": "http://snomed.info/sct",
          "code": "112943005",
          "display": "Epidural injection of anesthetic substance,  diagnostic, caudal, continuous"
        } ]
      },
      "subject": {
        "reference": "Patient/3ad2c243-5601-463f-99cb-def89646e3c3"
      },
      "performedPeriod": {
        "start": "2026-04-11T08:00:00.000+00:00",
        "end": "2026-04-11T11:15:00.000+00:00"
      }
    },
    "request": {
      "method": "PUT",
      "url": "Procedure/e26fb41a-f680-4763-befa-d9f1e7907a06"
    }
  }, {
    "fullUrl": "https://madie.cms.gov/Procedure/6a4007a2-a5b6-451e-b876-d310eab505b9",
    "resource": {
      "resourceType": "Procedure",
      "id": "6a4007a2-a5b6-451e-b876-d310eab505b9",
      "meta": {
        "profile": [ "http://hl7.org/fhir/us/qicore/StructureDefinition/qicore-procedure" ]
      },
      "extension": [ {
        "url": "http://hl7.org/fhir/us/qicore/StructureDefinition/qicore-recorded",
        "valueDateTime": "2026-04-21T12:00:00.000+00:00"
      } ],
      "status": "completed",
      "code": {
        "coding": [ {
          "system": "http://snomed.info/sct",
          "code": "271280005",
          "display": "Removal of endotracheal tube (procedure)"
        } ],
        "text": "Removal of endotracheal tube (procedure)"
      },
      "subject": {
        "reference": "Patient/3ad2c243-5601-463f-99cb-def89646e3c3"
      },
      "performedDateTime": "2026-04-11T11:55:00.000+00:00"
    },
    "request": {
      "method": "PUT",
      "url": "Procedure/6a4007a2-a5b6-451e-b876-d310eab505b9"
    }
  }, {
    "fullUrl": "https://madie.cms.gov/Procedure/47ee4fef-767d-4198-86b2-9c513bc1ef5e",
    "resource": {
      "resourceType": "Procedure",
      "id": "47ee4fef-767d-4198-86b2-9c513bc1ef5e",
      "meta": {
        "profile": [ "http://hl7.org/fhir/us/qicore/StructureDefinition/qicore-procedure" ]
      },
      "extension": [ {
        "url": "http://hl7.org/fhir/us/qicore/StructureDefinition/qicore-recorded",
        "valueDateTime": "2026-04-21T12:00:00.000+00:00"
      } ],
      "status": "completed",
      "code": {
        "coding": [ {
          "system": "http://snomed.info/sct",
          "version": "2023-09",
          "code": "304577004",
          "display": "Humidified oxygen therapy (procedure)"
        } ],
        "text": "Humidified oxygen therapy (procedure)"
      },
      "subject": {
        "reference": "Patient/3ad2c243-5601-463f-99cb-def89646e3c3"
      },
      "performedDateTime": "2026-04-11T11:45:00.000+00:00"
    },
    "request": {
      "method": "PUT",
      "url": "Procedure/47ee4fef-767d-4198-86b2-9c513bc1ef5e"
    }
  }, {
    "fullUrl": "https://madie.cms.gov/MeasureReport/7e19d392-cd22-4d57-b660-26ff7dae050e",
    "resource": {
      "resourceType": "MeasureReport",
      "id": "7e19d392-cd22-4d57-b660-26ff7dae050e",
      "meta": {
        "profile": [ "http://hl7.org/fhir/us/cqfmeasures/StructureDefinition/test-case-cqfm" ]
      },
      "contained": [ {
        "resourceType": "Parameters",
        "id": "de439a14-d84d-4bbf-82f4-b8e5bdb09313-parameters",
        "parameter": [ {
          "name": "subject",
          "valueString": "3ad2c243-5601-463f-99cb-def89646e3c3"
        } ]
      } ],
      "extension": [ {
        "url": "http://hl7.org/fhir/StructureDefinition/cqf-inputParameters",
        "valueReference": {
          "reference": "#de439a14-d84d-4bbf-82f4-b8e5bdb09313-parameters"
        }
      }, {
        "url": "http://hl7.org/fhir/us/cqfmeasures/StructureDefinition/cqfm-testCaseDescription",
        "valueMarkdown": "Existing Extubation with preceding Noninvasive Oxygen causes numerator to fail."
      } ],
      "modifierExtension": [ {
        "url": "http://hl7.org/fhir/us/cqfmeasures/StructureDefinition/cqfm-isTestCase",
        "valueBoolean": true
      } ],
      "status": "complete",
      "type": "individual",
      "measure": "https://madie.cms.gov/Measure/CMS1218FHIRHHRF",
      "period": {
        "start": "2026-01-01",
        "end": "2026-12-31"
      },
      "group": [ {
        "id": "Group_1",
        "population": [ {
          "id": "InitialPopulation_1",
          "code": {
            "coding": [ {
              "system": "http://terminology.hl7.org/CodeSystem/measure-population",
              "code": "initial-population",
              "display": "Initial Population"
            } ]
          },
          "count": 1
        }, {
          "id": "Denominator_1",
          "code": {
            "coding": [ {
              "system": "http://terminology.hl7.org/CodeSystem/measure-population",
              "code": "denominator",
              "display": "Denominator"
            } ]
          },
          "count": 1
        }, {
          "id": "DenominatorExclusion_1",
          "code": {
            "coding": [ {
              "system": "http://terminology.hl7.org/CodeSystem/measure-population",
              "code": "denominator-exclusion",
              "display": "Denominator Exclusion"
            } ]
          },
          "count": 0
        }, {
          "id": "Numerator_1",
          "code": {
            "coding": [ {
              "system": "http://terminology.hl7.org/CodeSystem/measure-population",
              "code": "numerator",
              "display": "Numerator"
            } ]
          },
          "count": 0
        } ],
        "measureScore": {
          "value": 0.0
        }
      } ],
      "evaluatedResource": [ {
        "reference": "Patient/3ad2c243-5601-463f-99cb-def89646e3c3"
      }, {
        "reference": "Encounter/13b0a084-0019-42da-84b2-36525b655c2f"
      }, {
        "reference": "Procedure/e26fb41a-f680-4763-befa-d9f1e7907a06"
      }, {
        "reference": "Procedure/6a4007a2-a5b6-451e-b876-d310eab505b9"
      }, {
        "reference": "Procedure/47ee4fef-767d-4198-86b2-9c513bc1ef5e"
      } ]
    },
    "request": {
      "method": "PUT",
      "url": "MeasureReport/7e19d392-cd22-4d57-b660-26ff7dae050e"
    }
  } ]
}