{
  "resourceType": "Bundle",
  "id": "612e6edf02c62a011f2efe71",
  "type": "transaction",
  "entry": [ {
    "fullUrl": "https://madie.cms.gov/Patient/1a272e8f-438f-4e2a-9785-77d41bbeb7dc",
    "resource": {
      "resourceType": "Patient",
      "id": "1a272e8f-438f-4e2a-9785-77d41bbeb7dc",
      "meta": {
        "profile": [ "http://hl7.org/fhir/us/qicore/StructureDefinition/qicore-patient" ]
      },
      "text": {
        "status": "generated",
        "div": "<div xmlns=\"http://www.w3.org/1999/xhtml\"><div class=\"hapiHeaderText\">CMO2DaysAfterICU <b>DENEXFAIL </b></div><table class=\"hapiPropertyTable\"><tbody><tr><td>Identifier</td><td>74bf6554310ff4e21486ea2665992f0e</td></tr><tr><td>Date of birth</td><td><span>03 March 1974</span></td></tr></tbody></table></div>"
      },
      "extension": [ {
        "url": "http://hl7.org/fhir/us/core/StructureDefinition/us-core-race",
        "extension": [ {
          "url": "ombCategory",
          "valueCoding": {
            "system": "urn:oid:2.16.840.1.113883.6.238",
            "code": "1002-5",
            "display": "American Indian or Alaska Native",
            "userSelected": true
          }
        }, {
          "url": "text",
          "valueString": "American Indian or Alaska Native"
        } ]
      }, {
        "url": "http://hl7.org/fhir/us/core/StructureDefinition/us-core-ethnicity",
        "extension": [ {
          "url": "ombCategory",
          "valueCoding": {
            "system": "urn:oid:2.16.840.1.113883.6.238",
            "code": "2135-2",
            "display": "Hispanic or Latino",
            "userSelected": true
          }
        }, {
          "url": "text",
          "valueString": "Hispanic or Latino"
        } ]
      } ],
      "identifier": [ {
        "type": {
          "coding": [ {
            "system": "http://terminology.hl7.org/CodeSystem/v2-0203",
            "code": "MR"
          } ]
        },
        "system": "https://bonnie-fhir.healthit.gov/",
        "value": "612e6edf02c62a011f2efe71"
      } ],
      "active": true,
      "name": [ {
        "use": "usual",
        "family": "DENEXFail",
        "given": [ "CMO2DaysAfterICU" ]
      } ],
      "gender": "female",
      "birthDate": "1975-03-03"
    },
    "request": {
      "method": "PUT",
      "url": "Patient/1a272e8f-438f-4e2a-9785-77d41bbeb7dc"
    }
  }, {
    "fullUrl": "https://madie.cms.gov/Encounter/2ad33fb6-2c4b-42f7-9e15-cc11fe5fcce5",
    "resource": {
      "resourceType": "Encounter",
      "id": "2ad33fb6-2c4b-42f7-9e15-cc11fe5fcce5",
      "meta": {
        "profile": [ "http://hl7.org/fhir/us/qicore/StructureDefinition/qicore-encounter" ]
      },
      "status": "finished",
      "class": {
        "system": "http://terminology.hl7.org/CodeSystem/v3-ActCode",
        "code": "IMP",
        "display": "inpatient encounter"
      },
      "type": [ {
        "coding": [ {
          "system": "http://snomed.info/sct",
          "code": "8715000"
        } ]
      } ],
      "subject": {
        "reference": "Patient/1a272e8f-438f-4e2a-9785-77d41bbeb7dc"
      },
      "period": {
        "start": "2026-12-04T08:00:00.000+00:00",
        "end": "2026-12-30T08:15:00.000+00:00"
      },
      "length": {
        "value": 26.0,
        "unit": "days"
      },
      "location": [ {
        "location": {
          "reference": "Location/6b409c29-3206-4c18-9407-d52cb8ac1b75"
        },
        "period": {
          "start": "2026-12-06T08:00:00.000+00:00",
          "end": "2026-12-12T08:15:00.000+00:00"
        }
      } ]
    },
    "request": {
      "method": "PUT",
      "url": "Encounter/2ad33fb6-2c4b-42f7-9e15-cc11fe5fcce5"
    }
  }, {
    "fullUrl": "https://madie.cms.gov/ServiceRequest/84b69000-5088-494f-b404-ba1e6f86c1d9",
    "resource": {
      "resourceType": "ServiceRequest",
      "id": "84b69000-5088-494f-b404-ba1e6f86c1d9",
      "meta": {
        "profile": [ "http://hl7.org/fhir/us/qicore/StructureDefinition/qicore-servicerequest" ]
      },
      "status": "completed",
      "intent": "order",
      "code": {
        "coding": [ {
          "system": "http://snomed.info/sct",
          "code": "133918004"
        } ]
      },
      "subject": {
        "reference": "Patient/1a272e8f-438f-4e2a-9785-77d41bbeb7dc"
      },
      "authoredOn": "2026-12-08T10:00:00.000+00:00"
    },
    "request": {
      "method": "PUT",
      "url": "ServiceRequest/84b69000-5088-494f-b404-ba1e6f86c1d9"
    }
  }, {
    "fullUrl": "https://madie.cms.gov/Coverage/74b45927-78d0-4067-9d1a-64387bf4516f",
    "resource": {
      "resourceType": "Coverage",
      "id": "74b45927-78d0-4067-9d1a-64387bf4516f",
      "status": "active",
      "beneficiary": {
        "reference": "Patient/1a272e8f-438f-4e2a-9785-77d41bbeb7dc"
      },
      "period": {
        "start": "1975-03-03T08:00:00.000+00:00"
      },
      "payor": [ {
        "reference": "Organization/ca62f8a8-ca9d-4f45-95e4-20d5cf1162b4"
      } ]
    },
    "request": {
      "method": "PUT",
      "url": "Coverage/74b45927-78d0-4067-9d1a-64387bf4516f"
    }
  }, {
    "fullUrl": "https://madie.cms.gov/Location/6b409c29-3206-4c18-9407-d52cb8ac1b75",
    "resource": {
      "resourceType": "Location",
      "id": "6b409c29-3206-4c18-9407-d52cb8ac1b75",
      "meta": {
        "profile": [ "http://hl7.org/fhir/us/qicore/StructureDefinition/qicore-location" ]
      },
      "identifier": [ {
        "use": "usual",
        "system": "http://exampleoflocation.com",
        "value": "B1-S.F2"
      } ],
      "name": "Medical Surgical East, first floor",
      "type": [ {
        "coding": [ {
          "system": "https://www.cdc.gov/nhsn/cdaportal/terminology/codesystem/hsloc.html",
          "code": "1025-6",
          "display": "Trauma Critical Care",
          "userSelected": true
        } ]
      } ]
    },
    "request": {
      "method": "PUT",
      "url": "Location/6b409c29-3206-4c18-9407-d52cb8ac1b75"
    }
  }, {
    "fullUrl": "https://madie.cms.gov/Organization/ca62f8a8-ca9d-4f45-95e4-20d5cf1162b4",
    "resource": {
      "resourceType": "Organization",
      "id": "ca62f8a8-ca9d-4f45-95e4-20d5cf1162b4",
      "meta": {
        "profile": [ "http://hl7.org/fhir/us/qicore/StructureDefinition/qicore-organization" ]
      },
      "identifier": [ {
        "use": "temp",
        "system": "urn:oid:2.16.840.1.113883.4.4",
        "value": "21-3259825"
      } ],
      "active": true,
      "type": [ {
        "coding": [ {
          "system": "http://terminology.hl7.org/CodeSystem/organization-type",
          "code": "pay",
          "display": "Payer"
        } ]
      } ],
      "name": "Blue Cross Blue Shield of Texas",
      "telecom": [ {
        "system": "phone",
        "value": "(+1) 972-766-6900"
      } ],
      "address": [ {
        "use": "billing",
        "type": "postal",
        "line": [ "P.O. Box 660044" ],
        "city": "Dallas",
        "state": "TX",
        "postalCode": "75266-0044",
        "country": "USA"
      } ]
    },
    "request": {
      "method": "PUT",
      "url": "Organization/ca62f8a8-ca9d-4f45-95e4-20d5cf1162b4"
    }
  }, {
    "fullUrl": "https://madie.cms.gov/Practitioner/5330ae5a-4a2d-4ca9-914e-2547194c9a5a",
    "resource": {
      "resourceType": "Practitioner",
      "id": "5330ae5a-4a2d-4ca9-914e-2547194c9a5a",
      "identifier": [ {
        "system": "http://hl7.org/fhir/sid/us-npi",
        "value": "123456"
      } ],
      "name": [ {
        "family": "Evil",
        "prefix": [ "Dr" ]
      } ]
    },
    "request": {
      "method": "PUT",
      "url": "Practitioner/5330ae5a-4a2d-4ca9-914e-2547194c9a5a"
    }
  }, {
    "fullUrl": "https://madie.cms.gov/MeasureReport/ac9d91d1-3094-46b0-a40e-e4889e5aca39",
    "resource": {
      "resourceType": "MeasureReport",
      "id": "ac9d91d1-3094-46b0-a40e-e4889e5aca39",
      "meta": {
        "profile": [ "http://hl7.org/fhir/us/cqfmeasures/StructureDefinition/test-case-cqfm" ]
      },
      "contained": [ {
        "resourceType": "Parameters",
        "id": "b22a2a4e-70f1-4e5b-ae1c-e19fc2137bf3-parameters",
        "parameter": [ {
          "name": "subject",
          "valueString": "1a272e8f-438f-4e2a-9785-77d41bbeb7dc"
        } ]
      } ],
      "extension": [ {
        "url": "http://hl7.org/fhir/StructureDefinition/cqf-inputParameters",
        "valueReference": {
          "reference": "#b22a2a4e-70f1-4e5b-ae1c-e19fc2137bf3-parameters"
        }
      }, {
        "url": "http://hl7.org/fhir/us/cqfmeasures/StructureDefinition/cqfm-testCaseDescription",
        "valueMarkdown": "comfort measures 2 days after start of ICU admission\n"
      } ],
      "modifierExtension": [ {
        "url": "http://hl7.org/fhir/us/cqfmeasures/StructureDefinition/cqfm-isTestCase",
        "valueBoolean": true
      } ],
      "status": "complete",
      "type": "individual",
      "measure": "https://madie.cms.gov/Measure/CMS190FHIRVTEProphylaxisICU",
      "period": {
        "start": "2026-01-01",
        "end": "2026-12-31"
      },
      "group": [ {
        "id": "Group_1",
        "population": [ {
          "id": "InitialPopulation_1",
          "code": {
            "coding": [ {
              "system": "http://terminology.hl7.org/CodeSystem/measure-population",
              "code": "initial-population",
              "display": "Initial Population"
            } ]
          },
          "count": 1
        }, {
          "id": "Denominator_1",
          "code": {
            "coding": [ {
              "system": "http://terminology.hl7.org/CodeSystem/measure-population",
              "code": "denominator",
              "display": "Denominator"
            } ]
          },
          "count": 1
        }, {
          "id": "DenominatorExclusion_1",
          "code": {
            "coding": [ {
              "system": "http://terminology.hl7.org/CodeSystem/measure-population",
              "code": "denominator-exclusion",
              "display": "Denominator Exclusion"
            } ]
          },
          "count": 0
        }, {
          "id": "Numerator_1",
          "code": {
            "coding": [ {
              "system": "http://terminology.hl7.org/CodeSystem/measure-population",
              "code": "numerator",
              "display": "Numerator"
            } ]
          },
          "count": 0
        }, {
          "id": "DenominatorException_1",
          "code": {
            "coding": [ {
              "system": "http://terminology.hl7.org/CodeSystem/measure-population",
              "code": "denominator-exception",
              "display": "Denominator Exception"
            } ]
          },
          "count": 0
        } ],
        "measureScore": {
          "value": 0.0
        }
      } ],
      "evaluatedResource": [ {
        "reference": "Patient/1a272e8f-438f-4e2a-9785-77d41bbeb7dc"
      }, {
        "reference": "Encounter/2ad33fb6-2c4b-42f7-9e15-cc11fe5fcce5"
      }, {
        "reference": "ServiceRequest/84b69000-5088-494f-b404-ba1e6f86c1d9"
      }, {
        "reference": "Coverage/74b45927-78d0-4067-9d1a-64387bf4516f"
      }, {
        "reference": "Location/6b409c29-3206-4c18-9407-d52cb8ac1b75"
      }, {
        "reference": "Organization/ca62f8a8-ca9d-4f45-95e4-20d5cf1162b4"
      }, {
        "reference": "Practitioner/5330ae5a-4a2d-4ca9-914e-2547194c9a5a"
      } ]
    },
    "request": {
      "method": "PUT",
      "url": "MeasureReport/ac9d91d1-3094-46b0-a40e-e4889e5aca39"
    }
  } ]
}