{
  "resourceType": "Bundle",
  "id": "62aa5328c4be4c506d4a533c",
  "type": "collection",
  "entry": [ {
    "fullUrl": "https://madie.cms.gov/Patient/e25fc2f1-0083-4375-8fc3-9164a5aee53d",
    "resource": {
      "resourceType": "Patient",
      "id": "e25fc2f1-0083-4375-8fc3-9164a5aee53d",
      "meta": {
        "profile": [ "http://hl7.org/fhir/us/qicore/StructureDefinition/qicore-patient" ]
      },
      "extension": [ {
        "url": "http://hl7.org/fhir/us/core/StructureDefinition/us-core-race",
        "extension": [ {
          "url": "ombCategory",
          "valueCoding": {
            "system": "urn:oid:2.16.840.1.113883.6.238",
            "code": "2028-9",
            "display": "Asian",
            "userSelected": true
          }
        }, {
          "url": "text",
          "valueString": "Asian"
        } ]
      }, {
        "url": "http://hl7.org/fhir/us/core/StructureDefinition/us-core-ethnicity",
        "extension": [ {
          "url": "ombCategory",
          "valueCoding": {
            "system": "urn:oid:2.16.840.1.113883.6.238",
            "code": "2186-5",
            "display": "Not Hispanic or Latino",
            "userSelected": true
          }
        }, {
          "url": "text",
          "valueString": "Not Hispanic or Latino"
        } ]
      } ],
      "identifier": [ {
        "type": {
          "coding": [ {
            "system": "http://terminology.hl7.org/CodeSystem/v2-0203",
            "code": "MR"
          } ]
        },
        "system": "https://bonnie-fhir.healthit.gov/",
        "value": "62aa5328c4be4c506d4a533c"
      } ],
      "name": [ {
        "family": "DENEXPass",
        "given": [ "Pregnant" ]
      } ],
      "gender": "female",
      "birthDate": "2001-01-01"
    }
  }, {
    "fullUrl": "https://madie.cms.gov/Encounter/8b874483-4566-480d-84a8-ce99a4a17ece",
    "resource": {
      "resourceType": "Encounter",
      "id": "8b874483-4566-480d-84a8-ce99a4a17ece",
      "meta": {
        "profile": [ "http://hl7.org/fhir/us/qicore/StructureDefinition/qicore-encounter" ]
      },
      "status": "finished",
      "class": {
        "system": "http://terminology.hl7.org/CodeSystem/v3-ActCode",
        "code": "AMB",
        "display": "ambulatory"
      },
      "type": [ {
        "coding": [ {
          "system": "http://snomed.info/sct",
          "code": "10197000",
          "display": "Psychiatric interview and evaluation (procedure)",
          "userSelected": true
        } ]
      } ],
      "subject": {
        "reference": "Patient/e25fc2f1-0083-4375-8fc3-9164a5aee53d"
      },
      "period": {
        "start": "2026-01-01T00:00:00.000+00:00",
        "end": "2026-01-01T00:30:00.000+00:00"
      }
    }
  }, {
    "fullUrl": "https://madie.cms.gov/Observation/a1cf91ec-f2a5-4764-8272-111d16783947",
    "resource": {
      "resourceType": "Observation",
      "id": "a1cf91ec-f2a5-4764-8272-111d16783947",
      "meta": {
        "profile": [ "http://hl7.org/fhir/us/core/StructureDefinition/us-core-observation-pregnancystatus" ]
      },
      "status": "final",
      "category": [ {
        "coding": [ {
          "system": "http://terminology.hl7.org/CodeSystem/observation-category",
          "code": "social-history",
          "display": "Social History"
        } ],
        "text": "Social History"
      } ],
      "code": {
        "coding": [ {
          "system": "http://loinc.org",
          "code": "82810-3",
          "display": "Pregnancy status"
        } ],
        "text": "Pregnancy Status"
      },
      "subject": {
        "reference": "Patient/e25fc2f1-0083-4375-8fc3-9164a5aee53d"
      },
      "effectiveDateTime": "2026-01-24T00:00:00.000+00:00",
      "valueCodeableConcept": {
        "coding": [ {
          "system": "http://snomed.info/sct",
          "version": "http://snomed.info/sct/731000124108",
          "code": "77386006",
          "display": "Pregnant"
        } ],
        "text": "Pregnant"
      }
    }
  }, {
    "fullUrl": "https://madie.cms.gov/Coverage/3854a404-0472-42ad-8d53-1f031a72c48d",
    "resource": {
      "resourceType": "Coverage",
      "id": "3854a404-0472-42ad-8d53-1f031a72c48d",
      "meta": {
        "profile": [ "http://hl7.org/fhir/us/qicore/StructureDefinition/qicore-coverage" ]
      },
      "status": "active",
      "subscriberId": "123456",
      "beneficiary": {
        "reference": "Patient/e25fc2f1-0083-4375-8fc3-9164a5aee53d"
      },
      "relationship": {
        "coding": [ {
          "system": "http://terminology.hl7.org/CodeSystem/subscriber-relationship",
          "code": "self",
          "display": "Self",
          "userSelected": true
        } ]
      },
      "payor": [ {
        "reference": "Organization/bcaa2d03-240f-4c42-9891-60265b3f99fe"
      } ]
    }
  }, {
    "fullUrl": "https://madie.cms.gov/Organization/bcaa2d03-240f-4c42-9891-60265b3f99fe",
    "resource": {
      "resourceType": "Organization",
      "id": "bcaa2d03-240f-4c42-9891-60265b3f99fe",
      "meta": {
        "profile": [ "http://hl7.org/fhir/us/qicore/StructureDefinition/qicore-organization" ]
      },
      "identifier": [ {
        "use": "temp",
        "system": "urn:oid:2.16.840.1.113883.4.4",
        "value": "21-3259825"
      } ],
      "active": true,
      "type": [ {
        "coding": [ {
          "system": "http://terminology.hl7.org/CodeSystem/organization-type",
          "code": "pay",
          "display": "Payer"
        } ]
      } ],
      "name": "Blue Cross Blue Shield of Texas",
      "telecom": [ {
        "system": "phone",
        "value": "(+1) 972-766-6900"
      } ],
      "address": [ {
        "use": "billing",
        "type": "postal",
        "line": [ "P.O. Box 660044" ],
        "city": "Dallas",
        "state": "TX",
        "postalCode": "75266-0044",
        "country": "USA"
      } ]
    }
  }, {
    "fullUrl": "https://madie.cms.gov/MeasureReport/132b5702-5c1a-47fc-8326-cb020958dff5",
    "resource": {
      "resourceType": "MeasureReport",
      "id": "132b5702-5c1a-47fc-8326-cb020958dff5",
      "meta": {
        "profile": [ "http://hl7.org/fhir/us/cqfmeasures/StructureDefinition/test-case-cqfm" ]
      },
      "contained": [ {
        "resourceType": "Parameters",
        "id": "34fcd1ff-52f5-43ad-9a61-54cbf3eea20c-parameters",
        "parameter": [ {
          "name": "subject",
          "valueString": "e25fc2f1-0083-4375-8fc3-9164a5aee53d"
        } ]
      } ],
      "extension": [ {
        "url": "http://hl7.org/fhir/StructureDefinition/cqf-inputParameters",
        "valueReference": {
          "reference": "#34fcd1ff-52f5-43ad-9a61-54cbf3eea20c-parameters"
        }
      }, {
        "url": "http://hl7.org/fhir/us/cqfmeasures/StructureDefinition/cqfm-testCaseDescription",
        "valueMarkdown": "Adult, enc., first 30 minutes of first day  of encounter of MP. Patient is pregnant so is excluded. "
      } ],
      "modifierExtension": [ {
        "url": "http://hl7.org/fhir/us/cqfmeasures/StructureDefinition/cqfm-isTestCase",
        "valueBoolean": true
      } ],
      "status": "complete",
      "type": "individual",
      "measure": "https://madie.cms.gov/Measure/CMS69FHIRPCSBMIScreenAndFollowUp",
      "period": {
        "start": "2026-01-01",
        "end": "2026-12-31"
      },
      "group": [ {
        "id": "Group_1",
        "population": [ {
          "id": "InitialPopulation_1",
          "code": {
            "coding": [ {
              "system": "http://terminology.hl7.org/CodeSystem/measure-population",
              "code": "initial-population",
              "display": "Initial Population"
            } ]
          },
          "count": 1
        }, {
          "id": "Denominator_1",
          "code": {
            "coding": [ {
              "system": "http://terminology.hl7.org/CodeSystem/measure-population",
              "code": "denominator",
              "display": "Denominator"
            } ]
          },
          "count": 1
        }, {
          "id": "DenominatorExclusion_1",
          "code": {
            "coding": [ {
              "system": "http://terminology.hl7.org/CodeSystem/measure-population",
              "code": "denominator-exclusion",
              "display": "Denominator Exclusion"
            } ]
          },
          "count": 1
        }, {
          "id": "Numerator_1",
          "code": {
            "coding": [ {
              "system": "http://terminology.hl7.org/CodeSystem/measure-population",
              "code": "numerator",
              "display": "Numerator"
            } ]
          },
          "count": 0
        }, {
          "id": "DenominatorException_1",
          "code": {
            "coding": [ {
              "system": "http://terminology.hl7.org/CodeSystem/measure-population",
              "code": "denominator-exception",
              "display": "Denominator Exception"
            } ]
          },
          "count": 0
        } ],
        "measureScore": {
          "value": 1.0
        }
      } ],
      "evaluatedResource": [ {
        "reference": "Patient/e25fc2f1-0083-4375-8fc3-9164a5aee53d"
      }, {
        "reference": "Encounter/8b874483-4566-480d-84a8-ce99a4a17ece"
      }, {
        "reference": "Observation/a1cf91ec-f2a5-4764-8272-111d16783947"
      }, {
        "reference": "Coverage/3854a404-0472-42ad-8d53-1f031a72c48d"
      }, {
        "reference": "Organization/bcaa2d03-240f-4c42-9891-60265b3f99fe"
      } ]
    }
  } ]
}