{
  "resourceType": "Bundle",
  "id": "NUMPass-InitHOOSSameDayAsTHAFUHOOS300DaysAfterTHA",
  "type": "collection",
  "entry": [ {
    "fullUrl": "https://madie.cms.gov/Patient/c19b82ba-741a-4125-8118-5558010a0016",
    "resource": {
      "resourceType": "Patient",
      "id": "c19b82ba-741a-4125-8118-5558010a0016",
      "meta": {
        "profile": [ "http://hl7.org/fhir/us/qicore/StructureDefinition/qicore-patient" ]
      },
      "extension": [ {
        "url": "http://hl7.org/fhir/us/core/StructureDefinition/us-core-race",
        "extension": [ {
          "url": "ombCategory",
          "valueCoding": {
            "system": "urn:oid:2.16.840.1.113883.6.238",
            "code": "2028-9",
            "display": "Asian"
          }
        }, {
          "url": "text",
          "valueString": "Asian"
        } ]
      }, {
        "url": "http://hl7.org/fhir/us/core/StructureDefinition/us-core-ethnicity",
        "extension": [ {
          "url": "ombCategory",
          "valueCoding": {
            "system": "urn:oid:2.16.840.1.113883.6.238",
            "code": "2135-2",
            "display": "Hispanic or Latino"
          }
        }, {
          "url": "text",
          "valueString": "Hispanic or Latino"
        } ]
      } ],
      "identifier": [ {
        "system": "http://hospital.smarthealthit.org",
        "value": "999999995"
      } ],
      "name": [ {
        "family": "Bertha",
        "given": [ "Betty" ]
      } ],
      "gender": "female",
      "birthDate": "2007-01-01"
    }
  }, {
    "fullUrl": "https://madie.cms.gov/Procedure/4e3a8e4a-4808-4df4-bde4-f57aee386713",
    "resource": {
      "resourceType": "Procedure",
      "id": "4e3a8e4a-4808-4df4-bde4-f57aee386713",
      "meta": {
        "profile": [ "http://hl7.org/fhir/us/qicore/StructureDefinition/qicore-procedure" ]
      },
      "extension": [ {
        "url": "http://hl7.org/fhir/us/qicore/StructureDefinition/qicore-recorded",
        "valueDateTime": "2024-11-01T00:00:00.000+00:00"
      } ],
      "status": "completed",
      "code": {
        "coding": [ {
          "system": "http://www.cms.gov/Medicare/Coding/ICD10",
          "code": "0SR9019",
          "display": "Replacement of Right Hip Joint with Metal Synthetic Substitute, Cemented, Open Approach"
        } ]
      },
      "subject": {
        "reference": "Patient/c19b82ba-741a-4125-8118-5558010a0016"
      },
      "performedPeriod": {
        "start": "2024-11-01T00:00:00.000+00:00",
        "end": "2024-11-01T01:00:00.000+00:00"
      }
    }
  }, {
    "fullUrl": "https://madie.cms.gov/Encounter/2f93444e-5bcb-42ab-98d8-cec630bca243",
    "resource": {
      "resourceType": "Encounter",
      "id": "2f93444e-5bcb-42ab-98d8-cec630bca243",
      "meta": {
        "profile": [ "http://hl7.org/fhir/us/qicore/StructureDefinition/qicore-encounter" ]
      },
      "status": "finished",
      "class": {
        "system": "http://terminology.hl7.org/CodeSystem/v3-ActCode",
        "code": "AMB",
        "display": "ambulatory"
      },
      "type": [ {
        "coding": [ {
          "system": "http://snomed.info/sct",
          "version": "http://snomed.info/sct/731000124108/version/20250301",
          "code": "281036007",
          "display": "Follow-up consultation (procedure)"
        } ]
      } ],
      "subject": {
        "reference": "Patient/c19b82ba-741a-4125-8118-5558010a0016"
      },
      "period": {
        "start": "2025-11-01T00:00:00.000+00:00",
        "end": "2025-11-01T01:15:00.000+00:00"
      }
    }
  }, {
    "fullUrl": "https://madie.cms.gov/Observation/d035f7c6-8ce8-4527-9fbc-45ef847d5fe7",
    "resource": {
      "resourceType": "Observation",
      "id": "d035f7c6-8ce8-4527-9fbc-45ef847d5fe7",
      "meta": {
        "profile": [ "http://hl7.org/fhir/us/qicore/StructureDefinition/qicore-observation-screening-assessment" ]
      },
      "status": "final",
      "category": [ {
        "coding": [ {
          "system": "http://terminology.hl7.org/CodeSystem/observation-category",
          "code": "survey"
        } ]
      } ],
      "code": {
        "coding": [ {
          "system": "http://loinc.org",
          "code": "72093-8",
          "display": "Quality of life score [HOOS]"
        } ]
      },
      "subject": {
        "reference": "Patient/c19b82ba-741a-4125-8118-5558010a0016"
      },
      "effectivePeriod": {
        "start": "2024-11-01T00:00:00.000+00:00",
        "end": "2024-11-01T01:00:00.000+00:00"
      },
      "valueInteger": 60
    }
  }, {
    "fullUrl": "https://madie.cms.gov/Observation/0ee7fb02-bb91-464a-93d2-40d59e0c1b63",
    "resource": {
      "resourceType": "Observation",
      "id": "0ee7fb02-bb91-464a-93d2-40d59e0c1b63",
      "meta": {
        "profile": [ "http://hl7.org/fhir/us/qicore/StructureDefinition/qicore-observation-screening-assessment" ]
      },
      "status": "final",
      "category": [ {
        "coding": [ {
          "system": "http://terminology.hl7.org/CodeSystem/observation-category",
          "code": "survey"
        } ]
      } ],
      "code": {
        "coding": [ {
          "system": "http://loinc.org",
          "code": "72094-6",
          "display": "Sport-recreation score [HOOS]"
        } ]
      },
      "subject": {
        "reference": "Patient/c19b82ba-741a-4125-8118-5558010a0016"
      },
      "effectivePeriod": {
        "start": "2024-11-01T00:00:00.000+00:00",
        "end": "2024-11-01T01:00:00.000+00:00"
      },
      "valueInteger": 60
    }
  }, {
    "fullUrl": "https://madie.cms.gov/Observation/c0463f78-d8ce-4bbe-a8b0-688c0ee8b5b9",
    "resource": {
      "resourceType": "Observation",
      "id": "c0463f78-d8ce-4bbe-a8b0-688c0ee8b5b9",
      "meta": {
        "profile": [ "http://hl7.org/fhir/us/qicore/StructureDefinition/qicore-observation-screening-assessment" ]
      },
      "status": "final",
      "category": [ {
        "coding": [ {
          "system": "http://terminology.hl7.org/CodeSystem/observation-category",
          "code": "survey"
        } ]
      } ],
      "code": {
        "coding": [ {
          "system": "http://loinc.org",
          "code": "72095-3",
          "display": "Activities of daily living score [HOOS]"
        } ]
      },
      "subject": {
        "reference": "Patient/c19b82ba-741a-4125-8118-5558010a0016"
      },
      "effectivePeriod": {
        "start": "2024-11-01T00:00:00.000+00:00",
        "end": "2024-11-01T01:00:00.000+00:00"
      },
      "valueInteger": 60
    }
  }, {
    "fullUrl": "https://madie.cms.gov/Observation/cc16707a-1a37-44a7-94a9-1e965bce94b6",
    "resource": {
      "resourceType": "Observation",
      "id": "cc16707a-1a37-44a7-94a9-1e965bce94b6",
      "meta": {
        "profile": [ "http://hl7.org/fhir/us/qicore/StructureDefinition/qicore-observation-screening-assessment" ]
      },
      "status": "final",
      "category": [ {
        "coding": [ {
          "system": "http://terminology.hl7.org/CodeSystem/observation-category",
          "code": "survey"
        } ]
      } ],
      "code": {
        "coding": [ {
          "system": "http://loinc.org",
          "code": "72096-1",
          "display": "Symptoms score [HOOS]"
        } ]
      },
      "subject": {
        "reference": "Patient/c19b82ba-741a-4125-8118-5558010a0016"
      },
      "effectivePeriod": {
        "start": "2024-11-01T00:00:00.000+00:00",
        "end": "2024-11-01T01:00:00.000+00:00"
      },
      "valueInteger": 60
    }
  }, {
    "fullUrl": "https://madie.cms.gov/Observation/e86e4ce1-10e9-41c1-8bd7-8f45cf4d2209",
    "resource": {
      "resourceType": "Observation",
      "id": "e86e4ce1-10e9-41c1-8bd7-8f45cf4d2209",
      "meta": {
        "profile": [ "http://hl7.org/fhir/us/qicore/StructureDefinition/qicore-observation-screening-assessment" ]
      },
      "status": "final",
      "category": [ {
        "coding": [ {
          "system": "http://terminology.hl7.org/CodeSystem/observation-category",
          "code": "survey"
        } ]
      } ],
      "code": {
        "coding": [ {
          "system": "http://loinc.org",
          "code": "72097-9",
          "display": "Pain score [HOOS]"
        } ]
      },
      "subject": {
        "reference": "Patient/c19b82ba-741a-4125-8118-5558010a0016"
      },
      "effectivePeriod": {
        "start": "2024-11-01T00:00:00.000+00:00",
        "end": "2024-11-01T01:00:00.000+00:00"
      },
      "valueInteger": 60
    }
  }, {
    "fullUrl": "https://madie.cms.gov/Observation/57c18600-f6b4-4054-b821-1a9d5b3a5c9d",
    "resource": {
      "resourceType": "Observation",
      "id": "57c18600-f6b4-4054-b821-1a9d5b3a5c9d",
      "meta": {
        "profile": [ "http://hl7.org/fhir/us/qicore/StructureDefinition/qicore-observation-screening-assessment" ]
      },
      "status": "final",
      "category": [ {
        "coding": [ {
          "system": "http://terminology.hl7.org/CodeSystem/observation-category",
          "code": "survey"
        } ]
      } ],
      "code": {
        "coding": [ {
          "system": "http://loinc.org",
          "code": "72093-8",
          "display": "Quality of life score [HOOS]"
        } ]
      },
      "subject": {
        "reference": "Patient/c19b82ba-741a-4125-8118-5558010a0016"
      },
      "effectivePeriod": {
        "start": "2025-08-28T00:00:00.000+00:00",
        "end": "2025-08-28T01:00:00.000+00:00"
      },
      "valueInteger": 60
    }
  }, {
    "fullUrl": "https://madie.cms.gov/Observation/a7391bbf-adbd-442d-9bed-f02c61b8203f",
    "resource": {
      "resourceType": "Observation",
      "id": "a7391bbf-adbd-442d-9bed-f02c61b8203f",
      "meta": {
        "profile": [ "http://hl7.org/fhir/us/qicore/StructureDefinition/qicore-observation-screening-assessment" ]
      },
      "status": "final",
      "category": [ {
        "coding": [ {
          "system": "http://terminology.hl7.org/CodeSystem/observation-category",
          "code": "survey"
        } ]
      } ],
      "code": {
        "coding": [ {
          "system": "http://loinc.org",
          "code": "72094-6",
          "display": "Sport-recreation score [HOOS]"
        } ]
      },
      "subject": {
        "reference": "Patient/c19b82ba-741a-4125-8118-5558010a0016"
      },
      "effectivePeriod": {
        "start": "2025-08-28T00:00:00.000+00:00",
        "end": "2025-08-28T01:00:00.000+00:00"
      },
      "valueInteger": 60
    }
  }, {
    "fullUrl": "https://madie.cms.gov/Observation/5c8a45dc-c08e-4c91-9948-841e90c4172a",
    "resource": {
      "resourceType": "Observation",
      "id": "5c8a45dc-c08e-4c91-9948-841e90c4172a",
      "meta": {
        "profile": [ "http://hl7.org/fhir/us/qicore/StructureDefinition/qicore-observation-screening-assessment" ]
      },
      "status": "final",
      "category": [ {
        "coding": [ {
          "system": "http://terminology.hl7.org/CodeSystem/observation-category",
          "code": "survey"
        } ]
      } ],
      "code": {
        "coding": [ {
          "system": "http://loinc.org",
          "code": "72095-3",
          "display": "Activities of daily living score [HOOS]"
        } ]
      },
      "subject": {
        "reference": "Patient/c19b82ba-741a-4125-8118-5558010a0016"
      },
      "effectivePeriod": {
        "start": "2025-08-28T00:00:00.000+00:00",
        "end": "2025-08-28T01:00:00.000+00:00"
      },
      "valueInteger": 60
    }
  }, {
    "fullUrl": "https://madie.cms.gov/Observation/d1ef6204-ebbd-44a3-bca9-56e3a897a4cd",
    "resource": {
      "resourceType": "Observation",
      "id": "d1ef6204-ebbd-44a3-bca9-56e3a897a4cd",
      "meta": {
        "profile": [ "http://hl7.org/fhir/us/qicore/StructureDefinition/qicore-observation-screening-assessment" ]
      },
      "status": "final",
      "category": [ {
        "coding": [ {
          "system": "http://terminology.hl7.org/CodeSystem/observation-category",
          "code": "survey"
        } ]
      } ],
      "code": {
        "coding": [ {
          "system": "http://loinc.org",
          "code": "72096-1",
          "display": "Symptoms score [HOOS]"
        } ]
      },
      "subject": {
        "reference": "Patient/c19b82ba-741a-4125-8118-5558010a0016"
      },
      "effectivePeriod": {
        "start": "2025-08-28T00:00:00.000+00:00",
        "end": "2025-08-28T01:00:00.000+00:00"
      },
      "valueInteger": 60
    }
  }, {
    "fullUrl": "https://madie.cms.gov/Observation/64a02972-2c52-4a81-9f21-00ae1c729099",
    "resource": {
      "resourceType": "Observation",
      "id": "64a02972-2c52-4a81-9f21-00ae1c729099",
      "meta": {
        "profile": [ "http://hl7.org/fhir/us/qicore/StructureDefinition/qicore-observation-screening-assessment" ]
      },
      "status": "final",
      "category": [ {
        "coding": [ {
          "system": "http://terminology.hl7.org/CodeSystem/observation-category",
          "code": "survey"
        } ]
      } ],
      "code": {
        "coding": [ {
          "system": "http://loinc.org",
          "code": "72097-9",
          "display": "Pain score [HOOS]"
        } ]
      },
      "subject": {
        "reference": "Patient/c19b82ba-741a-4125-8118-5558010a0016"
      },
      "effectivePeriod": {
        "start": "2025-08-28T00:00:00.000+00:00",
        "end": "2025-08-28T01:00:00.000+00:00"
      },
      "valueInteger": 60
    }
  }, {
    "fullUrl": "https://madie.cms.gov/MeasureReport/20748fd5-39c1-455c-bf5b-7539428cbaff",
    "resource": {
      "resourceType": "MeasureReport",
      "id": "20748fd5-39c1-455c-bf5b-7539428cbaff",
      "meta": {
        "profile": [ "http://hl7.org/fhir/us/cqfmeasures/StructureDefinition/test-case-cqfm" ]
      },
      "contained": [ {
        "resourceType": "Parameters",
        "id": "dc8da5d0-9bc1-4c24-b9df-3b74a851f0ae-parameters",
        "parameter": [ {
          "name": "subject",
          "valueString": "c19b82ba-741a-4125-8118-5558010a0016"
        } ]
      } ],
      "extension": [ {
        "url": "http://hl7.org/fhir/StructureDefinition/cqf-inputParameters",
        "valueReference": {
          "reference": "#dc8da5d0-9bc1-4c24-b9df-3b74a851f0ae-parameters"
        }
      }, {
        "url": "http://hl7.org/fhir/us/cqfmeasures/StructureDefinition/cqfm-testCaseDescription",
        "valueMarkdown": "Patient w/ a THA Procedure 11/1, Initial Hip Assessment HOOS Same day as THA Procedure(11/1), and FollowUp Hip Assessment HOOS 300 days after THA Procedure (8/27)"
      } ],
      "modifierExtension": [ {
        "url": "http://hl7.org/fhir/us/cqfmeasures/StructureDefinition/cqfm-isTestCase",
        "valueBoolean": true
      } ],
      "status": "complete",
      "type": "individual",
      "measure": "https://madie.cms.gov/Measure/CMS56FHIRFuncStatHipReplacement",
      "period": {
        "start": "2026-01-01",
        "end": "2026-12-31"
      },
      "group": [ {
        "id": "Group_1",
        "population": [ {
          "id": "InitialPopulation_1",
          "code": {
            "coding": [ {
              "system": "http://terminology.hl7.org/CodeSystem/measure-population",
              "code": "initial-population",
              "display": "Initial Population"
            } ]
          },
          "count": 1
        }, {
          "id": "Denominator_1",
          "code": {
            "coding": [ {
              "system": "http://terminology.hl7.org/CodeSystem/measure-population",
              "code": "denominator",
              "display": "Denominator"
            } ]
          },
          "count": 1
        }, {
          "id": "DenominatorExclusion_1",
          "code": {
            "coding": [ {
              "system": "http://terminology.hl7.org/CodeSystem/measure-population",
              "code": "denominator-exclusion",
              "display": "Denominator Exclusion"
            } ]
          },
          "count": 0
        }, {
          "id": "Numerator_1",
          "code": {
            "coding": [ {
              "system": "http://terminology.hl7.org/CodeSystem/measure-population",
              "code": "numerator",
              "display": "Numerator"
            } ]
          },
          "count": 1
        } ],
        "measureScore": {
          "value": 1.0
        }
      } ],
      "evaluatedResource": [ {
        "reference": "Patient/c19b82ba-741a-4125-8118-5558010a0016"
      }, {
        "reference": "Procedure/4e3a8e4a-4808-4df4-bde4-f57aee386713"
      }, {
        "reference": "Encounter/2f93444e-5bcb-42ab-98d8-cec630bca243"
      }, {
        "reference": "Observation/d035f7c6-8ce8-4527-9fbc-45ef847d5fe7"
      }, {
        "reference": "Observation/0ee7fb02-bb91-464a-93d2-40d59e0c1b63"
      }, {
        "reference": "Observation/c0463f78-d8ce-4bbe-a8b0-688c0ee8b5b9"
      }, {
        "reference": "Observation/cc16707a-1a37-44a7-94a9-1e965bce94b6"
      }, {
        "reference": "Observation/e86e4ce1-10e9-41c1-8bd7-8f45cf4d2209"
      }, {
        "reference": "Observation/57c18600-f6b4-4054-b821-1a9d5b3a5c9d"
      }, {
        "reference": "Observation/a7391bbf-adbd-442d-9bed-f02c61b8203f"
      }, {
        "reference": "Observation/5c8a45dc-c08e-4c91-9948-841e90c4172a"
      }, {
        "reference": "Observation/d1ef6204-ebbd-44a3-bca9-56e3a897a4cd"
      }, {
        "reference": "Observation/64a02972-2c52-4a81-9f21-00ae1c729099"
      } ]
    }
  } ]
}