{
  "resourceType": "Bundle",
  "id": "63487c2d0968f8012254015c",
  "type": "transaction",
  "entry": [ {
    "fullUrl": "https://madie.cms.gov/Patient/6b4ea20a-91ef-4b43-baca-a6b783395a57",
    "resource": {
      "resourceType": "Patient",
      "id": "6b4ea20a-91ef-4b43-baca-a6b783395a57",
      "meta": {
        "profile": [ "http://hl7.org/fhir/us/qicore/StructureDefinition/qicore-patient" ]
      },
      "text": {
        "status": "generated",
        "div": "<div xmlns=\"http://www.w3.org/1999/xhtml\"><div class=\"hapiHeaderText\">AssessTermMissingResult<b>DENOMFail</b></div><table class=\"hapiPropertyTable\"><tbody><tr><td>Identifier</td><td>e6e21c3fa4edfea41e3da1195d4a7d3d8dc72d010572e04bff4dafb21a72c78e</td></tr><tr><td>Date of birth</td><td><span>14 February 1985</span></td></tr></tbody></table></div>"
      },
      "extension": [ {
        "url": "http://hl7.org/fhir/us/core/StructureDefinition/us-core-race",
        "extension": [ {
          "url": "ombCategory",
          "valueCoding": {
            "system": "urn:oid:2.16.840.1.113883.6.238",
            "code": "1002-5",
            "display": "American Indian or Alaska Native",
            "userSelected": true
          }
        }, {
          "url": "text",
          "valueString": "American Indian or Alaska Native"
        } ]
      }, {
        "url": "http://hl7.org/fhir/us/core/StructureDefinition/us-core-ethnicity",
        "extension": [ {
          "url": "ombCategory",
          "valueCoding": {
            "system": "urn:oid:2.16.840.1.113883.6.238",
            "code": "2135-2",
            "display": "Hispanic or Latino",
            "userSelected": true
          }
        }, {
          "url": "text",
          "valueString": "Hispanic or Latino"
        } ]
      } ],
      "identifier": [ {
        "type": {
          "coding": [ {
            "system": "http://terminology.hl7.org/CodeSystem/v2-0203",
            "code": "MR"
          } ]
        },
        "system": "https://bonnie-fhir.healthit.gov/",
        "value": "63487c2d0968f8012254015c"
      } ],
      "active": true,
      "name": [ {
        "use": "usual",
        "family": "DENFail",
        "given": [ "AssessTermMissingResult" ]
      } ],
      "gender": "female",
      "birthDate": "1998-02-14"
    },
    "request": {
      "method": "PUT",
      "url": "Patient/6b4ea20a-91ef-4b43-baca-a6b783395a57"
    }
  }, {
    "fullUrl": "https://madie.cms.gov/Observation/29bc518b-c4a5-40a9-a841-7800d0fc40c0",
    "resource": {
      "resourceType": "Observation",
      "id": "29bc518b-c4a5-40a9-a841-7800d0fc40c0",
      "meta": {
        "profile": [ "http://hl7.org/fhir/us/qicore/StructureDefinition/qicore-simple-observation" ]
      },
      "status": "final",
      "category": [ {
        "coding": [ {
          "system": "http://terminology.hl7.org/CodeSystem/observation-category",
          "code": "exam",
          "display": "exam",
          "userSelected": true
        } ]
      } ],
      "code": {
        "coding": [ {
          "system": "http://loinc.org",
          "code": "11637-6"
        } ]
      },
      "subject": {
        "reference": "Patient/6b4ea20a-91ef-4b43-baca-a6b783395a57"
      },
      "effectiveDateTime": "2025-09-19T09:00:00.000+00:00",
      "valueInteger": 0
    },
    "request": {
      "method": "PUT",
      "url": "Observation/29bc518b-c4a5-40a9-a841-7800d0fc40c0"
    }
  }, {
    "fullUrl": "https://madie.cms.gov/Observation/2cfd3a17-faff-4562-b22f-c45abe2ce043",
    "resource": {
      "resourceType": "Observation",
      "id": "2cfd3a17-faff-4562-b22f-c45abe2ce043",
      "meta": {
        "profile": [ "http://hl7.org/fhir/us/qicore/StructureDefinition/qicore-simple-observation" ]
      },
      "status": "final",
      "category": [ {
        "coding": [ {
          "system": "http://terminology.hl7.org/CodeSystem/observation-category",
          "code": "exam",
          "display": "exam",
          "userSelected": true
        } ]
      } ],
      "code": {
        "coding": [ {
          "system": "http://loinc.org",
          "code": "11639-2"
        } ]
      },
      "subject": {
        "reference": "Patient/6b4ea20a-91ef-4b43-baca-a6b783395a57"
      },
      "effectiveDateTime": "2025-09-19T09:00:00.000+00:00"
    },
    "request": {
      "method": "PUT",
      "url": "Observation/2cfd3a17-faff-4562-b22f-c45abe2ce043"
    }
  }, {
    "fullUrl": "https://madie.cms.gov/Observation/ead657c9-f64b-4807-8b7c-ca78e4496f13",
    "resource": {
      "resourceType": "Observation",
      "id": "ead657c9-f64b-4807-8b7c-ca78e4496f13",
      "meta": {
        "profile": [ "http://hl7.org/fhir/us/qicore/StructureDefinition/qicore-simple-observation" ]
      },
      "status": "final",
      "category": [ {
        "coding": [ {
          "system": "http://terminology.hl7.org/CodeSystem/observation-category",
          "code": "exam",
          "display": "exam",
          "userSelected": true
        } ]
      } ],
      "code": {
        "coding": [ {
          "system": "http://loinc.org",
          "code": "11884-4"
        } ]
      },
      "subject": {
        "reference": "Patient/6b4ea20a-91ef-4b43-baca-a6b783395a57"
      },
      "effectiveDateTime": "2026-06-08T20:00:00.000+00:00",
      "valueQuantity": {
        "value": 37,
        "system": "http://unitsofmeasure.org",
        "code": "wk"
      }
    },
    "request": {
      "method": "PUT",
      "url": "Observation/ead657c9-f64b-4807-8b7c-ca78e4496f13"
    }
  }, {
    "fullUrl": "https://madie.cms.gov/Observation/e9ae7fd0-c22c-4e9c-bb76-a7512d7c1e17",
    "resource": {
      "resourceType": "Observation",
      "id": "e9ae7fd0-c22c-4e9c-bb76-a7512d7c1e17",
      "meta": {
        "profile": [ "http://hl7.org/fhir/us/qicore/StructureDefinition/qicore-simple-observation" ]
      },
      "status": "final",
      "category": [ {
        "coding": [ {
          "system": "http://terminology.hl7.org/CodeSystem/observation-category",
          "code": "exam",
          "display": "exam",
          "userSelected": true
        } ]
      } ],
      "code": {
        "coding": [ {
          "system": "http://loinc.org",
          "code": "93857-1"
        } ]
      },
      "subject": {
        "reference": "Patient/6b4ea20a-91ef-4b43-baca-a6b783395a57"
      },
      "effectiveDateTime": "2026-06-08T20:00:00.000+00:00",
      "valueDateTime": "2026-06-08T20:00:00.000+00:00"
    },
    "request": {
      "method": "PUT",
      "url": "Observation/e9ae7fd0-c22c-4e9c-bb76-a7512d7c1e17"
    }
  }, {
    "fullUrl": "https://madie.cms.gov/Encounter/c4b16113-2ca4-49ba-9283-e653fbaacc8d",
    "resource": {
      "resourceType": "Encounter",
      "id": "c4b16113-2ca4-49ba-9283-e653fbaacc8d",
      "meta": {
        "profile": [ "http://hl7.org/fhir/us/qicore/StructureDefinition/qicore-encounter" ]
      },
      "status": "finished",
      "class": {
        "system": "http://terminology.hl7.org/CodeSystem/v3-ActCode",
        "code": "IMP",
        "display": "inpatient encounter"
      },
      "type": [ {
        "coding": [ {
          "system": "http://snomed.info/sct",
          "code": "8715000"
        } ]
      } ],
      "subject": {
        "reference": "Patient/6b4ea20a-91ef-4b43-baca-a6b783395a57"
      },
      "period": {
        "start": "2026-06-08T08:00:00.000+00:00",
        "end": "2026-06-10T08:15:00.000+00:00"
      },
      "length": {
        "value": 2,
        "unit": "days"
      },
      "reasonReference": [ {
        "reference": "Condition/57271fe7-4028-41c4-8809-b11f70513cb0"
      } ]
    },
    "request": {
      "method": "PUT",
      "url": "Encounter/c4b16113-2ca4-49ba-9283-e653fbaacc8d"
    }
  }, {
    "fullUrl": "https://madie.cms.gov/Procedure/58c2c476-bb2b-405a-905c-2722e6e559ce",
    "resource": {
      "resourceType": "Procedure",
      "id": "58c2c476-bb2b-405a-905c-2722e6e559ce",
      "meta": {
        "profile": [ "http://hl7.org/fhir/us/qicore/StructureDefinition/qicore-procedure" ]
      },
      "extension": [ {
        "url": "http://hl7.org/fhir/us/qicore/StructureDefinition/qicore-recorded",
        "valueDateTime": "2014-04-05T13:35:00.000+00:00"
      } ],
      "status": "completed",
      "code": {
        "coding": [ {
          "system": "http://www.cms.gov/Medicare/Coding/ICD10",
          "code": "10D00Z0"
        }, {
          "system": "http://snomed.info/sct",
          "code": "4504004"
        } ]
      },
      "subject": {
        "reference": "Patient/6b4ea20a-91ef-4b43-baca-a6b783395a57"
      },
      "performedPeriod": {
        "start": "2026-06-08T20:00:00.000+00:00",
        "end": "2026-06-08T20:15:00.000+00:00"
      }
    },
    "request": {
      "method": "PUT",
      "url": "Procedure/58c2c476-bb2b-405a-905c-2722e6e559ce"
    }
  }, {
    "fullUrl": "https://madie.cms.gov/Condition/57271fe7-4028-41c4-8809-b11f70513cb0",
    "resource": {
      "resourceType": "Condition",
      "id": "57271fe7-4028-41c4-8809-b11f70513cb0",
      "meta": {
        "profile": [ "http://hl7.org/fhir/us/qicore/StructureDefinition/qicore-condition-encounter-diagnosis" ]
      },
      "category": [ {
        "coding": [ {
          "system": "http://terminology.hl7.org/CodeSystem/condition-category",
          "code": "encounter-diagnosis",
          "display": "Encounter Diagnosis"
        } ]
      } ],
      "code": {
        "coding": [ {
          "system": "http://snomed.info/sct",
          "version": "2022-09",
          "code": "169826009",
          "display": "Single live birth from singleton pregnancy (finding)",
          "userSelected": true
        } ]
      },
      "subject": {
        "reference": "Patient/6b4ea20a-91ef-4b43-baca-a6b783395a57"
      },
      "encounter": {
        "reference": "Encounter/c4b16113-2ca4-49ba-9283-e653fbaacc8d"
      },
      "recordedDate": "2026-10-21T08:00:00.000+00:00"
    },
    "request": {
      "method": "PUT",
      "url": "Condition/57271fe7-4028-41c4-8809-b11f70513cb0"
    }
  }, {
    "fullUrl": "https://madie.cms.gov/Coverage/83f3d6c7-1179-45ce-930a-ecca631428ac",
    "resource": {
      "resourceType": "Coverage",
      "id": "83f3d6c7-1179-45ce-930a-ecca631428ac",
      "meta": {
        "profile": [ "http://hl7.org/fhir/us/qicore/StructureDefinition/qicore-coverage" ]
      },
      "status": "active",
      "subscriberId": "523435",
      "beneficiary": {
        "reference": "Patient/6b4ea20a-91ef-4b43-baca-a6b783395a57"
      },
      "relationship": {
        "coding": [ {
          "system": "http://terminology.hl7.org/CodeSystem/subscriber-relationship",
          "code": "self"
        } ]
      },
      "payor": [ {
        "reference": "Organization/efff37d4-6947-410f-94c8-af5ac62832d6"
      } ]
    },
    "request": {
      "method": "PUT",
      "url": "Coverage/83f3d6c7-1179-45ce-930a-ecca631428ac"
    }
  }, {
    "fullUrl": "https://madie.cms.gov/Organization/efff37d4-6947-410f-94c8-af5ac62832d6",
    "resource": {
      "resourceType": "Organization",
      "id": "efff37d4-6947-410f-94c8-af5ac62832d6",
      "meta": {
        "profile": [ "http://hl7.org/fhir/us/qicore/StructureDefinition/qicore-organization" ]
      },
      "identifier": [ {
        "use": "temp",
        "system": "urn:oid:2.16.840.1.113883.4.4",
        "value": "21-3259825"
      } ],
      "active": true,
      "type": [ {
        "coding": [ {
          "system": "http://terminology.hl7.org/CodeSystem/organization-type",
          "code": "pay",
          "display": "Payer"
        } ]
      } ],
      "name": "Blue Cross Blue Shield of Texas",
      "telecom": [ {
        "system": "phone",
        "value": "(+1) 972-766-6900"
      } ],
      "address": [ {
        "use": "billing",
        "type": "postal",
        "line": [ "P.O. Box 660044" ],
        "city": "Dallas",
        "state": "TX",
        "postalCode": "75266-0044",
        "country": "USA"
      } ]
    },
    "request": {
      "method": "PUT",
      "url": "Organization/efff37d4-6947-410f-94c8-af5ac62832d6"
    }
  }, {
    "fullUrl": "https://madie.cms.gov/Practitioner/f01d1a05-b4cf-441d-8aa8-fcda6149b9d6",
    "resource": {
      "resourceType": "Practitioner",
      "id": "f01d1a05-b4cf-441d-8aa8-fcda6149b9d6",
      "meta": {
        "profile": [ "http://hl7.org/fhir/us/qicore/StructureDefinition/qicore-practitioner" ]
      },
      "identifier": [ {
        "system": "http://hl7.org/fhir/sid/us-npi",
        "value": "1234567890"
      } ],
      "name": [ {
        "family": "Evil",
        "prefix": [ "Dr" ]
      } ]
    },
    "request": {
      "method": "PUT",
      "url": "Practitioner/f01d1a05-b4cf-441d-8aa8-fcda6149b9d6"
    }
  }, {
    "fullUrl": "https://madie.cms.gov/MeasureReport/15100f06-5b3c-40ff-8a40-25fd100795b7",
    "resource": {
      "resourceType": "MeasureReport",
      "id": "15100f06-5b3c-40ff-8a40-25fd100795b7",
      "meta": {
        "profile": [ "http://hl7.org/fhir/us/cqfmeasures/StructureDefinition/test-case-cqfm" ]
      },
      "contained": [ {
        "resourceType": "Parameters",
        "id": "b204aa87-f499-4538-89c9-cc667996a2ae-parameters",
        "parameter": [ {
          "name": "subject",
          "valueString": "6b4ea20a-91ef-4b43-baca-a6b783395a57"
        } ]
      } ],
      "extension": [ {
        "url": "http://hl7.org/fhir/StructureDefinition/cqf-inputParameters",
        "valueReference": {
          "reference": "#b204aa87-f499-4538-89c9-cc667996a2ae-parameters"
        }
      }, {
        "url": "http://hl7.org/fhir/us/cqfmeasures/StructureDefinition/cqfm-testCaseDescription",
        "valueMarkdown": "\"Preterm Births=0, Rel Date/time < 42weeks prior to delivery\nTerm Newborn missing result, Rel Date/time < 42weeks prior to delivery\"\n"
      } ],
      "modifierExtension": [ {
        "url": "http://hl7.org/fhir/us/cqfmeasures/StructureDefinition/cqfm-isTestCase",
        "valueBoolean": true
      } ],
      "status": "complete",
      "type": "individual",
      "measure": "https://madie.cms.gov/Measure/CMS0334FHIRPCCesareanBirth",
      "period": {
        "start": "2026-01-01",
        "end": "2026-12-31"
      },
      "group": [ {
        "id": "Group_1",
        "population": [ {
          "id": "InitialPopulation_1",
          "code": {
            "coding": [ {
              "system": "http://terminology.hl7.org/CodeSystem/measure-population",
              "code": "initial-population",
              "display": "Initial Population"
            } ]
          },
          "count": 1
        }, {
          "id": "Denominator_1",
          "code": {
            "coding": [ {
              "system": "http://terminology.hl7.org/CodeSystem/measure-population",
              "code": "denominator",
              "display": "Denominator"
            } ]
          },
          "count": 0
        }, {
          "id": "DenominatorExclusion_1",
          "code": {
            "coding": [ {
              "system": "http://terminology.hl7.org/CodeSystem/measure-population",
              "code": "denominator-exclusion",
              "display": "Denominator Exclusion"
            } ]
          },
          "count": 0
        }, {
          "id": "Numerator_1",
          "code": {
            "coding": [ {
              "system": "http://terminology.hl7.org/CodeSystem/measure-population",
              "code": "numerator",
              "display": "Numerator"
            } ]
          },
          "count": 0
        } ],
        "measureScore": {
          "value": 0.0
        }
      } ],
      "evaluatedResource": [ {
        "reference": "Patient/6b4ea20a-91ef-4b43-baca-a6b783395a57"
      }, {
        "reference": "Observation/29bc518b-c4a5-40a9-a841-7800d0fc40c0"
      }, {
        "reference": "Observation/2cfd3a17-faff-4562-b22f-c45abe2ce043"
      }, {
        "reference": "Observation/ead657c9-f64b-4807-8b7c-ca78e4496f13"
      }, {
        "reference": "Observation/e9ae7fd0-c22c-4e9c-bb76-a7512d7c1e17"
      }, {
        "reference": "Encounter/c4b16113-2ca4-49ba-9283-e653fbaacc8d"
      }, {
        "reference": "Procedure/58c2c476-bb2b-405a-905c-2722e6e559ce"
      }, {
        "reference": "Condition/57271fe7-4028-41c4-8809-b11f70513cb0"
      }, {
        "reference": "Coverage/83f3d6c7-1179-45ce-930a-ecca631428ac"
      }, {
        "reference": "Organization/efff37d4-6947-410f-94c8-af5ac62832d6"
      }, {
        "reference": "Practitioner/f01d1a05-b4cf-441d-8aa8-fcda6149b9d6"
      } ]
    },
    "request": {
      "method": "PUT",
      "url": "MeasureReport/15100f06-5b3c-40ff-8a40-25fd100795b7"
    }
  } ]
}