{
  "resourceType": "Bundle",
  "id": "NUMPass-RetinalExamDec31OfMPRetinoDxDec31B4MP",
  "type": "transaction",
  "entry": [ {
    "fullUrl": "https://madie.cms.gov/Patient/985b5e49-2f5d-4eb3-a33c-2d0eb156bf7b",
    "resource": {
      "resourceType": "Patient",
      "id": "985b5e49-2f5d-4eb3-a33c-2d0eb156bf7b",
      "meta": {
        "profile": [ "http://hl7.org/fhir/us/qicore/StructureDefinition/qicore-patient" ]
      },
      "extension": [ {
        "url": "http://hl7.org/fhir/us/core/StructureDefinition/us-core-race",
        "extension": [ {
          "url": "ombCategory",
          "valueCoding": {
            "system": "urn:oid:2.16.840.1.113883.6.238",
            "code": "2028-9",
            "display": "Asian",
            "userSelected": true
          }
        }, {
          "url": "text",
          "valueString": "Asian"
        } ]
      }, {
        "url": "http://hl7.org/fhir/us/core/StructureDefinition/us-core-ethnicity",
        "extension": [ {
          "url": "ombCategory",
          "valueCoding": {
            "system": "urn:oid:2.16.840.1.113883.6.238",
            "code": "2135-2",
            "display": "Hispanic or Latino",
            "userSelected": true
          }
        }, {
          "url": "text",
          "valueString": "Hispanic or Latino"
        } ]
      } ],
      "identifier": [ {
        "type": {
          "coding": [ {
            "system": "http://terminology.hl7.org/CodeSystem/v2-0203",
            "code": "MR"
          } ]
        },
        "system": "http://hospital.smarthealthit.org",
        "value": "999999995"
      } ],
      "name": [ {
        "family": "Bertha",
        "given": [ "Betty" ]
      } ],
      "gender": "female",
      "birthDate": "2008-12-31"
    },
    "request": {
      "method": "PUT",
      "url": "Patient/985b5e49-2f5d-4eb3-a33c-2d0eb156bf7b"
    }
  }, {
    "fullUrl": "https://madie.cms.gov/Encounter/4e724b6c-9cf9-415d-9902-4e57a6aab955",
    "resource": {
      "resourceType": "Encounter",
      "id": "4e724b6c-9cf9-415d-9902-4e57a6aab955",
      "meta": {
        "profile": [ "http://hl7.org/fhir/us/qicore/StructureDefinition/qicore-encounter" ]
      },
      "status": "finished",
      "class": {
        "system": "http://terminology.hl7.org/CodeSystem/v3-ActCode",
        "code": "AMB",
        "display": "ambulatory"
      },
      "type": [ {
        "coding": [ {
          "system": "http://snomed.info/sct",
          "code": "185463005",
          "display": "Visit out of hours (procedure)"
        } ]
      } ],
      "subject": {
        "reference": "Patient/985b5e49-2f5d-4eb3-a33c-2d0eb156bf7b"
      },
      "period": {
        "start": "2026-01-01T00:00:00.000+00:00",
        "end": "2026-01-01T00:00:00.000+00:00"
      }
    },
    "request": {
      "method": "PUT",
      "url": "Encounter/4e724b6c-9cf9-415d-9902-4e57a6aab955"
    }
  }, {
    "fullUrl": "https://madie.cms.gov/Condition/803b0c01-65ca-4c81-ab8f-14ff406e4629",
    "resource": {
      "resourceType": "Condition",
      "id": "803b0c01-65ca-4c81-ab8f-14ff406e4629",
      "meta": {
        "profile": [ "http://hl7.org/fhir/us/qicore/StructureDefinition/qicore-condition-problems-health-concerns" ]
      },
      "clinicalStatus": {
        "coding": [ {
          "system": "http://terminology.hl7.org/CodeSystem/condition-clinical",
          "code": "active"
        } ]
      },
      "category": [ {
        "coding": [ {
          "system": "http://terminology.hl7.org/CodeSystem/condition-category",
          "code": "problem-list-item",
          "display": "Problem List Item"
        } ]
      } ],
      "code": {
        "coding": [ {
          "system": "http://snomed.info/sct",
          "code": "102781000119107",
          "display": "Sensory neuropathy due to type 1 diabetes mellitus (disorder)"
        } ]
      },
      "subject": {
        "reference": "Patient/985b5e49-2f5d-4eb3-a33c-2d0eb156bf7b"
      },
      "onsetDateTime": "2026-01-01T00:00:00.000+00:00"
    },
    "request": {
      "method": "PUT",
      "url": "Condition/803b0c01-65ca-4c81-ab8f-14ff406e4629"
    }
  }, {
    "fullUrl": "https://madie.cms.gov/Condition/803b0c01-65ca-4c81-ab8f-14ff406e4629.1",
    "resource": {
      "resourceType": "Condition",
      "id": "803b0c01-65ca-4c81-ab8f-14ff406e4629.1",
      "meta": {
        "profile": [ "http://hl7.org/fhir/us/qicore/StructureDefinition/qicore-condition-encounter-diagnosis" ]
      },
      "clinicalStatus": {
        "coding": [ {
          "system": "http://terminology.hl7.org/CodeSystem/condition-clinical",
          "code": "active"
        } ]
      },
      "category": [ {
        "coding": [ {
          "system": "http://terminology.hl7.org/CodeSystem/condition-category",
          "code": "encounter-diagnosis",
          "display": "Encounter Diagnosis"
        } ]
      } ],
      "code": {
        "coding": [ {
          "system": "http://snomed.info/sct",
          "code": "193349004",
          "display": "Preproliferative retinopathy due to diabetes mellitus (disorder)"
        } ]
      },
      "subject": {
        "reference": "Patient/985b5e49-2f5d-4eb3-a33c-2d0eb156bf7b"
      },
      "onsetDateTime": "2025-12-31T23:59:59.000+00:00"
    },
    "request": {
      "method": "PUT",
      "url": "Condition/803b0c01-65ca-4c81-ab8f-14ff406e4629.1"
    }
  }, {
    "fullUrl": "https://madie.cms.gov/Observation/158a9e1a-f3ff-4299-b2cd-67d24f02d40b",
    "resource": {
      "resourceType": "Observation",
      "id": "158a9e1a-f3ff-4299-b2cd-67d24f02d40b",
      "meta": {
        "profile": [ "http://hl7.org/fhir/us/qicore/StructureDefinition/qicore-observation-clinical-result" ]
      },
      "status": "final",
      "category": [ {
        "coding": [ {
          "system": "http://terminology.hl7.org/CodeSystem/observation-category",
          "code": "exam"
        } ]
      } ],
      "code": {
        "coding": [ {
          "system": "http://snomed.info/sct",
          "code": "252779009",
          "display": "Single bright white flash electroretinography (procedure)"
        } ]
      },
      "subject": {
        "reference": "Patient/985b5e49-2f5d-4eb3-a33c-2d0eb156bf7b"
      },
      "effectivePeriod": {
        "start": "2026-12-31T00:00:00.000+00:00",
        "end": "2026-12-31T00:00:00.000+00:00"
      },
      "dataAbsentReason": {
        "extension": [ {
          "url": "http://hl7.org/fhir/StructureDefinition/data-absent-reason",
          "valueCode": "unknown"
        } ]
      }
    },
    "request": {
      "method": "PUT",
      "url": "Observation/158a9e1a-f3ff-4299-b2cd-67d24f02d40b"
    }
  }, {
    "fullUrl": "https://madie.cms.gov/MeasureReport/8e0e0b26-f0c3-431a-bb63-9bf90b8d406a",
    "resource": {
      "resourceType": "MeasureReport",
      "id": "8e0e0b26-f0c3-431a-bb63-9bf90b8d406a",
      "meta": {
        "profile": [ "http://hl7.org/fhir/us/cqfmeasures/StructureDefinition/test-case-cqfm" ]
      },
      "contained": [ {
        "resourceType": "Parameters",
        "id": "2a3350d1-82c2-4235-abaa-49d200f74dbd-parameters",
        "parameter": [ {
          "name": "subject",
          "valueString": "985b5e49-2f5d-4eb3-a33c-2d0eb156bf7b"
        } ]
      } ],
      "extension": [ {
        "url": "http://hl7.org/fhir/StructureDefinition/cqf-inputParameters",
        "valueReference": {
          "reference": "#2a3350d1-82c2-4235-abaa-49d200f74dbd-parameters"
        }
      }, {
        "url": "http://hl7.org/fhir/us/cqfmeasures/StructureDefinition/cqfm-testCaseDescription",
        "valueMarkdown": "Patient 18yo w/ an Office Visit Encounter, Diabetes Condition ending 1/1 during the MP, and Retinopathy Condition 12/31 of the year before the MP, with an Eye Exam Observation 12/31 of the MP."
      } ],
      "modifierExtension": [ {
        "url": "http://hl7.org/fhir/us/cqfmeasures/StructureDefinition/cqfm-isTestCase",
        "valueBoolean": true
      } ],
      "status": "complete",
      "type": "individual",
      "measure": "https://madie.cms.gov/Measure/CMS131FHIRDiabetesEyeExam",
      "period": {
        "start": "2026-01-01",
        "end": "2026-12-31"
      },
      "group": [ {
        "id": "Group_1",
        "population": [ {
          "id": "InitialPopulation_1",
          "code": {
            "coding": [ {
              "system": "http://terminology.hl7.org/CodeSystem/measure-population",
              "code": "initial-population",
              "display": "Initial Population"
            } ]
          },
          "count": 1
        }, {
          "id": "Denominator_1",
          "code": {
            "coding": [ {
              "system": "http://terminology.hl7.org/CodeSystem/measure-population",
              "code": "denominator",
              "display": "Denominator"
            } ]
          },
          "count": 1
        }, {
          "id": "DenominatorExclusion_1",
          "code": {
            "coding": [ {
              "system": "http://terminology.hl7.org/CodeSystem/measure-population",
              "code": "denominator-exclusion",
              "display": "Denominator Exclusion"
            } ]
          },
          "count": 0
        }, {
          "id": "Numerator_1",
          "code": {
            "coding": [ {
              "system": "http://terminology.hl7.org/CodeSystem/measure-population",
              "code": "numerator",
              "display": "Numerator"
            } ]
          },
          "count": 1
        } ],
        "measureScore": {
          "value": 1.0
        }
      } ],
      "evaluatedResource": [ {
        "reference": "Patient/985b5e49-2f5d-4eb3-a33c-2d0eb156bf7b"
      }, {
        "reference": "Encounter/4e724b6c-9cf9-415d-9902-4e57a6aab955"
      }, {
        "reference": "Condition/803b0c01-65ca-4c81-ab8f-14ff406e4629"
      }, {
        "reference": "Condition/803b0c01-65ca-4c81-ab8f-14ff406e4629.1"
      }, {
        "reference": "Observation/158a9e1a-f3ff-4299-b2cd-67d24f02d40b"
      } ]
    },
    "request": {
      "method": "PUT",
      "url": "MeasureReport/8e0e0b26-f0c3-431a-bb63-9bf90b8d406a"
    }
  } ]
}