{
  "resourceType": "Bundle",
  "id": "633b3f9e0968f80122503cbe",
  "type": "transaction",
  "entry": [ {
    "fullUrl": "https://madie.cms.gov/Patient/cf6df162-1d6f-4e12-bb7b-b0b910af62ce",
    "resource": {
      "resourceType": "Patient",
      "id": "cf6df162-1d6f-4e12-bb7b-b0b910af62ce",
      "meta": {
        "profile": [ "http://hl7.org/fhir/us/qicore/StructureDefinition/qicore-patient" ]
      },
      "text": {
        "status": "generated",
        "div": "<div xmlns=\"http://www.w3.org/1999/xhtml\"><div class=\"hapiHeaderText\">Age65OnDayOfEncStart<b>IPFAIL</b></div><table class=\"hapiPropertyTable\"><tbody><tr><td>Date of birth</td><td><span>01 February 1947</span></td></tr></tbody></table></div>"
      },
      "extension": [ {
        "url": "http://hl7.org/fhir/us/core/StructureDefinition/us-core-race",
        "extension": [ {
          "url": "ombCategory",
          "valueCoding": {
            "system": "urn:oid:2.16.840.1.113883.6.238",
            "code": "1002-5",
            "display": "American Indian or Alaska Native",
            "userSelected": true
          }
        }, {
          "url": "text",
          "valueString": "American Indian or Alaska Native"
        } ]
      }, {
        "url": "http://hl7.org/fhir/us/core/StructureDefinition/us-core-ethnicity",
        "extension": [ {
          "url": "ombCategory",
          "valueCoding": {
            "system": "urn:oid:2.16.840.1.113883.6.238",
            "code": "2135-2",
            "display": "Hispanic or Latino",
            "userSelected": true
          }
        }, {
          "url": "text",
          "valueString": "Hispanic or Latino"
        } ]
      } ],
      "identifier": [ {
        "type": {
          "coding": [ {
            "system": "http://terminology.hl7.org/CodeSystem/v2-0203",
            "code": "MR"
          } ]
        },
        "system": "https://bonnie-fhir.healthit.gov/",
        "value": "633b3f9e0968f80122503cbe"
      } ],
      "active": true,
      "name": [ {
        "use": "usual",
        "family": "IPFail",
        "given": [ "Age65OnDayOfEncStart" ]
      } ],
      "gender": "female",
      "birthDate": "1960-02-01"
    },
    "request": {
      "method": "PUT",
      "url": "Patient/cf6df162-1d6f-4e12-bb7b-b0b910af62ce"
    }
  }, {
    "fullUrl": "https://madie.cms.gov/Encounter/7027fde6-5e86-4076-9173-f4f6ca7e5089",
    "resource": {
      "resourceType": "Encounter",
      "id": "7027fde6-5e86-4076-9173-f4f6ca7e5089",
      "meta": {
        "profile": [ "http://hl7.org/fhir/us/qicore/StructureDefinition/qicore-encounter" ]
      },
      "status": "finished",
      "class": {
        "system": "http://terminology.hl7.org/CodeSystem/v3-ActCode",
        "code": "IMP",
        "display": "inpatient encounter"
      },
      "type": [ {
        "coding": [ {
          "system": "http://snomed.info/sct",
          "code": "183452005"
        } ]
      } ],
      "subject": {
        "reference": "Patient/cf6df162-1d6f-4e12-bb7b-b0b910af62ce"
      },
      "period": {
        "start": "2026-02-01T08:00:00.000+00:00",
        "end": "2026-02-05T08:15:00.000+00:00"
      },
      "diagnosis": [ {
        "condition": {
          "reference": "Condition/Condition-2"
        },
        "use": {
          "coding": [ {
            "system": "http://snomed.info/sct",
            "code": "169826009",
            "display": "Delivery of Singleton"
          } ]
        }
      } ]
    },
    "request": {
      "method": "PUT",
      "url": "Encounter/7027fde6-5e86-4076-9173-f4f6ca7e5089"
    }
  }, {
    "fullUrl": "https://madie.cms.gov/Coverage/f5141b08-9ba1-47a1-a23d-5f6529f30631",
    "resource": {
      "resourceType": "Coverage",
      "id": "f5141b08-9ba1-47a1-a23d-5f6529f30631",
      "status": "active",
      "beneficiary": {
        "reference": "Patient/cf6df162-1d6f-4e12-bb7b-b0b910af62ce"
      },
      "period": {
        "start": "1948-02-01T01:00:00.000+00:00"
      },
      "payor": [ {
        "reference": "Organization/8aaf047d-af5f-4fb2-adc1-89c2544670b3"
      } ]
    },
    "request": {
      "method": "PUT",
      "url": "Coverage/f5141b08-9ba1-47a1-a23d-5f6529f30631"
    }
  }, {
    "fullUrl": "https://madie.cms.gov/Procedure/2603788e-6440-4458-8ba2-f12573a2e99a",
    "resource": {
      "resourceType": "Procedure",
      "id": "2603788e-6440-4458-8ba2-f12573a2e99a",
      "meta": {
        "profile": [ "http://hl7.org/fhir/us/qicore/StructureDefinition/qicore-procedure" ]
      },
      "extension": [ {
        "url": "http://hl7.org/fhir/us/qicore/StructureDefinition/qicore-recorded",
        "valueDateTime": "2014-04-05T13:35:00.000+00:00"
      } ],
      "status": "completed",
      "code": {
        "coding": [ {
          "system": "http://snomed.info/sct",
          "version": "2022-09",
          "code": "10745001",
          "display": "Delivery of transverse presentation (procedure)",
          "userSelected": true
        } ]
      },
      "subject": {
        "reference": "Patient/cf6df162-1d6f-4e12-bb7b-b0b910af62ce"
      },
      "performedPeriod": {
        "start": "2026-02-01T08:00:00.000+00:00",
        "end": "2026-02-05T08:15:00.000+00:00"
      }
    },
    "request": {
      "method": "PUT",
      "url": "Procedure/2603788e-6440-4458-8ba2-f12573a2e99a"
    }
  }, {
    "fullUrl": "https://madie.cms.gov/Organization/8aaf047d-af5f-4fb2-adc1-89c2544670b3",
    "resource": {
      "resourceType": "Organization",
      "id": "8aaf047d-af5f-4fb2-adc1-89c2544670b3",
      "meta": {
        "profile": [ "http://hl7.org/fhir/us/qicore/StructureDefinition/qicore-organization" ]
      },
      "identifier": [ {
        "use": "temp",
        "system": "urn:oid:2.16.840.1.113883.4.4",
        "value": "21-3259825"
      } ],
      "active": true,
      "type": [ {
        "coding": [ {
          "system": "http://terminology.hl7.org/CodeSystem/organization-type",
          "code": "pay",
          "display": "Payer"
        } ]
      } ],
      "name": "Blue Cross Blue Shield of Texas",
      "telecom": [ {
        "system": "phone",
        "value": "(+1) 972-766-6900"
      } ],
      "address": [ {
        "use": "billing",
        "type": "postal",
        "line": [ "P.O. Box 660044" ],
        "city": "Dallas",
        "state": "TX",
        "postalCode": "75266-0044",
        "country": "USA"
      } ]
    },
    "request": {
      "method": "PUT",
      "url": "Organization/8aaf047d-af5f-4fb2-adc1-89c2544670b3"
    }
  }, {
    "fullUrl": "https://madie.cms.gov/Practitioner/b189bb0d-692a-47de-859e-7063c6d7373e",
    "resource": {
      "resourceType": "Practitioner",
      "id": "b189bb0d-692a-47de-859e-7063c6d7373e",
      "identifier": [ {
        "system": "http://hl7.org/fhir/sid/us-npi",
        "value": "123456"
      } ],
      "name": [ {
        "family": "Evil",
        "prefix": [ "Dr" ]
      } ]
    },
    "request": {
      "method": "PUT",
      "url": "Practitioner/b189bb0d-692a-47de-859e-7063c6d7373e"
    }
  }, {
    "fullUrl": "https://madie.cms.gov/MeasureReport/902128c3-25e5-4cb4-8d87-a56838477958",
    "resource": {
      "resourceType": "MeasureReport",
      "id": "902128c3-25e5-4cb4-8d87-a56838477958",
      "meta": {
        "profile": [ "http://hl7.org/fhir/us/cqfmeasures/StructureDefinition/test-case-cqfm" ]
      },
      "contained": [ {
        "resourceType": "Parameters",
        "id": "5c2b1a38-5538-4c07-bcf3-018ccd936ae3-parameters",
        "parameter": [ {
          "name": "subject",
          "valueString": "cf6df162-1d6f-4e12-bb7b-b0b910af62ce"
        } ]
      } ],
      "extension": [ {
        "url": "http://hl7.org/fhir/StructureDefinition/cqf-inputParameters",
        "valueReference": {
          "reference": "#5c2b1a38-5538-4c07-bcf3-018ccd936ae3-parameters"
        }
      }, {
        "url": "http://hl7.org/fhir/us/cqfmeasures/StructureDefinition/cqfm-testCaseDescription",
        "valueMarkdown": "Patient turns 65 years of age on day encounter starts.\n"
      } ],
      "modifierExtension": [ {
        "url": "http://hl7.org/fhir/us/cqfmeasures/StructureDefinition/cqfm-isTestCase",
        "valueBoolean": true
      } ],
      "status": "complete",
      "type": "individual",
      "measure": "https://madie.cms.gov/Measure/CMS1028FHIRPCSevereOBComps",
      "period": {
        "start": "2026-01-01",
        "end": "2026-12-31"
      },
      "group": [ {
        "id": "Group_1",
        "population": [ {
          "id": "InitialPopulation_1",
          "code": {
            "coding": [ {
              "system": "http://terminology.hl7.org/CodeSystem/measure-population",
              "code": "initial-population",
              "display": "Initial Population"
            } ]
          },
          "count": 0
        }, {
          "id": "Denominator_1",
          "code": {
            "coding": [ {
              "system": "http://terminology.hl7.org/CodeSystem/measure-population",
              "code": "denominator",
              "display": "Denominator"
            } ]
          },
          "count": 0
        }, {
          "id": "Numerator_1",
          "code": {
            "coding": [ {
              "system": "http://terminology.hl7.org/CodeSystem/measure-population",
              "code": "numerator",
              "display": "Numerator"
            } ]
          },
          "count": 0
        }, {
          "id": "NumeratorExclusion_1",
          "code": {
            "coding": [ {
              "system": "http://terminology.hl7.org/CodeSystem/measure-population",
              "code": "numerator-exclusion",
              "display": "Numerator Exclusion"
            } ]
          },
          "count": 0
        } ],
        "measureScore": {
          "value": 0.0
        }
      }, {
        "id": "Group_2",
        "population": [ {
          "id": "InitialPopulation_2",
          "code": {
            "coding": [ {
              "system": "http://terminology.hl7.org/CodeSystem/measure-population",
              "code": "initial-population",
              "display": "Initial Population"
            } ]
          },
          "count": 0
        }, {
          "id": "Denominator_2",
          "code": {
            "coding": [ {
              "system": "http://terminology.hl7.org/CodeSystem/measure-population",
              "code": "denominator",
              "display": "Denominator"
            } ]
          },
          "count": 0
        }, {
          "id": "Numerator_2",
          "code": {
            "coding": [ {
              "system": "http://terminology.hl7.org/CodeSystem/measure-population",
              "code": "numerator",
              "display": "Numerator"
            } ]
          },
          "count": 0
        }, {
          "id": "NumeratorExclusion_2",
          "code": {
            "coding": [ {
              "system": "http://terminology.hl7.org/CodeSystem/measure-population",
              "code": "numerator-exclusion",
              "display": "Numerator Exclusion"
            } ]
          },
          "count": 0
        } ],
        "measureScore": {
          "value": 0.0
        }
      } ],
      "evaluatedResource": [ {
        "reference": "Patient/cf6df162-1d6f-4e12-bb7b-b0b910af62ce"
      }, {
        "reference": "Encounter/7027fde6-5e86-4076-9173-f4f6ca7e5089"
      }, {
        "reference": "Coverage/f5141b08-9ba1-47a1-a23d-5f6529f30631"
      }, {
        "reference": "Procedure/2603788e-6440-4458-8ba2-f12573a2e99a"
      }, {
        "reference": "Organization/8aaf047d-af5f-4fb2-adc1-89c2544670b3"
      }, {
        "reference": "Practitioner/b189bb0d-692a-47de-859e-7063c6d7373e"
      } ]
    },
    "request": {
      "method": "PUT",
      "url": "MeasureReport/902128c3-25e5-4cb4-8d87-a56838477958"
    }
  } ]
}