{
  "resourceType": "Bundle",
  "id": "63487c2e0968f8012254017f",
  "type": "transaction",
  "entry": [ {
    "fullUrl": "https://madie.cms.gov/Patient/99440dd9-4de8-4a02-8cd6-bccbda4bc1dc",
    "resource": {
      "resourceType": "Patient",
      "id": "99440dd9-4de8-4a02-8cd6-bccbda4bc1dc",
      "meta": {
        "profile": [ "http://hl7.org/fhir/us/qicore/StructureDefinition/qicore-patient" ]
      },
      "text": {
        "status": "generated",
        "div": "<div xmlns=\"http://www.w3.org/1999/xhtml\"><div class=\"hapiHeaderText\">CesareanBirth <b>NUMPASS </b></div><table class=\"hapiPropertyTable\"><tbody><tr><td>Identifier</td><td>51bc91759da5bde99551dcfdd772aded6a0c8eacab7ec3cd70b3b8f217efaea9</td></tr><tr><td>Date of birth</td><td><span>14 February 1985</span></td></tr></tbody></table></div>"
      },
      "extension": [ {
        "url": "http://hl7.org/fhir/us/core/StructureDefinition/us-core-race",
        "extension": [ {
          "url": "ombCategory",
          "valueCoding": {
            "system": "urn:oid:2.16.840.1.113883.6.238",
            "code": "1002-5",
            "display": "American Indian or Alaska Native",
            "userSelected": true
          }
        }, {
          "url": "text",
          "valueString": "American Indian or Alaska Native"
        } ]
      }, {
        "url": "http://hl7.org/fhir/us/core/StructureDefinition/us-core-ethnicity",
        "extension": [ {
          "url": "ombCategory",
          "valueCoding": {
            "system": "urn:oid:2.16.840.1.113883.6.238",
            "code": "2135-2",
            "display": "Hispanic or Latino",
            "userSelected": true
          }
        }, {
          "url": "text",
          "valueString": "Hispanic or Latino"
        } ]
      } ],
      "identifier": [ {
        "type": {
          "coding": [ {
            "system": "http://terminology.hl7.org/CodeSystem/v2-0203",
            "code": "MR"
          } ]
        },
        "system": "https://bonnie-fhir.healthit.gov/",
        "value": "63487c2e0968f8012254017f"
      } ],
      "active": true,
      "name": [ {
        "use": "usual",
        "family": "NUMPass",
        "given": [ "CesareanBirth" ]
      } ],
      "gender": "female",
      "birthDate": "1998-02-14"
    },
    "request": {
      "method": "PUT",
      "url": "Patient/99440dd9-4de8-4a02-8cd6-bccbda4bc1dc"
    }
  }, {
    "fullUrl": "https://madie.cms.gov/Observation/0bc0b0c2-40e8-41c8-850b-a6305a44940e",
    "resource": {
      "resourceType": "Observation",
      "id": "0bc0b0c2-40e8-41c8-850b-a6305a44940e",
      "meta": {
        "profile": [ "http://hl7.org/fhir/us/qicore/StructureDefinition/qicore-simple-observation" ]
      },
      "status": "final",
      "category": [ {
        "coding": [ {
          "system": "http://terminology.hl7.org/CodeSystem/observation-category",
          "code": "exam",
          "display": "exam",
          "userSelected": true
        } ]
      } ],
      "code": {
        "coding": [ {
          "system": "http://loinc.org",
          "code": "11996-6"
        } ]
      },
      "subject": {
        "reference": "Patient/99440dd9-4de8-4a02-8cd6-bccbda4bc1dc"
      },
      "effectiveDateTime": "2026-02-09T08:00:00.000+00:00",
      "valueInteger": 1
    },
    "request": {
      "method": "PUT",
      "url": "Observation/0bc0b0c2-40e8-41c8-850b-a6305a44940e"
    }
  }, {
    "fullUrl": "https://madie.cms.gov/Observation/ca807d9a-bdfb-48d4-b70d-9dbc8bceab98",
    "resource": {
      "resourceType": "Observation",
      "id": "ca807d9a-bdfb-48d4-b70d-9dbc8bceab98",
      "meta": {
        "profile": [ "http://hl7.org/fhir/us/qicore/StructureDefinition/qicore-simple-observation" ]
      },
      "status": "final",
      "category": [ {
        "coding": [ {
          "system": "http://terminology.hl7.org/CodeSystem/observation-category",
          "code": "exam",
          "display": "exam",
          "userSelected": true
        } ]
      } ],
      "code": {
        "coding": [ {
          "system": "http://loinc.org",
          "code": "11884-4"
        } ]
      },
      "subject": {
        "reference": "Patient/99440dd9-4de8-4a02-8cd6-bccbda4bc1dc"
      },
      "effectiveDateTime": "2026-11-28T21:15:00.000+00:00",
      "valueQuantity": {
        "value": 40,
        "system": "http://unitsofmeasure.org",
        "code": "wk"
      }
    },
    "request": {
      "method": "PUT",
      "url": "Observation/ca807d9a-bdfb-48d4-b70d-9dbc8bceab98"
    }
  }, {
    "fullUrl": "https://madie.cms.gov/Observation/db53d2f9-0b26-43bd-a422-e7dad6ffe794",
    "resource": {
      "resourceType": "Observation",
      "id": "db53d2f9-0b26-43bd-a422-e7dad6ffe794",
      "meta": {
        "profile": [ "http://hl7.org/fhir/us/qicore/StructureDefinition/qicore-simple-observation" ]
      },
      "status": "final",
      "category": [ {
        "coding": [ {
          "system": "http://terminology.hl7.org/CodeSystem/observation-category",
          "code": "exam",
          "display": "exam",
          "userSelected": true
        } ]
      } ],
      "code": {
        "coding": [ {
          "system": "http://loinc.org",
          "code": "93857-1"
        } ]
      },
      "subject": {
        "reference": "Patient/99440dd9-4de8-4a02-8cd6-bccbda4bc1dc"
      },
      "effectiveDateTime": "2026-11-28T21:15:00.000+00:00",
      "valueDateTime": "2026-11-28T21:15:00.000+00:00"
    },
    "request": {
      "method": "PUT",
      "url": "Observation/db53d2f9-0b26-43bd-a422-e7dad6ffe794"
    }
  }, {
    "fullUrl": "https://madie.cms.gov/Encounter/18e70781-61dd-40be-adff-d3d675b8cb66",
    "resource": {
      "resourceType": "Encounter",
      "id": "18e70781-61dd-40be-adff-d3d675b8cb66",
      "meta": {
        "profile": [ "http://hl7.org/fhir/us/qicore/StructureDefinition/qicore-encounter" ]
      },
      "status": "finished",
      "class": {
        "system": "http://terminology.hl7.org/CodeSystem/v3-ActCode",
        "code": "IMP",
        "display": "inpatient encounter"
      },
      "type": [ {
        "coding": [ {
          "system": "http://snomed.info/sct",
          "code": "183452005"
        } ]
      } ],
      "subject": {
        "reference": "Patient/99440dd9-4de8-4a02-8cd6-bccbda4bc1dc"
      },
      "period": {
        "start": "2026-11-28T08:00:00.000+00:00",
        "end": "2026-11-30T08:15:00.000+00:00"
      },
      "reasonReference": [ {
        "reference": "Condition/b70a8b04-75dd-4578-bc35-aa38c10b0e6b"
      } ]
    },
    "request": {
      "method": "PUT",
      "url": "Encounter/18e70781-61dd-40be-adff-d3d675b8cb66"
    }
  }, {
    "fullUrl": "https://madie.cms.gov/Procedure/400bd1a8-0b94-4b78-93d4-594eb8e8aea6",
    "resource": {
      "resourceType": "Procedure",
      "id": "400bd1a8-0b94-4b78-93d4-594eb8e8aea6",
      "meta": {
        "profile": [ "http://hl7.org/fhir/us/qicore/StructureDefinition/qicore-procedure" ]
      },
      "extension": [ {
        "url": "http://hl7.org/fhir/us/qicore/StructureDefinition/qicore-recorded",
        "valueDateTime": "2014-04-05T13:35:00.000+00:00"
      } ],
      "status": "completed",
      "code": {
        "coding": [ {
          "system": "http://www.cms.gov/Medicare/Coding/ICD10",
          "code": "10D00Z0"
        } ]
      },
      "subject": {
        "reference": "Patient/99440dd9-4de8-4a02-8cd6-bccbda4bc1dc"
      },
      "performedPeriod": {
        "start": "2026-11-28T20:00:00.000+00:00",
        "end": "2026-11-28T20:15:00.000+00:00"
      }
    },
    "request": {
      "method": "PUT",
      "url": "Procedure/400bd1a8-0b94-4b78-93d4-594eb8e8aea6"
    }
  }, {
    "fullUrl": "https://madie.cms.gov/Condition/b70a8b04-75dd-4578-bc35-aa38c10b0e6b",
    "resource": {
      "resourceType": "Condition",
      "id": "b70a8b04-75dd-4578-bc35-aa38c10b0e6b",
      "meta": {
        "profile": [ "http://hl7.org/fhir/us/qicore/StructureDefinition/qicore-condition-encounter-diagnosis" ]
      },
      "category": [ {
        "coding": [ {
          "system": "http://terminology.hl7.org/CodeSystem/condition-category",
          "code": "encounter-diagnosis",
          "display": "Encounter Diagnosis"
        } ]
      } ],
      "code": {
        "coding": [ {
          "system": "http://snomed.info/sct",
          "version": "2022-09",
          "code": "169826009",
          "display": "Single live birth (finding)",
          "userSelected": true
        } ]
      },
      "subject": {
        "reference": "Patient/99440dd9-4de8-4a02-8cd6-bccbda4bc1dc"
      },
      "encounter": {
        "reference": "Encounter/18e70781-61dd-40be-adff-d3d675b8cb66"
      },
      "recordedDate": "2026-10-17T08:00:00.000+00:00"
    },
    "request": {
      "method": "PUT",
      "url": "Condition/b70a8b04-75dd-4578-bc35-aa38c10b0e6b"
    }
  }, {
    "fullUrl": "https://madie.cms.gov/Coverage/c5c16c47-7d31-4442-aaff-da20b9a21a20",
    "resource": {
      "resourceType": "Coverage",
      "id": "c5c16c47-7d31-4442-aaff-da20b9a21a20",
      "meta": {
        "profile": [ "http://hl7.org/fhir/us/qicore/StructureDefinition/qicore-coverage" ]
      },
      "status": "active",
      "subscriberId": "523435",
      "beneficiary": {
        "reference": "Patient/99440dd9-4de8-4a02-8cd6-bccbda4bc1dc"
      },
      "relationship": {
        "coding": [ {
          "system": "http://terminology.hl7.org/CodeSystem/subscriber-relationship",
          "code": "self"
        } ]
      },
      "payor": [ {
        "reference": "Organization/677ff112-f1d8-4f0f-be8c-0e0fba2cc484"
      } ]
    },
    "request": {
      "method": "PUT",
      "url": "Coverage/c5c16c47-7d31-4442-aaff-da20b9a21a20"
    }
  }, {
    "fullUrl": "https://madie.cms.gov/Organization/677ff112-f1d8-4f0f-be8c-0e0fba2cc484",
    "resource": {
      "resourceType": "Organization",
      "id": "677ff112-f1d8-4f0f-be8c-0e0fba2cc484",
      "meta": {
        "profile": [ "http://hl7.org/fhir/us/qicore/StructureDefinition/qicore-organization" ]
      },
      "identifier": [ {
        "use": "temp",
        "system": "urn:oid:2.16.840.1.113883.4.4",
        "value": "21-3259825"
      } ],
      "active": true,
      "type": [ {
        "coding": [ {
          "system": "http://terminology.hl7.org/CodeSystem/organization-type",
          "code": "pay",
          "display": "Payer"
        } ]
      } ],
      "name": "Blue Cross Blue Shield of Texas",
      "telecom": [ {
        "system": "phone",
        "value": "(+1) 972-766-6900"
      } ],
      "address": [ {
        "use": "billing",
        "type": "postal",
        "line": [ "P.O. Box 660044" ],
        "city": "Dallas",
        "state": "TX",
        "postalCode": "75266-0044",
        "country": "USA"
      } ]
    },
    "request": {
      "method": "PUT",
      "url": "Organization/677ff112-f1d8-4f0f-be8c-0e0fba2cc484"
    }
  }, {
    "fullUrl": "https://madie.cms.gov/Practitioner/d19a2bd8-e437-4d69-8010-5ffeecf903b8",
    "resource": {
      "resourceType": "Practitioner",
      "id": "d19a2bd8-e437-4d69-8010-5ffeecf903b8",
      "identifier": [ {
        "system": "http://hl7.org/fhir/sid/us-npi",
        "value": "123456"
      } ],
      "name": [ {
        "family": "Evil",
        "prefix": [ "Dr" ]
      } ]
    },
    "request": {
      "method": "PUT",
      "url": "Practitioner/d19a2bd8-e437-4d69-8010-5ffeecf903b8"
    }
  }, {
    "fullUrl": "https://madie.cms.gov/MeasureReport/e00cefaa-e014-4a31-aae5-a608027b6fa9",
    "resource": {
      "resourceType": "MeasureReport",
      "id": "e00cefaa-e014-4a31-aae5-a608027b6fa9",
      "meta": {
        "profile": [ "http://hl7.org/fhir/us/cqfmeasures/StructureDefinition/test-case-cqfm" ]
      },
      "contained": [ {
        "resourceType": "Parameters",
        "id": "b8bd1931-b715-4ec6-b8de-e7bbbbdbdf05-parameters",
        "parameter": [ {
          "name": "subject",
          "valueString": "99440dd9-4de8-4a02-8cd6-bccbda4bc1dc"
        } ]
      } ],
      "extension": [ {
        "url": "http://hl7.org/fhir/StructureDefinition/cqf-inputParameters",
        "valueReference": {
          "reference": "#b8bd1931-b715-4ec6-b8de-e7bbbbdbdf05-parameters"
        }
      }, {
        "url": "http://hl7.org/fhir/us/cqfmeasures/StructureDefinition/cqfm-testCaseDescription",
        "valueMarkdown": "Passes IP, DEN, NUM; Gravida 1( effective date 42 weeks)  and EGA 40 weeks; "
      } ],
      "modifierExtension": [ {
        "url": "http://hl7.org/fhir/us/cqfmeasures/StructureDefinition/cqfm-isTestCase",
        "valueBoolean": true
      } ],
      "status": "complete",
      "type": "individual",
      "measure": "https://madie.cms.gov/Measure/CMS0334FHIRPCCesareanBirth",
      "period": {
        "start": "2026-01-01",
        "end": "2026-12-31"
      },
      "group": [ {
        "id": "Group_1",
        "population": [ {
          "id": "InitialPopulation_1",
          "code": {
            "coding": [ {
              "system": "http://terminology.hl7.org/CodeSystem/measure-population",
              "code": "initial-population",
              "display": "Initial Population"
            } ]
          },
          "count": 1
        }, {
          "id": "Denominator_1",
          "code": {
            "coding": [ {
              "system": "http://terminology.hl7.org/CodeSystem/measure-population",
              "code": "denominator",
              "display": "Denominator"
            } ]
          },
          "count": 1
        }, {
          "id": "DenominatorExclusion_1",
          "code": {
            "coding": [ {
              "system": "http://terminology.hl7.org/CodeSystem/measure-population",
              "code": "denominator-exclusion",
              "display": "Denominator Exclusion"
            } ]
          },
          "count": 0
        }, {
          "id": "Numerator_1",
          "code": {
            "coding": [ {
              "system": "http://terminology.hl7.org/CodeSystem/measure-population",
              "code": "numerator",
              "display": "Numerator"
            } ]
          },
          "count": 1
        } ],
        "measureScore": {
          "value": 0.0
        }
      } ],
      "evaluatedResource": [ {
        "reference": "Patient/99440dd9-4de8-4a02-8cd6-bccbda4bc1dc"
      }, {
        "reference": "Observation/0bc0b0c2-40e8-41c8-850b-a6305a44940e"
      }, {
        "reference": "Observation/ca807d9a-bdfb-48d4-b70d-9dbc8bceab98"
      }, {
        "reference": "Observation/db53d2f9-0b26-43bd-a422-e7dad6ffe794"
      }, {
        "reference": "Encounter/18e70781-61dd-40be-adff-d3d675b8cb66"
      }, {
        "reference": "Procedure/400bd1a8-0b94-4b78-93d4-594eb8e8aea6"
      }, {
        "reference": "Condition/b70a8b04-75dd-4578-bc35-aa38c10b0e6b"
      }, {
        "reference": "Coverage/c5c16c47-7d31-4442-aaff-da20b9a21a20"
      }, {
        "reference": "Organization/677ff112-f1d8-4f0f-be8c-0e0fba2cc484"
      }, {
        "reference": "Practitioner/d19a2bd8-e437-4d69-8010-5ffeecf903b8"
      } ]
    },
    "request": {
      "method": "PUT",
      "url": "MeasureReport/e00cefaa-e014-4a31-aae5-a608027b6fa9"
    }
  } ]
}