{
  "resourceType": "Bundle",
  "id": "6298e7375c5f0f80c3806875",
  "type": "collection",
  "entry": [ {
    "fullUrl": "https://madie.cms.gov/Patient/ed027d3a-1e21-4c66-8357-cfe1d05ae918",
    "resource": {
      "resourceType": "Patient",
      "id": "ed027d3a-1e21-4c66-8357-cfe1d05ae918",
      "meta": {
        "profile": [ "http://hl7.org/fhir/us/qicore/StructureDefinition/qicore-patient" ]
      },
      "extension": [ {
        "url": "http://hl7.org/fhir/us/core/StructureDefinition/us-core-race",
        "extension": [ {
          "url": "ombCategory",
          "valueCoding": {
            "system": "urn:oid:2.16.840.1.113883.6.238",
            "code": "1002-5",
            "display": "American Indian or Alaska Native",
            "userSelected": true
          }
        }, {
          "url": "text",
          "valueString": "American Indian or Alaska Native"
        } ]
      }, {
        "url": "http://hl7.org/fhir/us/core/StructureDefinition/us-core-ethnicity",
        "extension": [ {
          "url": "ombCategory",
          "valueCoding": {
            "system": "urn:oid:2.16.840.1.113883.6.238",
            "code": "2135-2",
            "display": "Hispanic or Latino",
            "userSelected": true
          }
        }, {
          "url": "text",
          "valueString": "Hispanic or Latino"
        } ]
      } ],
      "identifier": [ {
        "type": {
          "coding": [ {
            "system": "http://terminology.hl7.org/CodeSystem/v2-0203",
            "code": "MR"
          } ]
        },
        "system": "https://bonnie-fhir.healthit.gov/",
        "value": "6298e7375c5f0f80c3806875"
      } ],
      "name": [ {
        "family": "IPPass",
        "given": [ "PtwithPrCaDxFirstDayofMP" ]
      } ],
      "gender": "male",
      "birthDate": "1967-01-19"
    }
  }, {
    "fullUrl": "https://madie.cms.gov/Condition/d732733e-d159-46e2-a337-acf5af32218c",
    "resource": {
      "resourceType": "Condition",
      "id": "d732733e-d159-46e2-a337-acf5af32218c",
      "meta": {
        "profile": [ "http://hl7.org/fhir/us/qicore/StructureDefinition/qicore-condition-problems-health-concerns" ]
      },
      "clinicalStatus": {
        "coding": [ {
          "system": "http://terminology.hl7.org/CodeSystem/condition-clinical",
          "code": "active",
          "display": "active",
          "userSelected": true
        } ]
      },
      "category": [ {
        "coding": [ {
          "system": "http://hl7.org/fhir/us/core/CodeSystem/condition-category",
          "code": "health-concern",
          "display": "Health Concern"
        }, {
          "system": "http://snomed.info/sct",
          "code": "439401001",
          "display": "Diagnosis"
        } ]
      } ],
      "code": {
        "coding": [ {
          "system": "http://snomed.info/sct",
          "code": "1208457007",
          "userSelected": true
        } ]
      },
      "subject": {
        "reference": "Patient/ed027d3a-1e21-4c66-8357-cfe1d05ae918"
      },
      "onsetPeriod": {
        "start": "2026-01-01T08:00:00.000+00:00"
      },
      "recordedDate": "2026-06-07T08:00:00.000+00:00"
    }
  }, {
    "fullUrl": "https://madie.cms.gov/Coverage/c4330b1e-742c-4562-9aeb-bf53631d45ff",
    "resource": {
      "resourceType": "Coverage",
      "id": "c4330b1e-742c-4562-9aeb-bf53631d45ff",
      "meta": {
        "profile": [ "http://hl7.org/fhir/us/qicore/StructureDefinition/qicore-coverage" ]
      },
      "status": "active",
      "subscriberId": "123456789",
      "beneficiary": {
        "reference": "Patient/ed027d3a-1e21-4c66-8357-cfe1d05ae918"
      },
      "relationship": {
        "coding": [ {
          "system": "http://terminology.hl7.org/CodeSystem/subscriber-relationship",
          "code": "self",
          "display": "Self",
          "userSelected": true
        } ]
      },
      "payor": [ {
        "reference": "Organization/6f84d5f9-91cf-43fd-9016-02390c5621c4"
      } ]
    }
  }, {
    "fullUrl": "https://madie.cms.gov/Organization/6f84d5f9-91cf-43fd-9016-02390c5621c4",
    "resource": {
      "resourceType": "Organization",
      "id": "6f84d5f9-91cf-43fd-9016-02390c5621c4",
      "meta": {
        "profile": [ "http://hl7.org/fhir/us/qicore/StructureDefinition/qicore-organization" ]
      },
      "identifier": [ {
        "use": "temp",
        "system": "urn:oid:2.16.840.1.113883.4.4",
        "value": "21-3259825"
      } ],
      "active": true,
      "type": [ {
        "coding": [ {
          "system": "http://terminology.hl7.org/CodeSystem/organization-type",
          "code": "pay",
          "display": "Payer"
        } ]
      } ],
      "name": "Blue Cross Blue Shield of Texas",
      "telecom": [ {
        "system": "phone",
        "value": "(+1) 972-766-6900"
      } ],
      "address": [ {
        "use": "billing",
        "type": "postal",
        "line": [ "P.O. Box 660044" ],
        "city": "Dallas",
        "state": "TX",
        "postalCode": "75266-0044",
        "country": "USA"
      } ]
    }
  }, {
    "fullUrl": "https://madie.cms.gov/Practitioner/f02cf8cb-e67c-495d-84cc-3d80500bc1bc",
    "resource": {
      "resourceType": "Practitioner",
      "id": "f02cf8cb-e67c-495d-84cc-3d80500bc1bc",
      "meta": {
        "profile": [ "http://hl7.org/fhir/us/qicore/StructureDefinition/qicore-practitioner" ]
      },
      "identifier": [ {
        "system": "http://hl7.org/fhir/sid/us-npi",
        "value": "1234567893"
      } ],
      "name": [ {
        "family": "Evil",
        "prefix": [ "Dr" ]
      } ]
    }
  }, {
    "fullUrl": "https://madie.cms.gov/MeasureReport/cdf6c598-5446-4dc2-9849-9b0e9f21dd87",
    "resource": {
      "resourceType": "MeasureReport",
      "id": "cdf6c598-5446-4dc2-9849-9b0e9f21dd87",
      "meta": {
        "profile": [ "http://hl7.org/fhir/us/cqfmeasures/StructureDefinition/test-case-cqfm" ]
      },
      "contained": [ {
        "resourceType": "Parameters",
        "id": "7fb44dd0-0523-4342-abcb-94accac133dd-parameters",
        "parameter": [ {
          "name": "subject",
          "valueString": "ed027d3a-1e21-4c66-8357-cfe1d05ae918"
        } ]
      } ],
      "extension": [ {
        "url": "http://hl7.org/fhir/StructureDefinition/cqf-inputParameters",
        "valueReference": {
          "reference": "#7fb44dd0-0523-4342-abcb-94accac133dd-parameters"
        }
      }, {
        "url": "http://hl7.org/fhir/us/cqfmeasures/StructureDefinition/cqfm-testCaseDescription",
        "valueMarkdown": "Patient  with diagnosis of  prostate cancer on first day of MP."
      } ],
      "modifierExtension": [ {
        "url": "http://hl7.org/fhir/us/cqfmeasures/StructureDefinition/cqfm-isTestCase",
        "valueBoolean": true
      } ],
      "status": "complete",
      "type": "individual",
      "measure": "https://madie.cms.gov/Measure/CMS129FHIRProstCaBoneScanUse",
      "period": {
        "start": "2026-01-01",
        "end": "2026-12-31"
      },
      "group": [ {
        "id": "Group_1",
        "population": [ {
          "id": "InitialPopulation_1",
          "code": {
            "coding": [ {
              "system": "http://terminology.hl7.org/CodeSystem/measure-population",
              "code": "initial-population",
              "display": "Initial Population"
            } ]
          },
          "count": 1
        }, {
          "id": "Denominator_1",
          "code": {
            "coding": [ {
              "system": "http://terminology.hl7.org/CodeSystem/measure-population",
              "code": "denominator",
              "display": "Denominator"
            } ]
          },
          "count": 0
        }, {
          "id": "Numerator_1",
          "code": {
            "coding": [ {
              "system": "http://terminology.hl7.org/CodeSystem/measure-population",
              "code": "numerator",
              "display": "Numerator"
            } ]
          },
          "count": 0
        }, {
          "id": "DenominatorException_1",
          "code": {
            "coding": [ {
              "system": "http://terminology.hl7.org/CodeSystem/measure-population",
              "code": "denominator-exception",
              "display": "Denominator Exception"
            } ]
          },
          "count": 0
        } ],
        "measureScore": {
          "value": 1.0
        }
      } ],
      "evaluatedResource": [ {
        "reference": "Patient/ed027d3a-1e21-4c66-8357-cfe1d05ae918"
      }, {
        "reference": "Condition/d732733e-d159-46e2-a337-acf5af32218c"
      }, {
        "reference": "Coverage/c4330b1e-742c-4562-9aeb-bf53631d45ff"
      }, {
        "reference": "Organization/6f84d5f9-91cf-43fd-9016-02390c5621c4"
      }, {
        "reference": "Practitioner/f02cf8cb-e67c-495d-84cc-3d80500bc1bc"
      } ]
    }
  } ]
}