{
  "resourceType": "Bundle",
  "id": "612e6ead02c62a011f2ef3a8",
  "type": "transaction",
  "entry": [ {
    "fullUrl": "https://madie.cms.gov/Patient/769b9fe2-bc63-4e59-8b42-703c98fe22b7",
    "resource": {
      "resourceType": "Patient",
      "id": "769b9fe2-bc63-4e59-8b42-703c98fe22b7",
      "meta": {
        "profile": [ "http://hl7.org/fhir/us/qicore/StructureDefinition/qicore-patient" ]
      },
      "text": {
        "status": "generated",
        "div": "<div xmlns=\"http://www.w3.org/1999/xhtml\"><div class=\"hapiHeaderText\">1LOSLT1DayICU2ndICULOSGT1Day <b>DENOMPASS </b></div><table class=\"hapiPropertyTable\"><tbody><tr><td>Identifier</td><td>6d76be9baa47bc8df50fa14784b8bb58</td></tr><tr><td>Date of birth</td><td><span>03 March 1974</span></td></tr></tbody></table></div>"
      },
      "extension": [ {
        "url": "http://hl7.org/fhir/us/core/StructureDefinition/us-core-race",
        "extension": [ {
          "url": "ombCategory",
          "valueCoding": {
            "system": "urn:oid:2.16.840.1.113883.6.238",
            "code": "1002-5",
            "display": "American Indian or Alaska Native",
            "userSelected": true
          }
        }, {
          "url": "text",
          "valueString": "American Indian or Alaska Native"
        } ]
      }, {
        "url": "http://hl7.org/fhir/us/core/StructureDefinition/us-core-ethnicity",
        "extension": [ {
          "url": "ombCategory",
          "valueCoding": {
            "system": "urn:oid:2.16.840.1.113883.6.238",
            "code": "2135-2",
            "display": "Hispanic or Latino",
            "userSelected": true
          }
        }, {
          "url": "text",
          "valueString": "Hispanic or Latino"
        } ]
      } ],
      "identifier": [ {
        "type": {
          "coding": [ {
            "system": "http://terminology.hl7.org/CodeSystem/v2-0203",
            "code": "MR"
          } ]
        },
        "system": "https://bonnie-fhir.healthit.gov/",
        "value": "612e6ead02c62a011f2ef3a8"
      } ],
      "active": true,
      "name": [ {
        "use": "usual",
        "family": "DENOMPass",
        "given": [ "1LOSLT1DayICU2ndICULOSGT1Day" ]
      } ],
      "gender": "female",
      "birthDate": "1975-03-03"
    },
    "request": {
      "method": "PUT",
      "url": "Patient/769b9fe2-bc63-4e59-8b42-703c98fe22b7"
    }
  }, {
    "fullUrl": "https://madie.cms.gov/Encounter/204a2336-3326-45c2-be80-aa47679555eb",
    "resource": {
      "resourceType": "Encounter",
      "id": "204a2336-3326-45c2-be80-aa47679555eb",
      "meta": {
        "profile": [ "http://hl7.org/fhir/us/qicore/StructureDefinition/qicore-encounter" ]
      },
      "status": "finished",
      "class": {
        "system": "http://terminology.hl7.org/CodeSystem/v3-ActCode",
        "code": "IMP",
        "display": "inpatient encounter"
      },
      "type": [ {
        "coding": [ {
          "system": "http://snomed.info/sct",
          "code": "8715000",
          "display": "Hospital admission, elective (procedure)"
        } ]
      } ],
      "subject": {
        "reference": "Patient/769b9fe2-bc63-4e59-8b42-703c98fe22b7"
      },
      "period": {
        "start": "2026-12-04T08:00:00.000+00:00",
        "end": "2026-12-30T08:15:00.000+00:00"
      },
      "length": {
        "value": 26.0,
        "unit": "days"
      },
      "location": [ {
        "location": {
          "reference": "Location/251ae98f-6964-49b2-968e-59759265397b"
        },
        "period": {
          "start": "2026-12-06T08:00:00.000+00:00",
          "end": "2026-12-06T18:15:00.000+00:00"
        }
      }, {
        "location": {
          "reference": "Location/d5676be4-926e-422c-bca6-053313947764"
        },
        "period": {
          "start": "2026-12-23T08:00:00.000+00:00",
          "end": "2026-12-27T08:15:00.000+00:00"
        }
      } ]
    },
    "request": {
      "method": "PUT",
      "url": "Encounter/204a2336-3326-45c2-be80-aa47679555eb"
    }
  }, {
    "fullUrl": "https://madie.cms.gov/MedicationAdministration/7ac93b3c-3f91-4b90-833e-dc9e8ad93040",
    "resource": {
      "resourceType": "MedicationAdministration",
      "id": "7ac93b3c-3f91-4b90-833e-dc9e8ad93040",
      "meta": {
        "profile": [ "http://hl7.org/fhir/us/qicore/StructureDefinition/qicore-medicationadministration" ]
      },
      "status": "completed",
      "medicationCodeableConcept": {
        "coding": [ {
          "system": "http://www.nlm.nih.gov/research/umls/rxnorm",
          "code": "861356"
        } ]
      },
      "subject": {
        "reference": "Patient/769b9fe2-bc63-4e59-8b42-703c98fe22b7"
      },
      "effectiveDateTime": "2026-12-31T08:05:00.000+00:00"
    },
    "request": {
      "method": "PUT",
      "url": "MedicationAdministration/7ac93b3c-3f91-4b90-833e-dc9e8ad93040"
    }
  }, {
    "fullUrl": "https://madie.cms.gov/Coverage/aedb959e-1282-45a5-988c-204bb6d77a39",
    "resource": {
      "resourceType": "Coverage",
      "id": "aedb959e-1282-45a5-988c-204bb6d77a39",
      "status": "active",
      "beneficiary": {
        "reference": "Patient/769b9fe2-bc63-4e59-8b42-703c98fe22b7"
      },
      "period": {
        "start": "1975-03-03T08:00:00.000+00:00"
      },
      "payor": [ {
        "reference": "Organization/1e3854b3-739b-4026-8f9a-80d1ee763974"
      } ]
    },
    "request": {
      "method": "PUT",
      "url": "Coverage/aedb959e-1282-45a5-988c-204bb6d77a39"
    }
  }, {
    "fullUrl": "https://madie.cms.gov/Location/251ae98f-6964-49b2-968e-59759265397b",
    "resource": {
      "resourceType": "Location",
      "id": "251ae98f-6964-49b2-968e-59759265397b",
      "meta": {
        "profile": [ "http://hl7.org/fhir/us/qicore/StructureDefinition/qicore-location" ]
      },
      "identifier": [ {
        "use": "usual",
        "system": "http://exampleoflocation.com",
        "value": "B1-S.F2"
      } ],
      "name": "Medical Surgical East, first floor",
      "type": [ {
        "coding": [ {
          "system": "https://www.cdc.gov/nhsn/cdaportal/terminology/codesystem/hsloc.html",
          "version": "2020",
          "code": "1025-6",
          "display": "Trauma Critical Care",
          "userSelected": true
        } ]
      } ]
    },
    "request": {
      "method": "PUT",
      "url": "Location/251ae98f-6964-49b2-968e-59759265397b"
    }
  }, {
    "fullUrl": "https://madie.cms.gov/Location/d5676be4-926e-422c-bca6-053313947764",
    "resource": {
      "resourceType": "Location",
      "id": "d5676be4-926e-422c-bca6-053313947764",
      "meta": {
        "profile": [ "http://hl7.org/fhir/us/qicore/StructureDefinition/qicore-location" ]
      },
      "identifier": [ {
        "use": "usual",
        "system": "http://exampleoflocation.com",
        "value": "A1-S.F2"
      } ],
      "name": "Medical Surgical West, first floor",
      "type": [ {
        "coding": [ {
          "system": "https://www.cdc.gov/nhsn/cdaportal/terminology/codesystem/hsloc.html",
          "version": "2020",
          "code": "1025-6",
          "display": "Trauma Critical Care",
          "userSelected": true
        } ]
      } ]
    },
    "request": {
      "method": "PUT",
      "url": "Location/d5676be4-926e-422c-bca6-053313947764"
    }
  }, {
    "fullUrl": "https://madie.cms.gov/Organization/1e3854b3-739b-4026-8f9a-80d1ee763974",
    "resource": {
      "resourceType": "Organization",
      "id": "1e3854b3-739b-4026-8f9a-80d1ee763974",
      "meta": {
        "profile": [ "http://hl7.org/fhir/us/qicore/StructureDefinition/qicore-organization" ]
      },
      "identifier": [ {
        "use": "temp",
        "system": "urn:oid:2.16.840.1.113883.4.4",
        "value": "21-3259825"
      } ],
      "active": true,
      "type": [ {
        "coding": [ {
          "system": "http://terminology.hl7.org/CodeSystem/organization-type",
          "code": "pay",
          "display": "Payer"
        } ]
      } ],
      "name": "Blue Cross Blue Shield of Texas",
      "telecom": [ {
        "system": "phone",
        "value": "(+1) 972-766-6900"
      } ],
      "address": [ {
        "use": "billing",
        "type": "postal",
        "line": [ "P.O. Box 660044" ],
        "city": "Dallas",
        "state": "TX",
        "postalCode": "75266-0044",
        "country": "USA"
      } ]
    },
    "request": {
      "method": "PUT",
      "url": "Organization/1e3854b3-739b-4026-8f9a-80d1ee763974"
    }
  }, {
    "fullUrl": "https://madie.cms.gov/MeasureReport/4bc23029-258b-4831-a296-49c845450fcf",
    "resource": {
      "resourceType": "MeasureReport",
      "id": "4bc23029-258b-4831-a296-49c845450fcf",
      "meta": {
        "profile": [ "http://hl7.org/fhir/us/cqfmeasures/StructureDefinition/test-case-cqfm" ]
      },
      "contained": [ {
        "resourceType": "Parameters",
        "id": "016d62e4-9229-413f-8959-bae95e358cd7-parameters",
        "parameter": [ {
          "name": "subject",
          "valueString": "769b9fe2-bc63-4e59-8b42-703c98fe22b7"
        } ]
      } ],
      "extension": [ {
        "url": "http://hl7.org/fhir/StructureDefinition/cqf-inputParameters",
        "valueReference": {
          "reference": "#016d62e4-9229-413f-8959-bae95e358cd7-parameters"
        }
      }, {
        "url": "http://hl7.org/fhir/us/cqfmeasures/StructureDefinition/cqfm-testCaseDescription",
        "valueMarkdown": "denominator exception for the first  ICU LOS < 1 day and 2nd is > 1 day\n"
      } ],
      "modifierExtension": [ {
        "url": "http://hl7.org/fhir/us/cqfmeasures/StructureDefinition/cqfm-isTestCase",
        "valueBoolean": true
      } ],
      "status": "complete",
      "type": "individual",
      "measure": "https://madie.cms.gov/Measure/CMS190FHIRVTEProphylaxisICU",
      "period": {
        "start": "2026-01-01",
        "end": "2026-12-31"
      },
      "group": [ {
        "id": "Group_1",
        "population": [ {
          "id": "InitialPopulation_1",
          "code": {
            "coding": [ {
              "system": "http://terminology.hl7.org/CodeSystem/measure-population",
              "code": "initial-population",
              "display": "Initial Population"
            } ]
          },
          "count": 1
        }, {
          "id": "Denominator_1",
          "code": {
            "coding": [ {
              "system": "http://terminology.hl7.org/CodeSystem/measure-population",
              "code": "denominator",
              "display": "Denominator"
            } ]
          },
          "count": 1
        }, {
          "id": "DenominatorExclusion_1",
          "code": {
            "coding": [ {
              "system": "http://terminology.hl7.org/CodeSystem/measure-population",
              "code": "denominator-exclusion",
              "display": "Denominator Exclusion"
            } ]
          },
          "count": 0
        }, {
          "id": "Numerator_1",
          "code": {
            "coding": [ {
              "system": "http://terminology.hl7.org/CodeSystem/measure-population",
              "code": "numerator",
              "display": "Numerator"
            } ]
          },
          "count": 0
        }, {
          "id": "DenominatorException_1",
          "code": {
            "coding": [ {
              "system": "http://terminology.hl7.org/CodeSystem/measure-population",
              "code": "denominator-exception",
              "display": "Denominator Exception"
            } ]
          },
          "count": 1
        } ],
        "measureScore": {
          "value": 0.0
        }
      } ],
      "evaluatedResource": [ {
        "reference": "Patient/769b9fe2-bc63-4e59-8b42-703c98fe22b7"
      }, {
        "reference": "Encounter/204a2336-3326-45c2-be80-aa47679555eb"
      }, {
        "reference": "MedicationAdministration/7ac93b3c-3f91-4b90-833e-dc9e8ad93040"
      }, {
        "reference": "Coverage/aedb959e-1282-45a5-988c-204bb6d77a39"
      }, {
        "reference": "Location/251ae98f-6964-49b2-968e-59759265397b"
      }, {
        "reference": "Location/d5676be4-926e-422c-bca6-053313947764"
      }, {
        "reference": "Organization/1e3854b3-739b-4026-8f9a-80d1ee763974"
      } ]
    },
    "request": {
      "method": "PUT",
      "url": "MeasureReport/4bc23029-258b-4831-a296-49c845450fcf"
    }
  } ]
}