{
  "resourceType": "Bundle",
  "id": "DENEX2Pass-HospiceEncOverlapsMP",
  "type": "transaction",
  "entry": [ {
    "fullUrl": "https://madie.cms.gov/Patient/0039c514-9277-46cd-9e6a-2f402b5357f5",
    "resource": {
      "resourceType": "Patient",
      "id": "0039c514-9277-46cd-9e6a-2f402b5357f5",
      "meta": {
        "profile": [ "http://hl7.org/fhir/us/qicore/StructureDefinition/qicore-patient" ]
      },
      "extension": [ {
        "url": "http://hl7.org/fhir/us/core/StructureDefinition/us-core-race",
        "extension": [ {
          "url": "ombCategory",
          "valueCoding": {
            "system": "urn:oid:2.16.840.1.113883.6.238",
            "code": "2028-9",
            "display": "Asian",
            "userSelected": true
          }
        }, {
          "url": "text",
          "valueString": "Asian"
        } ]
      }, {
        "url": "http://hl7.org/fhir/us/core/StructureDefinition/us-core-ethnicity",
        "extension": [ {
          "url": "ombCategory",
          "valueCoding": {
            "system": "urn:oid:2.16.840.1.113883.6.238",
            "code": "2135-2",
            "display": "Hispanic or Latino",
            "userSelected": true
          }
        }, {
          "url": "text",
          "valueString": "Hispanic or Latino"
        } ]
      } ],
      "identifier": [ {
        "type": {
          "coding": [ {
            "system": "http://terminology.hl7.org/CodeSystem/v2-0203",
            "code": "MR"
          } ]
        },
        "system": "http://hospital.smarthealthit.org",
        "value": "999999995"
      } ],
      "name": [ {
        "family": "Bertha",
        "given": [ "Betty" ]
      } ],
      "gender": "female",
      "birthDate": "2016-12-31"
    },
    "request": {
      "method": "PUT",
      "url": "Patient/0039c514-9277-46cd-9e6a-2f402b5357f5"
    }
  }, {
    "fullUrl": "https://madie.cms.gov/Encounter/c242cf5d-dc15-4f67-b78e-a3d47fc8241d",
    "resource": {
      "resourceType": "Encounter",
      "id": "c242cf5d-dc15-4f67-b78e-a3d47fc8241d",
      "meta": {
        "profile": [ "http://hl7.org/fhir/us/qicore/StructureDefinition/qicore-encounter" ]
      },
      "status": "finished",
      "class": {
        "system": "http://terminology.hl7.org/CodeSystem/v3-ActCode",
        "code": "AMB",
        "display": "ambulatory"
      },
      "type": [ {
        "coding": [ {
          "system": "http://snomed.info/sct",
          "code": "185464004",
          "display": "Out of hours visit - not night visit (procedure)"
        } ]
      } ],
      "subject": {
        "reference": "Patient/0039c514-9277-46cd-9e6a-2f402b5357f5"
      },
      "period": {
        "start": "2026-01-01T00:00:00.000+00:00",
        "end": "2026-01-01T01:00:00.000+00:00"
      }
    },
    "request": {
      "method": "PUT",
      "url": "Encounter/c242cf5d-dc15-4f67-b78e-a3d47fc8241d"
    }
  }, {
    "fullUrl": "https://madie.cms.gov/MedicationRequest/e9097424-839c-4960-91a9-970084f969b4",
    "resource": {
      "resourceType": "MedicationRequest",
      "id": "e9097424-839c-4960-91a9-970084f969b4",
      "meta": {
        "profile": [ "http://hl7.org/fhir/us/qicore/StructureDefinition/qicore-medicationrequest" ]
      },
      "status": "completed",
      "intent": "order",
      "medicationCodeableConcept": {
        "coding": [ {
          "system": "http://www.nlm.nih.gov/research/umls/rxnorm",
          "code": "884173",
          "display": "clonidine hydrochloride 0.1 MG Oral Tablet"
        } ]
      },
      "subject": {
        "reference": "Patient/0039c514-9277-46cd-9e6a-2f402b5357f5"
      },
      "authoredOn": "2026-01-02T00:00:00.000+00:00",
      "requester": {
        "reference": "Practitioner/example"
      },
      "dosageInstruction": [ {
        "timing": {
          "repeat": {
            "boundsPeriod": {
              "start": "2026-01-02T00:00:00.000+00:00",
              "end": "2026-07-30T23:59:59.000+00:00"
            }
          }
        }
      } ],
      "dispenseRequest": {
        "expectedSupplyDuration": {
          "value": 210,
          "system": "http://unitsofmeasure.org",
          "code": "d"
        }
      }
    },
    "request": {
      "method": "PUT",
      "url": "MedicationRequest/e9097424-839c-4960-91a9-970084f969b4"
    }
  }, {
    "fullUrl": "https://madie.cms.gov/Encounter/1ee7473f-fa4d-44da-9a22-7b11af7a2cd9",
    "resource": {
      "resourceType": "Encounter",
      "id": "1ee7473f-fa4d-44da-9a22-7b11af7a2cd9",
      "meta": {
        "profile": [ "http://hl7.org/fhir/us/qicore/StructureDefinition/qicore-encounter" ]
      },
      "status": "finished",
      "class": {
        "system": "http://terminology.hl7.org/CodeSystem/v3-ActCode",
        "code": "AMB",
        "display": "ambulatory"
      },
      "type": [ {
        "coding": [ {
          "system": "http://www.ama-assn.org/go/cpt",
          "code": "90791",
          "display": "Psychiatric diagnostic evaluation"
        } ]
      } ],
      "subject": {
        "reference": "Patient/0039c514-9277-46cd-9e6a-2f402b5357f5"
      },
      "period": {
        "start": "2026-01-31T00:00:00.000+00:00",
        "end": "2026-01-31T01:00:00.000+00:00"
      }
    },
    "request": {
      "method": "PUT",
      "url": "Encounter/1ee7473f-fa4d-44da-9a22-7b11af7a2cd9"
    }
  }, {
    "fullUrl": "https://madie.cms.gov/Encounter/c72214c9-53f5-4c1f-a61d-066bc9a00127",
    "resource": {
      "resourceType": "Encounter",
      "id": "c72214c9-53f5-4c1f-a61d-066bc9a00127",
      "meta": {
        "profile": [ "http://hl7.org/fhir/us/qicore/StructureDefinition/qicore-encounter" ]
      },
      "status": "finished",
      "class": {
        "system": "http://terminology.hl7.org/CodeSystem/v3-ActCode",
        "code": "AMB",
        "display": "ambulatory"
      },
      "type": [ {
        "coding": [ {
          "system": "http://www.ama-assn.org/go/cpt",
          "code": "90791",
          "display": "Psychiatric diagnostic evaluation"
        } ]
      } ],
      "subject": {
        "reference": "Patient/0039c514-9277-46cd-9e6a-2f402b5357f5"
      },
      "period": {
        "start": "2026-06-30T00:00:00.000+00:00",
        "end": "2026-06-30T01:00:00.000+00:00"
      }
    },
    "request": {
      "method": "PUT",
      "url": "Encounter/c72214c9-53f5-4c1f-a61d-066bc9a00127"
    }
  }, {
    "fullUrl": "https://madie.cms.gov/Encounter/939ac651-9734-4726-928c-45a8c131ff68",
    "resource": {
      "resourceType": "Encounter",
      "id": "939ac651-9734-4726-928c-45a8c131ff68",
      "meta": {
        "profile": [ "http://hl7.org/fhir/us/qicore/StructureDefinition/qicore-encounter" ]
      },
      "status": "finished",
      "class": {
        "system": "http://terminology.hl7.org/CodeSystem/v3-ActCode",
        "code": "AMB",
        "display": "ambulatory"
      },
      "type": [ {
        "coding": [ {
          "system": "http://www.ama-assn.org/go/cpt",
          "code": "99245",
          "display": "Office or other outpatient consultation for a new or established patient, which requires a medically appropriate history and/or examination and high level of medical decision making. When using total time on the date of the encounter for code selection, 55 minutes must be met or exceeded."
        } ]
      } ],
      "subject": {
        "reference": "Patient/0039c514-9277-46cd-9e6a-2f402b5357f5"
      },
      "period": {
        "start": "2026-08-31T00:00:00.000+00:00",
        "end": "2026-08-31T01:00:00.000+00:00"
      }
    },
    "request": {
      "method": "PUT",
      "url": "Encounter/939ac651-9734-4726-928c-45a8c131ff68"
    }
  }, {
    "fullUrl": "https://madie.cms.gov/Encounter/3895a4f5-2c04-4f34-9e2d-edc96024e9f0",
    "resource": {
      "resourceType": "Encounter",
      "id": "3895a4f5-2c04-4f34-9e2d-edc96024e9f0",
      "meta": {
        "profile": [ "http://hl7.org/fhir/us/qicore/StructureDefinition/qicore-encounter" ]
      },
      "status": "finished",
      "class": {
        "system": "http://terminology.hl7.org/CodeSystem/v3-ActCode",
        "code": "AMB",
        "display": "ambulatory"
      },
      "type": [ {
        "coding": [ {
          "system": "http://snomed.info/sct",
          "code": "183921001",
          "display": "Admission to hospice for respite (procedure)"
        } ]
      } ],
      "subject": {
        "reference": "Patient/0039c514-9277-46cd-9e6a-2f402b5357f5"
      },
      "period": {
        "start": "2025-12-31T23:59:59.000+00:00",
        "end": "2026-01-01T01:00:00.000+00:00"
      }
    },
    "request": {
      "method": "PUT",
      "url": "Encounter/3895a4f5-2c04-4f34-9e2d-edc96024e9f0"
    }
  }, {
    "fullUrl": "https://madie.cms.gov/MeasureReport/27ccf017-c687-42a0-83f3-9943fec666c4",
    "resource": {
      "resourceType": "MeasureReport",
      "id": "27ccf017-c687-42a0-83f3-9943fec666c4",
      "meta": {
        "profile": [ "http://hl7.org/fhir/us/cqfmeasures/StructureDefinition/test-case-cqfm" ]
      },
      "contained": [ {
        "resourceType": "Parameters",
        "id": "38b90506-9bcd-4896-8db4-2f2d46979684-parameters",
        "parameter": [ {
          "name": "subject",
          "valueString": "0039c514-9277-46cd-9e6a-2f402b5357f5"
        } ]
      } ],
      "extension": [ {
        "url": "http://hl7.org/fhir/StructureDefinition/cqf-inputParameters",
        "valueReference": {
          "reference": "#38b90506-9bcd-4896-8db4-2f2d46979684-parameters"
        }
      }, {
        "url": "http://hl7.org/fhir/us/cqfmeasures/StructureDefinition/cqfm-testCaseDescription",
        "valueMarkdown": "Hospice encounter overlaps the MP"
      } ],
      "modifierExtension": [ {
        "url": "http://hl7.org/fhir/us/cqfmeasures/StructureDefinition/cqfm-isTestCase",
        "valueBoolean": true
      } ],
      "status": "complete",
      "type": "individual",
      "measure": "https://madie.cms.gov/Measure/CMS136FHIRChildADHDMedFollowUp",
      "period": {
        "start": "2026-01-01",
        "end": "2026-12-31"
      },
      "group": [ {
        "id": "Group_1",
        "population": [ {
          "id": "InitialPopulation_1",
          "code": {
            "coding": [ {
              "system": "http://terminology.hl7.org/CodeSystem/measure-population",
              "code": "initial-population",
              "display": "Initial Population"
            } ]
          },
          "count": 1
        }, {
          "id": "Denominator_1",
          "code": {
            "coding": [ {
              "system": "http://terminology.hl7.org/CodeSystem/measure-population",
              "code": "denominator",
              "display": "Denominator"
            } ]
          },
          "count": 1
        }, {
          "id": "DenominatorExclusion_1",
          "code": {
            "coding": [ {
              "system": "http://terminology.hl7.org/CodeSystem/measure-population",
              "code": "denominator-exclusion",
              "display": "Denominator Exclusion"
            } ]
          },
          "count": 1
        }, {
          "id": "Numerator_1",
          "code": {
            "coding": [ {
              "system": "http://terminology.hl7.org/CodeSystem/measure-population",
              "code": "numerator",
              "display": "Numerator"
            } ]
          },
          "count": 0
        } ],
        "measureScore": {
          "value": 1.0
        }
      }, {
        "id": "Group_2",
        "population": [ {
          "id": "InitialPopulation_2",
          "code": {
            "coding": [ {
              "system": "http://terminology.hl7.org/CodeSystem/measure-population",
              "code": "initial-population",
              "display": "Initial Population"
            } ]
          },
          "count": 1
        }, {
          "id": "Denominator_2",
          "code": {
            "coding": [ {
              "system": "http://terminology.hl7.org/CodeSystem/measure-population",
              "code": "denominator",
              "display": "Denominator"
            } ]
          },
          "count": 1
        }, {
          "id": "DenominatorExclusion_2",
          "code": {
            "coding": [ {
              "system": "http://terminology.hl7.org/CodeSystem/measure-population",
              "code": "denominator-exclusion",
              "display": "Denominator Exclusion"
            } ]
          },
          "count": 1
        }, {
          "id": "Numerator_2",
          "code": {
            "coding": [ {
              "system": "http://terminology.hl7.org/CodeSystem/measure-population",
              "code": "numerator",
              "display": "Numerator"
            } ]
          },
          "count": 0
        } ],
        "measureScore": {
          "value": 1.0
        }
      } ],
      "evaluatedResource": [ {
        "reference": "Patient/0039c514-9277-46cd-9e6a-2f402b5357f5"
      }, {
        "reference": "Encounter/c242cf5d-dc15-4f67-b78e-a3d47fc8241d"
      }, {
        "reference": "MedicationRequest/e9097424-839c-4960-91a9-970084f969b4"
      }, {
        "reference": "Encounter/1ee7473f-fa4d-44da-9a22-7b11af7a2cd9"
      }, {
        "reference": "Encounter/c72214c9-53f5-4c1f-a61d-066bc9a00127"
      }, {
        "reference": "Encounter/939ac651-9734-4726-928c-45a8c131ff68"
      }, {
        "reference": "Encounter/3895a4f5-2c04-4f34-9e2d-edc96024e9f0"
      } ]
    },
    "request": {
      "method": "PUT",
      "url": "MeasureReport/27ccf017-c687-42a0-83f3-9943fec666c4"
    }
  } ]
}