{
  "resourceType": "Bundle",
  "id": "60f82c3098086b570510e2f5",
  "type": "transaction",
  "entry": [ {
    "fullUrl": "https://madie.cms.gov/Patient/b83b6e42-6291-4b2c-83e0-06e09e30e973",
    "resource": {
      "resourceType": "Patient",
      "id": "b83b6e42-6291-4b2c-83e0-06e09e30e973",
      "meta": {
        "profile": [ "http://hl7.org/fhir/us/qicore/StructureDefinition/qicore-patient" ]
      },
      "text": {
        "status": "generated",
        "div": "<div xmlns=\"http://www.w3.org/1999/xhtml\"><div class=\"hapiHeaderText\">CMO_DayOf_AuthDat_OnEDStart_EDEndLT1hrB4Obs_ObsEndLT1hrB4IP <b>DENEXPASS </b></div><table class=\"hapiPropertyTable\"><tbody><tr><td>Date of birth</td><td><span>01 January 1980</span></td></tr></tbody></table></div>"
      },
      "extension": [ {
        "url": "http://hl7.org/fhir/us/core/StructureDefinition/us-core-race",
        "extension": [ {
          "url": "ombCategory",
          "valueCoding": {
            "system": "urn:oid:2.16.840.1.113883.6.238",
            "code": "2106-3",
            "display": "White",
            "userSelected": true
          }
        }, {
          "url": "text",
          "valueString": "White"
        } ]
      }, {
        "url": "http://hl7.org/fhir/us/core/StructureDefinition/us-core-ethnicity",
        "extension": [ {
          "url": "ombCategory",
          "valueCoding": {
            "system": "urn:oid:2.16.840.1.113883.6.238",
            "code": "2186-5",
            "display": "Not Hispanic or Latino",
            "userSelected": true
          }
        }, {
          "url": "text",
          "valueString": "Not Hispanic or Latino"
        } ]
      } ],
      "identifier": [ {
        "type": {
          "coding": [ {
            "system": "http://terminology.hl7.org/CodeSystem/v2-0203",
            "code": "MR"
          } ]
        },
        "system": "https://bonnie-fhir.healthit.gov/",
        "value": "60f82c3098086b570510e2f5"
      } ],
      "active": true,
      "name": [ {
        "use": "usual",
        "family": "DENEXPass",
        "given": [ "CMO_DayOf_AuthDat_OnEDStart_EDEndLT1hrB4Obs_ObsEndLT1hrB4IP" ]
      } ],
      "gender": "female",
      "birthDate": "1981-01-01"
    },
    "request": {
      "method": "PUT",
      "url": "Patient/b83b6e42-6291-4b2c-83e0-06e09e30e973"
    }
  }, {
    "fullUrl": "https://madie.cms.gov/Encounter/a1b91e5c-8833-4d53-be73-874912ead1cd",
    "resource": {
      "resourceType": "Encounter",
      "id": "a1b91e5c-8833-4d53-be73-874912ead1cd",
      "meta": {
        "profile": [ "http://hl7.org/fhir/us/qicore/StructureDefinition/qicore-encounter" ]
      },
      "status": "finished",
      "class": {
        "system": "http://terminology.hl7.org/CodeSystem/v3-ActCode",
        "code": "EMER",
        "display": "emergency",
        "userSelected": true
      },
      "type": [ {
        "coding": [ {
          "system": "http://snomed.info/sct",
          "code": "4525004"
        } ]
      } ],
      "subject": {
        "reference": "Patient/b83b6e42-6291-4b2c-83e0-06e09e30e973"
      },
      "period": {
        "start": "2026-11-18T07:00:00.000+00:00",
        "end": "2026-11-18T08:01:00.000+00:00"
      },
      "diagnosis": [ {
        "condition": {
          "reference": "Condition/300947b7-5189-4eb5-803c-1122a8cc1308"
        },
        "use": {
          "coding": [ {
            "system": "http://snomed.info/sct",
            "code": "111297002",
            "display": "Nonparalytic stroke (disorder)"
          } ]
        },
        "rank": 1
      } ]
    },
    "request": {
      "method": "PUT",
      "url": "Encounter/a1b91e5c-8833-4d53-be73-874912ead1cd"
    }
  }, {
    "fullUrl": "https://madie.cms.gov/Encounter/3571bc56-a9d8-4aef-895b-fe9499c1a504",
    "resource": {
      "resourceType": "Encounter",
      "id": "3571bc56-a9d8-4aef-895b-fe9499c1a504",
      "meta": {
        "profile": [ "http://hl7.org/fhir/us/qicore/StructureDefinition/qicore-encounter" ]
      },
      "status": "finished",
      "class": {
        "system": "http://terminology.hl7.org/CodeSystem/v3-ActCode",
        "code": "OBSENC",
        "display": "observation encounter",
        "userSelected": true
      },
      "type": [ {
        "coding": [ {
          "system": "http://snomed.info/sct",
          "code": "448951000124107"
        } ]
      } ],
      "subject": {
        "reference": "Patient/b83b6e42-6291-4b2c-83e0-06e09e30e973"
      },
      "period": {
        "start": "2026-11-18T09:00:00.000+00:00",
        "end": "2026-11-18T10:01:00.000+00:00"
      }
    },
    "request": {
      "method": "PUT",
      "url": "Encounter/3571bc56-a9d8-4aef-895b-fe9499c1a504"
    }
  }, {
    "fullUrl": "https://madie.cms.gov/Encounter/5dcfd1c1-c71c-4f14-9644-7ed637792103",
    "resource": {
      "resourceType": "Encounter",
      "id": "5dcfd1c1-c71c-4f14-9644-7ed637792103",
      "meta": {
        "profile": [ "http://hl7.org/fhir/us/qicore/StructureDefinition/qicore-encounter" ]
      },
      "status": "finished",
      "class": {
        "system": "http://terminology.hl7.org/CodeSystem/v3-ActCode",
        "code": "IMP",
        "display": "inpatient encounter",
        "userSelected": true
      },
      "type": [ {
        "coding": [ {
          "system": "http://snomed.info/sct",
          "code": "183452005"
        } ]
      } ],
      "subject": {
        "reference": "Patient/b83b6e42-6291-4b2c-83e0-06e09e30e973"
      },
      "period": {
        "start": "2026-11-18T11:00:00.000+00:00",
        "end": "2026-11-20T08:15:00.000+00:00"
      },
      "reasonReference": [ {
        "reference": "Condition/300947b7-5189-4eb5-803c-1122a8cc1308"
      } ]
    },
    "request": {
      "method": "PUT",
      "url": "Encounter/5dcfd1c1-c71c-4f14-9644-7ed637792103"
    }
  }, {
    "fullUrl": "https://madie.cms.gov/claim/5ca62962b8484628b8de1ec5",
    "resource": {
      "resourceType": "Claim",
      "id": "5ca62962b8484628b8de1ec5",
      "meta": {
        "profile": [ "http://hl7.org/fhir/us/qicore/StructureDefinition/qicore-claim" ]
      },
      "status": "active",
      "type": {
        "coding": [ {
          "system": "http://terminology.hl7.org/CodeSystem/claim-type",
          "code": "institutional"
        } ]
      },
      "use": "claim",
      "patient": {
        "reference": "Patient/b83b6e42-6291-4b2c-83e0-06e09e30e973"
      },
      "created": "2026-12-01",
      "provider": {
        "reference": "Practitioner/practitioner-123456"
      },
      "priority": {
        "coding": [ {
          "system": "http://terminology.hl7.org/CodeSystem/processpriority",
          "code": "normal"
        } ]
      },
      "diagnosis": [ {
        "sequence": 1,
        "diagnosisCodeableConcept": {
          "coding": [ {
            "system": "http://hl7.org/fhir/sid/icd-10-cm",
            "code": "I63.00"
          } ]
        },
        "type": [ {
          "coding": [ {
            "system": "http://terminology.hl7.org/CodeSystem/ex-diagnosistype",
            "code": "principal"
          } ]
        } ]
      } ],
      "insurance": [ {
        "sequence": 1,
        "focal": true,
        "coverage": {
          "reference": "Coverage/ca35bd28-3cd1-4c39-8d46-b6b6809bf44d"
        }
      } ],
      "item": [ {
        "sequence": 1,
        "diagnosisSequence": [ 1 ],
        "productOrService": {
          "coding": [ {
            "system": "http://terminology.hl7.org/CodeSystem/ex-USCLS",
            "code": "99555"
          } ]
        },
        "encounter": [ {
          "reference": "Encounter/5dcfd1c1-c71c-4f14-9644-7ed637792103"
        } ]
      } ]
    },
    "request": {
      "method": "PUT",
      "url": "Claim/5ca62962b8484628b8de1ec5"
    }
  }, {
    "fullUrl": "https://madie.cms.gov/ServiceRequest/359dbe80-9572-4970-ba20-278a5d0049e1",
    "resource": {
      "resourceType": "ServiceRequest",
      "id": "359dbe80-9572-4970-ba20-278a5d0049e1",
      "meta": {
        "profile": [ "http://hl7.org/fhir/us/qicore/StructureDefinition/qicore-servicerequest" ]
      },
      "status": "active",
      "intent": "order",
      "code": {
        "coding": [ {
          "system": "http://snomed.info/sct",
          "code": "133918004"
        } ]
      },
      "subject": {
        "reference": "Patient/b83b6e42-6291-4b2c-83e0-06e09e30e973"
      },
      "authoredOn": "2026-11-18T07:00:00.000+00:00"
    },
    "request": {
      "method": "PUT",
      "url": "ServiceRequest/359dbe80-9572-4970-ba20-278a5d0049e1"
    }
  }, {
    "fullUrl": "https://madie.cms.gov/Condition/300947b7-5189-4eb5-803c-1122a8cc1308",
    "resource": {
      "resourceType": "Condition",
      "id": "300947b7-5189-4eb5-803c-1122a8cc1308",
      "meta": {
        "profile": [ "http://hl7.org/fhir/us/qicore/StructureDefinition/qicore-condition-encounter-diagnosis" ]
      },
      "clinicalStatus": {
        "coding": [ {
          "system": "http://terminology.hl7.org/CodeSystem/condition-clinical",
          "code": "active"
        } ]
      },
      "verificationStatus": {
        "coding": [ {
          "system": "http://terminology.hl7.org/CodeSystem/condition-ver-status",
          "code": "confirmed"
        } ]
      },
      "category": [ {
        "coding": [ {
          "system": "http://terminology.hl7.org/CodeSystem/condition-category",
          "code": "encounter-diagnosis",
          "display": "Encounter Diagnosis"
        } ]
      } ],
      "code": {
        "coding": [ {
          "system": "http://snomed.info/sct",
          "version": "2020-09",
          "code": "111297002",
          "display": "Nonparalytic stroke (disorder)",
          "userSelected": true
        } ]
      },
      "subject": {
        "reference": "Patient/b83b6e42-6291-4b2c-83e0-06e09e30e973"
      },
      "recordedDate": "2026-08-13T08:00:00.000+00:00"
    },
    "request": {
      "method": "PUT",
      "url": "Condition/300947b7-5189-4eb5-803c-1122a8cc1308"
    }
  }, {
    "fullUrl": "https://madie.cms.gov/Coverage/ca35bd28-3cd1-4c39-8d46-b6b6809bf44d",
    "resource": {
      "resourceType": "Coverage",
      "id": "ca35bd28-3cd1-4c39-8d46-b6b6809bf44d",
      "meta": {
        "profile": [ "http://hl7.org/fhir/us/qicore/StructureDefinition/qicore-coverage" ]
      },
      "status": "active",
      "beneficiary": {
        "reference": "Patient/b83b6e42-6291-4b2c-83e0-06e09e30e973"
      },
      "payor": [ {
        "reference": "Organization/728e36af-bae2-401e-940e-1f26b709629b"
      } ]
    },
    "request": {
      "method": "PUT",
      "url": "Coverage/ca35bd28-3cd1-4c39-8d46-b6b6809bf44d"
    }
  }, {
    "fullUrl": "https://madie.cms.gov/Organization/728e36af-bae2-401e-940e-1f26b709629b",
    "resource": {
      "resourceType": "Organization",
      "id": "728e36af-bae2-401e-940e-1f26b709629b",
      "meta": {
        "profile": [ "http://hl7.org/fhir/us/qicore/StructureDefinition/qicore-organization" ]
      },
      "identifier": [ {
        "use": "temp",
        "system": "urn:oid:2.16.840.1.113883.4.4",
        "value": "21-3259825"
      } ],
      "active": true,
      "type": [ {
        "coding": [ {
          "system": "http://terminology.hl7.org/CodeSystem/organization-type",
          "code": "pay",
          "display": "Payer"
        } ]
      } ],
      "name": "Blue Cross Blue Shield of Texas",
      "telecom": [ {
        "system": "phone",
        "value": "(+1) 972-766-6900"
      } ],
      "address": [ {
        "use": "billing",
        "type": "postal",
        "line": [ "P.O. Box 660044" ],
        "city": "Dallas",
        "state": "TX",
        "postalCode": "75266-0044",
        "country": "USA"
      } ]
    },
    "request": {
      "method": "PUT",
      "url": "Organization/728e36af-bae2-401e-940e-1f26b709629b"
    }
  }, {
    "fullUrl": "https://madie.cms.gov/MeasureReport/808b758b-e2da-42c2-891f-d83d9fc871fa",
    "resource": {
      "resourceType": "MeasureReport",
      "id": "808b758b-e2da-42c2-891f-d83d9fc871fa",
      "meta": {
        "profile": [ "http://hl7.org/fhir/us/cqfmeasures/StructureDefinition/test-case-cqfm" ]
      },
      "contained": [ {
        "resourceType": "Parameters",
        "id": "450c176e-4f3c-4b8f-a227-c2d90ab0bed0-parameters",
        "parameter": [ {
          "name": "subject",
          "valueString": "b83b6e42-6291-4b2c-83e0-06e09e30e973"
        } ]
      } ],
      "extension": [ {
        "url": "http://hl7.org/fhir/StructureDefinition/cqf-inputParameters",
        "valueReference": {
          "reference": "#450c176e-4f3c-4b8f-a227-c2d90ab0bed0-parameters"
        }
      }, {
        "url": "http://hl7.org/fhir/us/cqfmeasures/StructureDefinition/cqfm-testCaseDescription",
        "valueMarkdown": "Patient receives comfort measures ordereded on the day of hospital arrival, on the start of the ED start. ED ends less than 1 hour before Obs Start, Obs ends less than 1 hour before IP start.\n"
      } ],
      "modifierExtension": [ {
        "url": "http://hl7.org/fhir/us/cqfmeasures/StructureDefinition/cqfm-isTestCase",
        "valueBoolean": true
      } ],
      "status": "complete",
      "type": "individual",
      "measure": "https://madie.cms.gov/Measure/CMS72FHIRSTKAntithromboticDay2",
      "period": {
        "start": "2026-01-01",
        "end": "2026-12-31"
      },
      "group": [ {
        "id": "Group_1",
        "population": [ {
          "id": "InitialPopulation_1",
          "code": {
            "coding": [ {
              "system": "http://terminology.hl7.org/CodeSystem/measure-population",
              "code": "initial-population",
              "display": "Initial Population"
            } ]
          },
          "count": 1
        }, {
          "id": "Denominator_1",
          "code": {
            "coding": [ {
              "system": "http://terminology.hl7.org/CodeSystem/measure-population",
              "code": "denominator",
              "display": "Denominator"
            } ]
          },
          "count": 1
        }, {
          "id": "DenominatorExclusion_1",
          "code": {
            "coding": [ {
              "system": "http://terminology.hl7.org/CodeSystem/measure-population",
              "code": "denominator-exclusion",
              "display": "Denominator Exclusion"
            } ]
          },
          "count": 1
        }, {
          "id": "Numerator_1",
          "code": {
            "coding": [ {
              "system": "http://terminology.hl7.org/CodeSystem/measure-population",
              "code": "numerator",
              "display": "Numerator"
            } ]
          },
          "count": 0
        }, {
          "id": "DenominatorException_1",
          "code": {
            "coding": [ {
              "system": "http://terminology.hl7.org/CodeSystem/measure-population",
              "code": "denominator-exception",
              "display": "Denominator Exception"
            } ]
          },
          "count": 0
        } ],
        "measureScore": {
          "value": 0.0
        }
      } ],
      "evaluatedResource": [ {
        "reference": "Patient/b83b6e42-6291-4b2c-83e0-06e09e30e973"
      }, {
        "reference": "Encounter/a1b91e5c-8833-4d53-be73-874912ead1cd"
      }, {
        "reference": "Encounter/3571bc56-a9d8-4aef-895b-fe9499c1a504"
      }, {
        "reference": "Encounter/5dcfd1c1-c71c-4f14-9644-7ed637792103"
      }, {
        "reference": "Claim/5ca62962b8484628b8de1ec5"
      }, {
        "reference": "ServiceRequest/359dbe80-9572-4970-ba20-278a5d0049e1"
      }, {
        "reference": "Condition/300947b7-5189-4eb5-803c-1122a8cc1308"
      }, {
        "reference": "Coverage/ca35bd28-3cd1-4c39-8d46-b6b6809bf44d"
      }, {
        "reference": "Organization/728e36af-bae2-401e-940e-1f26b709629b"
      } ]
    },
    "request": {
      "method": "PUT",
      "url": "MeasureReport/808b758b-e2da-42c2-891f-d83d9fc871fa"
    }
  } ]
}