{
  "resourceType": "Bundle",
  "id": "64998bcecea95c34d9e5776c",
  "type": "collection",
  "entry": [ {
    "fullUrl": "https://madie.cms.gov/Patient/1e89cfdc-ec5e-456a-abcf-ab349c9cfbed",
    "resource": {
      "resourceType": "Patient",
      "id": "1e89cfdc-ec5e-456a-abcf-ab349c9cfbed",
      "meta": {
        "profile": [ "http://hl7.org/fhir/us/qicore/StructureDefinition/qicore-patient" ]
      },
      "extension": [ {
        "url": "http://hl7.org/fhir/us/core/StructureDefinition/us-core-race",
        "extension": [ {
          "url": "ombCategory",
          "valueCoding": {
            "system": "urn:oid:2.16.840.1.113883.6.238",
            "code": "2076-8",
            "display": "Native Hawaiian or Other Pacific Islander",
            "userSelected": true
          }
        }, {
          "url": "text",
          "valueString": "Native Hawaiian or Other Pacific Islander"
        } ]
      }, {
        "url": "http://hl7.org/fhir/us/core/StructureDefinition/us-core-ethnicity",
        "extension": [ {
          "url": "ombCategory",
          "valueCoding": {
            "system": "urn:oid:2.16.840.1.113883.6.238",
            "code": "2186-5",
            "display": "Not Hispanic or Latino",
            "userSelected": true
          }
        }, {
          "url": "text",
          "valueString": "Not Hispanic or Latino"
        } ]
      } ],
      "identifier": [ {
        "type": {
          "coding": [ {
            "system": "http://terminology.hl7.org/CodeSystem/v2-0203",
            "code": "MR"
          } ]
        },
        "system": "https://bonnie-fhir.healthit.gov/",
        "value": "64998bcecea95c34d9e5776c"
      } ],
      "name": [ {
        "family": "NumPass",
        "given": [ "2Tests1BeforeMP1duringMP" ]
      } ],
      "gender": "female",
      "birthDate": "1987-05-25"
    }
  }, {
    "fullUrl": "https://madie.cms.gov/Condition/afd0a85a-7f29-403a-885e-24e3262b4c2a",
    "resource": {
      "resourceType": "Condition",
      "id": "afd0a85a-7f29-403a-885e-24e3262b4c2a",
      "meta": {
        "profile": [ "http://hl7.org/fhir/us/qicore/StructureDefinition/qicore-condition-problems-health-concerns" ]
      },
      "clinicalStatus": {
        "coding": [ {
          "system": "http://terminology.hl7.org/CodeSystem/condition-clinical",
          "code": "active",
          "display": "active",
          "userSelected": true
        } ]
      },
      "category": [ {
        "coding": [ {
          "system": "http://terminology.hl7.org/CodeSystem/condition-category",
          "code": "problem-list-item",
          "display": "Problem List Item"
        } ]
      } ],
      "code": {
        "coding": [ {
          "system": "http://hl7.org/fhir/sid/icd-9-cm",
          "version": "2013",
          "code": "042",
          "display": "Human immunodeficiency virus [HIV] disease",
          "userSelected": true
        }, {
          "system": "http://snomed.info/sct",
          "version": "http://snomed.info/sct/731000124108/version/20250301",
          "code": "165816005",
          "userSelected": true
        } ]
      },
      "subject": {
        "reference": "Patient/1e89cfdc-ec5e-456a-abcf-ab349c9cfbed"
      },
      "onsetDateTime": "2024-12-02T13:00:00.000+00:00",
      "recordedDate": "2024-12-02T13:00:00.000+00:00"
    }
  }, {
    "fullUrl": "https://madie.cms.gov/Encounter/75bd0299-3d39-4d89-87b1-6752bbb2887f",
    "resource": {
      "resourceType": "Encounter",
      "id": "75bd0299-3d39-4d89-87b1-6752bbb2887f",
      "meta": {
        "profile": [ "http://hl7.org/fhir/us/qicore/StructureDefinition/qicore-encounter" ]
      },
      "status": "finished",
      "class": {
        "system": "http://terminology.hl7.org/CodeSystem/v3-ActCode",
        "code": "AMB",
        "display": "ambulatory"
      },
      "type": [ {
        "coding": [ {
          "system": "http://snomed.info/sct",
          "version": "2022-09",
          "code": "281036007",
          "display": "Follow-up consultation (procedure)",
          "userSelected": true
        } ]
      } ],
      "subject": {
        "reference": "Patient/1e89cfdc-ec5e-456a-abcf-ab349c9cfbed"
      },
      "period": {
        "start": "2026-03-07T10:00:00.000+00:00",
        "end": "2026-03-07T10:45:00.000+00:00"
      }
    }
  }, {
    "fullUrl": "https://madie.cms.gov/Observation/95dfaea2-1303-4368-8045-98753de93914",
    "resource": {
      "resourceType": "Observation",
      "id": "95dfaea2-1303-4368-8045-98753de93914",
      "meta": {
        "profile": [ "http://hl7.org/fhir/us/qicore/StructureDefinition/qicore-observation-lab" ]
      },
      "status": "final",
      "category": [ {
        "coding": [ {
          "system": "http://terminology.hl7.org/CodeSystem/observation-category",
          "code": "laboratory",
          "display": "Laboratory"
        } ]
      }, {
        "coding": [ {
          "system": "http://terminology.hl7.org/CodeSystem/observation-category",
          "code": "survey"
        } ]
      } ],
      "code": {
        "coding": [ {
          "system": "http://loinc.org",
          "version": "2.73",
          "code": "10351-5",
          "display": "HIV 1 RNA [Units/volume] (viral load) in Serum or Plasma by Probe with amplification",
          "userSelected": true
        } ]
      },
      "subject": {
        "reference": "Patient/1e89cfdc-ec5e-456a-abcf-ab349c9cfbed"
      },
      "effectiveDateTime": "2024-03-07T08:00:00.000+00:00",
      "issued": "2024-03-07T08:00:00.000+00:00",
      "valueCodeableConcept": {
        "coding": [ {
          "system": "http://snomed.info/sct",
          "code": "260988000",
          "display": "Below threshold level (qualifier value)",
          "userSelected": true
        } ]
      }
    }
  }, {
    "fullUrl": "https://madie.cms.gov/Observation/7c2c6eaa-84e6-4136-b929-53104bf02b15",
    "resource": {
      "resourceType": "Observation",
      "id": "7c2c6eaa-84e6-4136-b929-53104bf02b15",
      "meta": {
        "profile": [ "http://hl7.org/fhir/us/qicore/StructureDefinition/qicore-observation-lab" ]
      },
      "status": "final",
      "category": [ {
        "coding": [ {
          "system": "http://terminology.hl7.org/CodeSystem/observation-category",
          "code": "laboratory",
          "display": "Laboratory"
        } ]
      }, {
        "coding": [ {
          "system": "http://terminology.hl7.org/CodeSystem/observation-category",
          "code": "survey"
        } ]
      } ],
      "code": {
        "coding": [ {
          "system": "http://loinc.org",
          "version": "2.73",
          "code": "10351-5",
          "display": "HIV 1 RNA [Units/volume] (viral load) in Serum or Plasma by Probe with amplification",
          "userSelected": true
        } ]
      },
      "subject": {
        "reference": "Patient/1e89cfdc-ec5e-456a-abcf-ab349c9cfbed"
      },
      "effectiveDateTime": "2026-03-18T08:00:00.000+00:00",
      "issued": "2026-03-18T08:00:00.000+00:00",
      "valueQuantity": {
        "value": 199,
        "unit": "{copies}/mL"
      }
    }
  }, {
    "fullUrl": "https://madie.cms.gov/Coverage/c0ac978e-ee9e-4603-a1fa-5a89e132e5aa",
    "resource": {
      "resourceType": "Coverage",
      "id": "c0ac978e-ee9e-4603-a1fa-5a89e132e5aa",
      "meta": {
        "profile": [ "http://hl7.org/fhir/us/qicore/StructureDefinition/qicore-coverage" ]
      },
      "status": "active",
      "subscriberId": "123456",
      "beneficiary": {
        "reference": "Patient/1e89cfdc-ec5e-456a-abcf-ab349c9cfbed"
      },
      "relationship": {
        "coding": [ {
          "system": "http://terminology.hl7.org/CodeSystem/subscriber-relationship",
          "code": "self",
          "display": "Self"
        } ]
      },
      "payor": [ {
        "reference": "Organization/80bc090a-3b22-40b7-b9c9-b809ee5ac200"
      } ]
    }
  }, {
    "fullUrl": "https://madie.cms.gov/Organization/80bc090a-3b22-40b7-b9c9-b809ee5ac200",
    "resource": {
      "resourceType": "Organization",
      "id": "80bc090a-3b22-40b7-b9c9-b809ee5ac200",
      "meta": {
        "profile": [ "http://hl7.org/fhir/us/qicore/StructureDefinition/qicore-organization" ]
      },
      "identifier": [ {
        "use": "temp",
        "system": "urn:oid:2.16.840.1.113883.4.4",
        "value": "21-3259825"
      } ],
      "active": true,
      "type": [ {
        "coding": [ {
          "system": "http://terminology.hl7.org/CodeSystem/organization-type",
          "code": "pay",
          "display": "Payer"
        } ]
      } ],
      "name": "Blue Cross Blue Shield of Texas",
      "telecom": [ {
        "system": "phone",
        "value": "(+1) 972-766-6900"
      } ],
      "address": [ {
        "use": "billing",
        "type": "postal",
        "line": [ "P.O. Box 660044" ],
        "city": "Dallas",
        "state": "TX",
        "postalCode": "75266-0044",
        "country": "USA"
      } ]
    }
  }, {
    "fullUrl": "https://madie.cms.gov/Practitioner/de6fa126-2b7b-4e36-83a0-a0c0c5a4329a",
    "resource": {
      "resourceType": "Practitioner",
      "id": "de6fa126-2b7b-4e36-83a0-a0c0c5a4329a",
      "meta": {
        "profile": [ "http://hl7.org/fhir/us/qicore/StructureDefinition/qicore-practitioner" ]
      },
      "identifier": [ {
        "system": "http://hl7.org/fhir/sid/us-npi",
        "value": "1689411712"
      } ],
      "name": [ {
        "family": "Evil",
        "prefix": [ "Dr" ]
      } ]
    }
  }, {
    "fullUrl": "https://madie.cms.gov/MeasureReport/2f891b6f-2668-4638-85f9-0bfceab2041d",
    "resource": {
      "resourceType": "MeasureReport",
      "id": "2f891b6f-2668-4638-85f9-0bfceab2041d",
      "meta": {
        "profile": [ "http://hl7.org/fhir/us/cqfmeasures/StructureDefinition/test-case-cqfm" ]
      },
      "contained": [ {
        "resourceType": "Parameters",
        "id": "522a8857-15b2-403b-bc9c-d59b1dcd2749-parameters",
        "parameter": [ {
          "name": "subject",
          "valueString": "1e89cfdc-ec5e-456a-abcf-ab349c9cfbed"
        } ]
      } ],
      "extension": [ {
        "url": "http://hl7.org/fhir/StructureDefinition/cqf-inputParameters",
        "valueReference": {
          "reference": "#522a8857-15b2-403b-bc9c-d59b1dcd2749-parameters"
        }
      }, {
        "url": "http://hl7.org/fhir/us/cqfmeasures/StructureDefinition/cqfm-testCaseDescription",
        "valueMarkdown": "Patient with a diagnosis of HIV in years prior to the MP and a qualifying encounter during the MP with two viral load tests - one before the MP and one during the MP"
      } ],
      "modifierExtension": [ {
        "url": "http://hl7.org/fhir/us/cqfmeasures/StructureDefinition/cqfm-isTestCase",
        "valueBoolean": true
      } ],
      "status": "complete",
      "type": "individual",
      "measure": "https://madie.cms.gov/Measure/CMS314FHIRHIVViralSuppression",
      "period": {
        "start": "2026-01-01",
        "end": "2026-12-31"
      },
      "group": [ {
        "id": "Group_1",
        "population": [ {
          "id": "InitialPopulation_1",
          "code": {
            "coding": [ {
              "system": "http://terminology.hl7.org/CodeSystem/measure-population",
              "code": "initial-population",
              "display": "Initial Population"
            } ]
          },
          "count": 1
        }, {
          "id": "Denominator_1",
          "code": {
            "coding": [ {
              "system": "http://terminology.hl7.org/CodeSystem/measure-population",
              "code": "denominator",
              "display": "Denominator"
            } ]
          },
          "count": 1
        }, {
          "id": "Numerator_1",
          "code": {
            "coding": [ {
              "system": "http://terminology.hl7.org/CodeSystem/measure-population",
              "code": "numerator",
              "display": "Numerator"
            } ]
          },
          "count": 1
        } ],
        "measureScore": {
          "value": 1.0
        }
      } ],
      "evaluatedResource": [ {
        "reference": "Patient/1e89cfdc-ec5e-456a-abcf-ab349c9cfbed"
      }, {
        "reference": "Condition/afd0a85a-7f29-403a-885e-24e3262b4c2a"
      }, {
        "reference": "Encounter/75bd0299-3d39-4d89-87b1-6752bbb2887f"
      }, {
        "reference": "Observation/95dfaea2-1303-4368-8045-98753de93914"
      }, {
        "reference": "Observation/7c2c6eaa-84e6-4136-b929-53104bf02b15"
      }, {
        "reference": "Coverage/c0ac978e-ee9e-4603-a1fa-5a89e132e5aa"
      }, {
        "reference": "Organization/80bc090a-3b22-40b7-b9c9-b809ee5ac200"
      }, {
        "reference": "Practitioner/de6fa126-2b7b-4e36-83a0-a0c0c5a4329a"
      } ]
    }
  } ]
}