{
  "resourceType": "Bundle",
  "id": "612e6e7b02c62a011f2ee895",
  "type": "transaction",
  "entry": [ {
    "fullUrl": "https://madie.cms.gov/Patient/f8f09c1f-37fc-4088-a39d-710971b626b7",
    "resource": {
      "resourceType": "Patient",
      "id": "f8f09c1f-37fc-4088-a39d-710971b626b7",
      "meta": {
        "profile": [ "http://hl7.org/fhir/us/qicore/StructureDefinition/qicore-patient" ]
      },
      "text": {
        "status": "generated",
        "div": "<div xmlns=\"http://www.w3.org/1999/xhtml\"><div class=\"hapiHeaderText\">CMOPerf1minB4EDEDGT1hBFAdm<b>DENEXPASS </b></div><table class=\"hapiPropertyTable\"><tbody><tr><td>Identifier</td><td>a87f61f9ee97e4d61378f0c75a641367aa32c8b61235755a5325165362b79a51</td></tr><tr><td>Date of birth</td><td><span>03 March 1974</span></td></tr></tbody></table></div>"
      },
      "extension": [ {
        "url": "http://hl7.org/fhir/us/core/StructureDefinition/us-core-race",
        "extension": [ {
          "url": "ombCategory",
          "valueCoding": {
            "system": "urn:oid:2.16.840.1.113883.6.238",
            "code": "1002-5",
            "display": "American Indian or Alaska Native",
            "userSelected": true
          }
        }, {
          "url": "text",
          "valueString": "American Indian or Alaska Native"
        } ]
      }, {
        "url": "http://hl7.org/fhir/us/core/StructureDefinition/us-core-ethnicity",
        "extension": [ {
          "url": "ombCategory",
          "valueCoding": {
            "system": "urn:oid:2.16.840.1.113883.6.238",
            "code": "2135-2",
            "display": "Hispanic or Latino",
            "userSelected": true
          }
        }, {
          "url": "text",
          "valueString": "Hispanic or Latino"
        } ]
      } ],
      "identifier": [ {
        "type": {
          "coding": [ {
            "system": "http://terminology.hl7.org/CodeSystem/v2-0203",
            "code": "MR"
          } ]
        },
        "system": "https://bonnie-fhir.healthit.gov/",
        "value": "612e6e7b02c62a011f2ee895"
      } ],
      "active": true,
      "name": [ {
        "use": "usual",
        "family": "DENEXPass",
        "given": [ "CMOPerf1minB4EDEDGT1hBFAdm" ]
      } ],
      "gender": "female",
      "birthDate": "1975-03-03"
    },
    "request": {
      "method": "PUT",
      "url": "Patient/f8f09c1f-37fc-4088-a39d-710971b626b7"
    }
  }, {
    "fullUrl": "https://madie.cms.gov/Encounter/f3fd7959-908b-4a55-a3d2-54b4c9e79c4c",
    "resource": {
      "resourceType": "Encounter",
      "id": "f3fd7959-908b-4a55-a3d2-54b4c9e79c4c",
      "meta": {
        "profile": [ "http://hl7.org/fhir/us/qicore/StructureDefinition/qicore-encounter" ]
      },
      "status": "finished",
      "class": {
        "system": "http://terminology.hl7.org/CodeSystem/v3-ActCode",
        "code": "EMER",
        "display": "emergency"
      },
      "type": [ {
        "coding": [ {
          "system": "http://snomed.info/sct",
          "code": "4525004"
        } ]
      } ],
      "subject": {
        "reference": "Patient/f8f09c1f-37fc-4088-a39d-710971b626b7"
      },
      "period": {
        "start": "2026-12-04T06:00:00.000+00:00",
        "end": "2026-12-04T06:30:00.000+00:00"
      },
      "length": {
        "value": 0.0,
        "unit": "days"
      }
    },
    "request": {
      "method": "PUT",
      "url": "Encounter/f3fd7959-908b-4a55-a3d2-54b4c9e79c4c"
    }
  }, {
    "fullUrl": "https://madie.cms.gov/Encounter/0173a74c-eb73-4586-9559-ee82fcb54dbb",
    "resource": {
      "resourceType": "Encounter",
      "id": "0173a74c-eb73-4586-9559-ee82fcb54dbb",
      "meta": {
        "profile": [ "http://hl7.org/fhir/us/qicore/StructureDefinition/qicore-encounter" ]
      },
      "status": "finished",
      "class": {
        "system": "http://terminology.hl7.org/CodeSystem/v3-ActCode",
        "code": "IMP",
        "display": "inpatient encounter"
      },
      "type": [ {
        "coding": [ {
          "system": "http://snomed.info/sct",
          "code": "8715000"
        } ]
      } ],
      "subject": {
        "reference": "Patient/f8f09c1f-37fc-4088-a39d-710971b626b7"
      },
      "period": {
        "start": "2026-12-04T08:00:00.000+00:00",
        "end": "2026-12-30T08:15:00.000+00:00"
      },
      "length": {
        "value": 26.0,
        "unit": "days"
      },
      "location": [ {
        "location": {
          "reference": "Location/be279dfd-7f27-4e88-b97f-b86101fdd4a6"
        },
        "period": {
          "start": "2026-12-26T08:00:00.000+00:00",
          "end": "2026-12-28T08:15:00.000+00:00"
        }
      } ]
    },
    "request": {
      "method": "PUT",
      "url": "Encounter/0173a74c-eb73-4586-9559-ee82fcb54dbb"
    }
  }, {
    "fullUrl": "https://madie.cms.gov/Procedure/edba26c4-e2be-45e1-b188-20b29629b68d",
    "resource": {
      "resourceType": "Procedure",
      "id": "edba26c4-e2be-45e1-b188-20b29629b68d",
      "meta": {
        "profile": [ "http://hl7.org/fhir/us/qicore/StructureDefinition/qicore-procedure" ]
      },
      "extension": [ {
        "url": "http://hl7.org/fhir/us/qicore/StructureDefinition/qicore-recorded",
        "valueDateTime": "2013-12-04T13:35:00.000+00:00"
      } ],
      "status": "completed",
      "code": {
        "coding": [ {
          "system": "http://snomed.info/sct",
          "code": "133918004"
        } ]
      },
      "subject": {
        "reference": "Patient/f8f09c1f-37fc-4088-a39d-710971b626b7"
      },
      "performedPeriod": {
        "start": "2026-12-04T05:59:00.000+00:00"
      }
    },
    "request": {
      "method": "PUT",
      "url": "Procedure/edba26c4-e2be-45e1-b188-20b29629b68d"
    }
  }, {
    "fullUrl": "https://madie.cms.gov/Coverage/486afc90-5dd0-4f6e-a313-f7b47f2da1be",
    "resource": {
      "resourceType": "Coverage",
      "id": "486afc90-5dd0-4f6e-a313-f7b47f2da1be",
      "status": "active",
      "beneficiary": {
        "reference": "Patient/f8f09c1f-37fc-4088-a39d-710971b626b7"
      },
      "period": {
        "start": "1975-03-03T08:00:00.000+00:00"
      },
      "payor": [ {
        "reference": "Organization/43aac287-633d-450d-b7e5-bc5bb738e13e"
      } ]
    },
    "request": {
      "method": "PUT",
      "url": "Coverage/486afc90-5dd0-4f6e-a313-f7b47f2da1be"
    }
  }, {
    "fullUrl": "https://madie.cms.gov/Location/be279dfd-7f27-4e88-b97f-b86101fdd4a6",
    "resource": {
      "resourceType": "Location",
      "id": "be279dfd-7f27-4e88-b97f-b86101fdd4a6",
      "meta": {
        "profile": [ "http://hl7.org/fhir/us/qicore/StructureDefinition/qicore-location" ]
      },
      "identifier": [ {
        "use": "usual",
        "system": "http://exampleoflocation.com",
        "value": "B1-S.F2"
      } ],
      "name": "Medical Surgical East, first floor",
      "type": [ {
        "coding": [ {
          "system": "https://www.cdc.gov/nhsn/cdaportal/terminology/codesystem/hsloc.html",
          "code": "1025-6",
          "display": "Trauma Critical Care",
          "userSelected": true
        } ]
      } ]
    },
    "request": {
      "method": "PUT",
      "url": "Location/be279dfd-7f27-4e88-b97f-b86101fdd4a6"
    }
  }, {
    "fullUrl": "https://madie.cms.gov/Organization/43aac287-633d-450d-b7e5-bc5bb738e13e",
    "resource": {
      "resourceType": "Organization",
      "id": "43aac287-633d-450d-b7e5-bc5bb738e13e",
      "meta": {
        "profile": [ "http://hl7.org/fhir/us/qicore/StructureDefinition/qicore-organization" ]
      },
      "identifier": [ {
        "use": "temp",
        "system": "urn:oid:2.16.840.1.113883.4.4",
        "value": "21-3259825"
      } ],
      "active": true,
      "type": [ {
        "coding": [ {
          "system": "http://terminology.hl7.org/CodeSystem/organization-type",
          "code": "pay",
          "display": "Payer"
        } ]
      } ],
      "name": "Blue Cross Blue Shield of Texas",
      "telecom": [ {
        "system": "phone",
        "value": "(+1) 972-766-6900"
      } ],
      "address": [ {
        "use": "billing",
        "type": "postal",
        "line": [ "P.O. Box 660044" ],
        "city": "Dallas",
        "state": "TX",
        "postalCode": "75266-0044",
        "country": "USA"
      } ]
    },
    "request": {
      "method": "PUT",
      "url": "Organization/43aac287-633d-450d-b7e5-bc5bb738e13e"
    }
  }, {
    "fullUrl": "https://madie.cms.gov/Practitioner/9332d2b5-a083-4bab-aa34-a075c030fb61",
    "resource": {
      "resourceType": "Practitioner",
      "id": "9332d2b5-a083-4bab-aa34-a075c030fb61",
      "identifier": [ {
        "system": "http://hl7.org/fhir/sid/us-npi",
        "value": "123456"
      } ],
      "name": [ {
        "family": "Evil",
        "prefix": [ "Dr" ]
      } ]
    },
    "request": {
      "method": "PUT",
      "url": "Practitioner/9332d2b5-a083-4bab-aa34-a075c030fb61"
    }
  }, {
    "fullUrl": "https://madie.cms.gov/MeasureReport/89eb7901-d3ff-4fa6-97c3-1d8176477e29",
    "resource": {
      "resourceType": "MeasureReport",
      "id": "89eb7901-d3ff-4fa6-97c3-1d8176477e29",
      "meta": {
        "profile": [ "http://hl7.org/fhir/us/cqfmeasures/StructureDefinition/test-case-cqfm" ]
      },
      "contained": [ {
        "resourceType": "Parameters",
        "id": "3949e91e-eb95-4c3d-b9cd-ceeb3248b945-parameters",
        "parameter": [ {
          "name": "subject",
          "valueString": "f8f09c1f-37fc-4088-a39d-710971b626b7"
        } ]
      } ],
      "extension": [ {
        "url": "http://hl7.org/fhir/StructureDefinition/cqf-inputParameters",
        "valueReference": {
          "reference": "#3949e91e-eb95-4c3d-b9cd-ceeb3248b945-parameters"
        }
      }, {
        "url": "http://hl7.org/fhir/us/cqfmeasures/StructureDefinition/cqfm-testCaseDescription",
        "valueMarkdown": "meets IPP and Denominator, inpatient visit starts >1 hour after the end of ED visit(Global Hosp without Ed) AND Comfort Measures are performed 1 min before Ed. This case pass DenExcl because CM is on the same day as Adm even ED > 1 hr before Adm\n"
      } ],
      "modifierExtension": [ {
        "url": "http://hl7.org/fhir/us/cqfmeasures/StructureDefinition/cqfm-isTestCase",
        "valueBoolean": true
      } ],
      "status": "complete",
      "type": "individual",
      "measure": "https://madie.cms.gov/Measure/CMS190FHIRVTEProphylaxisICU",
      "period": {
        "start": "2026-01-01",
        "end": "2026-12-31"
      },
      "group": [ {
        "id": "Group_1",
        "population": [ {
          "id": "InitialPopulation_1",
          "code": {
            "coding": [ {
              "system": "http://terminology.hl7.org/CodeSystem/measure-population",
              "code": "initial-population",
              "display": "Initial Population"
            } ]
          },
          "count": 1
        }, {
          "id": "Denominator_1",
          "code": {
            "coding": [ {
              "system": "http://terminology.hl7.org/CodeSystem/measure-population",
              "code": "denominator",
              "display": "Denominator"
            } ]
          },
          "count": 1
        }, {
          "id": "DenominatorExclusion_1",
          "code": {
            "coding": [ {
              "system": "http://terminology.hl7.org/CodeSystem/measure-population",
              "code": "denominator-exclusion",
              "display": "Denominator Exclusion"
            } ]
          },
          "count": 1
        }, {
          "id": "Numerator_1",
          "code": {
            "coding": [ {
              "system": "http://terminology.hl7.org/CodeSystem/measure-population",
              "code": "numerator",
              "display": "Numerator"
            } ]
          },
          "count": 0
        }, {
          "id": "DenominatorException_1",
          "code": {
            "coding": [ {
              "system": "http://terminology.hl7.org/CodeSystem/measure-population",
              "code": "denominator-exception",
              "display": "Denominator Exception"
            } ]
          },
          "count": 0
        } ],
        "measureScore": {
          "value": 0.0
        }
      } ],
      "evaluatedResource": [ {
        "reference": "Patient/f8f09c1f-37fc-4088-a39d-710971b626b7"
      }, {
        "reference": "Encounter/f3fd7959-908b-4a55-a3d2-54b4c9e79c4c"
      }, {
        "reference": "Encounter/0173a74c-eb73-4586-9559-ee82fcb54dbb"
      }, {
        "reference": "Procedure/edba26c4-e2be-45e1-b188-20b29629b68d"
      }, {
        "reference": "Coverage/486afc90-5dd0-4f6e-a313-f7b47f2da1be"
      }, {
        "reference": "Location/be279dfd-7f27-4e88-b97f-b86101fdd4a6"
      }, {
        "reference": "Organization/43aac287-633d-450d-b7e5-bc5bb738e13e"
      }, {
        "reference": "Practitioner/9332d2b5-a083-4bab-aa34-a075c030fb61"
      } ]
    },
    "request": {
      "method": "PUT",
      "url": "MeasureReport/89eb7901-d3ff-4fa6-97c3-1d8176477e29"
    }
  } ]
}