{
  "resourceType": "Bundle",
  "id": "62fd4b6a0968f8012246b316",
  "type": "collection",
  "entry": [ {
    "fullUrl": "https://madie.cms.gov/Patient/3041ca48-5558-4fa4-829f-c3d6129bdd54",
    "resource": {
      "resourceType": "Patient",
      "id": "3041ca48-5558-4fa4-829f-c3d6129bdd54",
      "meta": {
        "profile": [ "http://hl7.org/fhir/us/qicore/StructureDefinition/qicore-patient" ]
      },
      "extension": [ {
        "url": "http://hl7.org/fhir/us/core/StructureDefinition/us-core-race",
        "extension": [ {
          "url": "ombCategory",
          "valueCoding": {
            "system": "urn:oid:2.16.840.1.113883.6.238",
            "code": "1002-5",
            "display": "American Indian or Alaska Native",
            "userSelected": true
          }
        }, {
          "url": "text",
          "valueString": "American Indian or Alaska Native"
        } ]
      }, {
        "url": "http://hl7.org/fhir/us/core/StructureDefinition/us-core-ethnicity",
        "extension": [ {
          "url": "ombCategory",
          "valueCoding": {
            "system": "urn:oid:2.16.840.1.113883.6.238",
            "code": "2135-2",
            "display": "Hispanic or Latino",
            "userSelected": true
          }
        }, {
          "url": "text",
          "valueString": "Hispanic or Latino"
        } ]
      } ],
      "identifier": [ {
        "type": {
          "coding": [ {
            "system": "http://terminology.hl7.org/CodeSystem/v2-0203",
            "code": "MR"
          } ]
        },
        "system": "https://bonnie-fhir.healthit.gov/",
        "value": "62fd4b6a0968f8012246b316"
      } ],
      "name": [ {
        "family": "NUMERPass",
        "given": [ "2Referrals1MinApartBothClosed" ]
      } ],
      "gender": "female",
      "birthDate": "1990-12-31"
    }
  }, {
    "fullUrl": "https://madie.cms.gov/Task/ac4dfd0b-cfa3-4ce4-a9b6-2b1aaff4afae",
    "resource": {
      "resourceType": "Task",
      "id": "ac4dfd0b-cfa3-4ce4-a9b6-2b1aaff4afae",
      "meta": {
        "profile": [ "http://hl7.org/fhir/us/qicore/StructureDefinition/qicore-task" ]
      },
      "identifier": [ {
        "use": "official",
        "system": "http:/goodhealth.org/identifiers",
        "value": "20170201-002"
      } ],
      "basedOn": [ {
        "reference": "ServiceRequest/240f2c5f-f987-4286-92f7-1cd89a94eb2f"
      } ],
      "status": "completed",
      "intent": "order",
      "priority": "routine",
      "code": {
        "coding": [ {
          "system": "http://hl7.org/fhir/CodeSystem/task-code",
          "code": "fulfill",
          "display": "Fulfill the focal request",
          "userSelected": true
        } ]
      },
      "for": {
        "reference": "Patient/3041ca48-5558-4fa4-829f-c3d6129bdd54"
      },
      "executionPeriod": {
        "start": "2026-07-06T08:00:00Z",
        "end": "2026-07-06T08:10:00Z"
      },
      "reasonCode": {
        "coding": [ {
          "system": "http://loinc.org",
          "version": "2.72",
          "code": "11488-4",
          "display": "Consult note",
          "userSelected": true
        } ]
      }
    }
  }, {
    "fullUrl": "https://madie.cms.gov/ServiceRequest/240f2c5f-f987-4286-92f7-1cd89a94eb2f",
    "resource": {
      "resourceType": "ServiceRequest",
      "id": "240f2c5f-f987-4286-92f7-1cd89a94eb2f",
      "meta": {
        "profile": [ "http://hl7.org/fhir/us/qicore/StructureDefinition/qicore-servicerequest" ]
      },
      "status": "active",
      "intent": "order",
      "code": {
        "coding": [ {
          "system": "http://snomed.info/sct",
          "version": "http://snomed.info/sct/731000124108/version/20250301",
          "code": "103696004",
          "display": "Patient referral to specialist (procedure)",
          "userSelected": true
        } ]
      },
      "subject": {
        "reference": "Patient/3041ca48-5558-4fa4-829f-c3d6129bdd54"
      },
      "authoredOn": "2026-06-06T08:00:00Z"
    }
  }, {
    "fullUrl": "https://madie.cms.gov/Task/3bf1a06b-1b41-433e-97a4-f439b9fcee88",
    "resource": {
      "resourceType": "Task",
      "id": "3bf1a06b-1b41-433e-97a4-f439b9fcee88",
      "meta": {
        "profile": [ "http://hl7.org/fhir/us/qicore/StructureDefinition/qicore-task" ]
      },
      "identifier": [ {
        "use": "official",
        "system": "http:/goodhealth.org/identifiers",
        "value": "20170201-002"
      } ],
      "basedOn": [ {
        "reference": "ServiceRequest/7e6b8ad7-e649-4455-a9ed-7658a73dfe5c"
      } ],
      "status": "completed",
      "intent": "order",
      "priority": "routine",
      "code": {
        "coding": [ {
          "system": "http://hl7.org/fhir/CodeSystem/task-code",
          "code": "fulfill",
          "display": "Fulfill the focal request",
          "userSelected": true
        } ]
      },
      "for": {
        "reference": "Patient/3041ca48-5558-4fa4-829f-c3d6129bdd54"
      },
      "executionPeriod": {
        "start": "2026-07-06T08:01:00Z",
        "end": "2026-07-06T08:15:00Z"
      },
      "reasonCode": {
        "coding": [ {
          "system": "http://loinc.org",
          "version": "2.72",
          "code": "11488-4",
          "display": "Consult note",
          "userSelected": true
        } ]
      }
    }
  }, {
    "fullUrl": "https://madie.cms.gov/ServiceRequest/7e6b8ad7-e649-4455-a9ed-7658a73dfe5c",
    "resource": {
      "resourceType": "ServiceRequest",
      "id": "7e6b8ad7-e649-4455-a9ed-7658a73dfe5c",
      "meta": {
        "profile": [ "http://hl7.org/fhir/us/qicore/StructureDefinition/qicore-servicerequest" ]
      },
      "status": "active",
      "intent": "order",
      "code": {
        "coding": [ {
          "system": "http://snomed.info/sct",
          "version": "http://snomed.info/sct/731000124108/version/20250301",
          "code": "103696004",
          "display": "Patient referral to specialist (procedure)",
          "userSelected": true
        } ]
      },
      "subject": {
        "reference": "Patient/3041ca48-5558-4fa4-829f-c3d6129bdd54"
      },
      "authoredOn": "2026-06-06T08:01:00Z"
    }
  }, {
    "fullUrl": "https://madie.cms.gov/Encounter/d26563fb-f0b2-4337-9d14-5d9c5346b801",
    "resource": {
      "resourceType": "Encounter",
      "id": "d26563fb-f0b2-4337-9d14-5d9c5346b801",
      "meta": {
        "profile": [ "http://hl7.org/fhir/us/qicore/StructureDefinition/qicore-encounter" ]
      },
      "status": "finished",
      "class": {
        "system": "http://terminology.hl7.org/CodeSystem/v3-ActCode",
        "code": "AMB",
        "display": "ambulatory"
      },
      "type": [ {
        "coding": [ {
          "system": "http://snomed.info/sct",
          "version": "2022-03",
          "code": "359960003",
          "display": "Ophthalmologic examination and evaluation under general anesthesia, limited (procedure)",
          "userSelected": true
        } ]
      } ],
      "subject": {
        "reference": "Patient/3041ca48-5558-4fa4-829f-c3d6129bdd54"
      },
      "period": {
        "start": "2026-05-27T08:00:00Z",
        "end": "2026-05-27T09:15:00Z"
      }
    }
  }, {
    "fullUrl": "https://madie.cms.gov/Coverage/79b99f20-ead3-476b-b325-0d2e0cdfd128",
    "resource": {
      "resourceType": "Coverage",
      "id": "79b99f20-ead3-476b-b325-0d2e0cdfd128",
      "meta": {
        "profile": [ "http://hl7.org/fhir/us/qicore/StructureDefinition/qicore-coverage" ]
      },
      "status": "active",
      "subscriberId": "123456",
      "beneficiary": {
        "reference": "Patient/3041ca48-5558-4fa4-829f-c3d6129bdd54"
      },
      "relationship": {
        "coding": [ {
          "system": "http://terminology.hl7.org/CodeSystem/subscriber-relationship",
          "code": "self",
          "display": "Self"
        } ]
      },
      "payor": [ {
        "reference": "Organization/d074b6a3-e8c0-40cf-a7d9-990fcbd33142"
      } ]
    }
  }, {
    "fullUrl": "https://madie.cms.gov/Organization/d074b6a3-e8c0-40cf-a7d9-990fcbd33142",
    "resource": {
      "resourceType": "Organization",
      "id": "d074b6a3-e8c0-40cf-a7d9-990fcbd33142",
      "meta": {
        "profile": [ "http://hl7.org/fhir/us/qicore/StructureDefinition/qicore-organization" ]
      },
      "identifier": [ {
        "use": "temp",
        "system": "urn:oid:2.16.840.1.113883.4.4",
        "value": "21-3259825"
      } ],
      "active": true,
      "type": [ {
        "coding": [ {
          "system": "http://terminology.hl7.org/CodeSystem/organization-type",
          "code": "pay",
          "display": "Payer"
        } ]
      } ],
      "name": "Blue Cross Blue Shield of Texas",
      "telecom": [ {
        "system": "phone",
        "value": "(+1) 972-766-6900"
      } ],
      "address": [ {
        "use": "billing",
        "type": "postal",
        "line": [ "P.O. Box 660044" ],
        "city": "Dallas",
        "state": "TX",
        "postalCode": "75266-0044",
        "country": "USA"
      } ]
    }
  }, {
    "fullUrl": "https://madie.cms.gov/Practitioner/63aa56ce-4dc8-4637-9b2d-bfc04074cb8a",
    "resource": {
      "resourceType": "Practitioner",
      "id": "63aa56ce-4dc8-4637-9b2d-bfc04074cb8a",
      "meta": {
        "profile": [ "http://hl7.org/fhir/us/qicore/StructureDefinition/qicore-practitioner" ]
      },
      "identifier": [ {
        "system": "http://hl7.org/fhir/sid/us-npi",
        "value": "1689411712"
      } ],
      "name": [ {
        "family": "Evil",
        "prefix": [ "Dr" ]
      } ]
    }
  }, {
    "fullUrl": "https://madie.cms.gov/MeasureReport/397aba02-8c28-4c6b-9fe3-e43f21845f93",
    "resource": {
      "resourceType": "MeasureReport",
      "id": "397aba02-8c28-4c6b-9fe3-e43f21845f93",
      "meta": {
        "profile": [ "http://hl7.org/fhir/us/cqfmeasures/StructureDefinition/test-case-cqfm" ]
      },
      "contained": [ {
        "resourceType": "Parameters",
        "id": "bd3dd036-1b22-4c3e-8657-5be26bab8747-parameters",
        "parameter": [ {
          "name": "subject",
          "valueString": "3041ca48-5558-4fa4-829f-c3d6129bdd54"
        } ]
      } ],
      "extension": [ {
        "url": "http://hl7.org/fhir/StructureDefinition/cqf-inputParameters",
        "valueReference": {
          "reference": "#bd3dd036-1b22-4c3e-8657-5be26bab8747-parameters"
        }
      }, {
        "url": "http://hl7.org/fhir/us/cqfmeasures/StructureDefinition/cqfm-testCaseDescription",
        "valueMarkdown": "2 referrals on same day 1 minute apart both referrals  receiving a consultant report.  "
      } ],
      "modifierExtension": [ {
        "url": "http://hl7.org/fhir/us/cqfmeasures/StructureDefinition/cqfm-isTestCase",
        "valueBoolean": true
      } ],
      "status": "complete",
      "type": "individual",
      "measure": "https://madie.cms.gov/Measure/CMS50FHIRReceiptofSpecialistReport",
      "period": {
        "start": "2026-01-01",
        "end": "2026-12-31"
      },
      "group": [ {
        "id": "Group_1",
        "population": [ {
          "id": "InitialPopulation_1",
          "code": {
            "coding": [ {
              "system": "http://terminology.hl7.org/CodeSystem/measure-population",
              "code": "initial-population",
              "display": "Initial Population"
            } ]
          },
          "count": 1
        }, {
          "id": "Denominator_1",
          "code": {
            "coding": [ {
              "system": "http://terminology.hl7.org/CodeSystem/measure-population",
              "code": "denominator",
              "display": "Denominator"
            } ]
          },
          "count": 1
        }, {
          "id": "Numerator_1",
          "code": {
            "coding": [ {
              "system": "http://terminology.hl7.org/CodeSystem/measure-population",
              "code": "numerator",
              "display": "Numerator"
            } ]
          },
          "count": 1
        } ],
        "measureScore": {
          "value": 1.0
        }
      } ],
      "evaluatedResource": [ {
        "reference": "Patient/3041ca48-5558-4fa4-829f-c3d6129bdd54"
      }, {
        "reference": "Task/ac4dfd0b-cfa3-4ce4-a9b6-2b1aaff4afae"
      }, {
        "reference": "ServiceRequest/240f2c5f-f987-4286-92f7-1cd89a94eb2f"
      }, {
        "reference": "Task/3bf1a06b-1b41-433e-97a4-f439b9fcee88"
      }, {
        "reference": "ServiceRequest/7e6b8ad7-e649-4455-a9ed-7658a73dfe5c"
      }, {
        "reference": "Encounter/d26563fb-f0b2-4337-9d14-5d9c5346b801"
      }, {
        "reference": "Coverage/79b99f20-ead3-476b-b325-0d2e0cdfd128"
      }, {
        "reference": "Organization/d074b6a3-e8c0-40cf-a7d9-990fcbd33142"
      }, {
        "reference": "Practitioner/63aa56ce-4dc8-4637-9b2d-bfc04074cb8a"
      } ]
    }
  } ]
}