{
  "resourceType": "Bundle",
  "id": "NUMFail-InitHOOS90DaysB4THAFUHOOS426DaysAfterTHA",
  "type": "collection",
  "entry": [ {
    "fullUrl": "https://madie.cms.gov/Patient/05236d2f-aa55-4478-b2b0-815b513d3655",
    "resource": {
      "resourceType": "Patient",
      "id": "05236d2f-aa55-4478-b2b0-815b513d3655",
      "meta": {
        "profile": [ "http://hl7.org/fhir/us/qicore/StructureDefinition/qicore-patient" ]
      },
      "extension": [ {
        "url": "http://hl7.org/fhir/us/core/StructureDefinition/us-core-race",
        "extension": [ {
          "url": "ombCategory",
          "valueCoding": {
            "system": "urn:oid:2.16.840.1.113883.6.238",
            "code": "2028-9",
            "display": "Asian"
          }
        }, {
          "url": "text",
          "valueString": "Asian"
        } ]
      }, {
        "url": "http://hl7.org/fhir/us/core/StructureDefinition/us-core-ethnicity",
        "extension": [ {
          "url": "ombCategory",
          "valueCoding": {
            "system": "urn:oid:2.16.840.1.113883.6.238",
            "code": "2135-2",
            "display": "Hispanic or Latino"
          }
        }, {
          "url": "text",
          "valueString": "Hispanic or Latino"
        } ]
      } ],
      "identifier": [ {
        "system": "http://hospital.smarthealthit.org",
        "value": "999999995"
      } ],
      "name": [ {
        "family": "Bertha",
        "given": [ "Betty" ]
      } ],
      "gender": "female",
      "birthDate": "2007-01-01"
    }
  }, {
    "fullUrl": "https://madie.cms.gov/Procedure/75e3d20d-ce69-4643-bd56-e775360e3a69",
    "resource": {
      "resourceType": "Procedure",
      "id": "75e3d20d-ce69-4643-bd56-e775360e3a69",
      "meta": {
        "profile": [ "http://hl7.org/fhir/us/qicore/StructureDefinition/qicore-procedure" ]
      },
      "extension": [ {
        "url": "http://hl7.org/fhir/us/qicore/StructureDefinition/qicore-recorded",
        "valueDateTime": "2024-11-01T00:00:00.000+00:00"
      } ],
      "status": "completed",
      "code": {
        "coding": [ {
          "system": "http://www.cms.gov/Medicare/Coding/ICD10",
          "code": "0SR9019",
          "display": "Replacement of Right Hip Joint with Metal Synthetic Substitute, Cemented, Open Approach"
        } ]
      },
      "subject": {
        "reference": "Patient/05236d2f-aa55-4478-b2b0-815b513d3655"
      },
      "performedPeriod": {
        "start": "2024-11-01T00:00:00.000+00:00",
        "end": "2024-11-01T01:00:00.000+00:00"
      }
    }
  }, {
    "fullUrl": "https://madie.cms.gov/Encounter/c0eeb709-3047-43ce-ad40-e255ca146b70",
    "resource": {
      "resourceType": "Encounter",
      "id": "c0eeb709-3047-43ce-ad40-e255ca146b70",
      "meta": {
        "profile": [ "http://hl7.org/fhir/us/qicore/StructureDefinition/qicore-encounter" ]
      },
      "status": "finished",
      "class": {
        "system": "http://terminology.hl7.org/CodeSystem/v3-ActCode",
        "code": "AMB",
        "display": "ambulatory"
      },
      "type": [ {
        "coding": [ {
          "system": "http://snomed.info/sct",
          "version": "http://snomed.info/sct/731000124108/version/20250301",
          "code": "281036007",
          "display": "Follow-up consultation (procedure)"
        } ]
      } ],
      "subject": {
        "reference": "Patient/05236d2f-aa55-4478-b2b0-815b513d3655"
      },
      "period": {
        "start": "2025-11-01T00:00:00.000+00:00",
        "end": "2025-11-01T01:15:00.000+00:00"
      }
    }
  }, {
    "fullUrl": "https://madie.cms.gov/Observation/83eeb421-4e3b-4891-b296-9fed02c9fd46",
    "resource": {
      "resourceType": "Observation",
      "id": "83eeb421-4e3b-4891-b296-9fed02c9fd46",
      "meta": {
        "profile": [ "http://hl7.org/fhir/us/qicore/StructureDefinition/qicore-observation-screening-assessment" ]
      },
      "status": "final",
      "category": [ {
        "coding": [ {
          "system": "http://terminology.hl7.org/CodeSystem/observation-category",
          "code": "survey"
        } ]
      } ],
      "code": {
        "coding": [ {
          "system": "http://loinc.org",
          "code": "72093-8",
          "display": "Quality of life score [HOOS]"
        } ]
      },
      "subject": {
        "reference": "Patient/05236d2f-aa55-4478-b2b0-815b513d3655"
      },
      "effectivePeriod": {
        "start": "2024-08-02T00:00:00.000+00:00",
        "end": "2024-08-02T01:00:00.000+00:00"
      },
      "valueInteger": 60
    }
  }, {
    "fullUrl": "https://madie.cms.gov/Observation/2209df9a-0cb8-4615-92ce-0034a73d8a22",
    "resource": {
      "resourceType": "Observation",
      "id": "2209df9a-0cb8-4615-92ce-0034a73d8a22",
      "meta": {
        "profile": [ "http://hl7.org/fhir/us/qicore/StructureDefinition/qicore-observation-screening-assessment" ]
      },
      "status": "final",
      "category": [ {
        "coding": [ {
          "system": "http://terminology.hl7.org/CodeSystem/observation-category",
          "code": "survey"
        } ]
      } ],
      "code": {
        "coding": [ {
          "system": "http://loinc.org",
          "code": "72094-6",
          "display": "Sport-recreation score [HOOS]"
        } ]
      },
      "subject": {
        "reference": "Patient/05236d2f-aa55-4478-b2b0-815b513d3655"
      },
      "effectivePeriod": {
        "start": "2024-08-02T00:00:00.000+00:00",
        "end": "2024-08-02T01:00:00.000+00:00"
      },
      "valueInteger": 60
    }
  }, {
    "fullUrl": "https://madie.cms.gov/Observation/19050e31-7914-4fae-8c0a-9bc017aa76f5",
    "resource": {
      "resourceType": "Observation",
      "id": "19050e31-7914-4fae-8c0a-9bc017aa76f5",
      "meta": {
        "profile": [ "http://hl7.org/fhir/us/qicore/StructureDefinition/qicore-observation-screening-assessment" ]
      },
      "status": "final",
      "category": [ {
        "coding": [ {
          "system": "http://terminology.hl7.org/CodeSystem/observation-category",
          "code": "survey"
        } ]
      } ],
      "code": {
        "coding": [ {
          "system": "http://loinc.org",
          "code": "72095-3",
          "display": "Activities of daily living score [HOOS]"
        } ]
      },
      "subject": {
        "reference": "Patient/05236d2f-aa55-4478-b2b0-815b513d3655"
      },
      "effectivePeriod": {
        "start": "2024-08-02T00:00:00.000+00:00",
        "end": "2024-08-02T01:00:00.000+00:00"
      },
      "valueInteger": 60
    }
  }, {
    "fullUrl": "https://madie.cms.gov/Observation/83b7909e-99a6-4f7f-b9de-5b25462c43ea",
    "resource": {
      "resourceType": "Observation",
      "id": "83b7909e-99a6-4f7f-b9de-5b25462c43ea",
      "meta": {
        "profile": [ "http://hl7.org/fhir/us/qicore/StructureDefinition/qicore-observation-screening-assessment" ]
      },
      "status": "final",
      "category": [ {
        "coding": [ {
          "system": "http://terminology.hl7.org/CodeSystem/observation-category",
          "code": "survey"
        } ]
      } ],
      "code": {
        "coding": [ {
          "system": "http://loinc.org",
          "code": "72096-1",
          "display": "Symptoms score [HOOS]"
        } ]
      },
      "subject": {
        "reference": "Patient/05236d2f-aa55-4478-b2b0-815b513d3655"
      },
      "effectivePeriod": {
        "start": "2024-08-02T00:00:00.000+00:00",
        "end": "2024-08-02T01:00:00.000+00:00"
      },
      "valueInteger": 60
    }
  }, {
    "fullUrl": "https://madie.cms.gov/Observation/83f79dba-1c5d-49cc-b0ee-e20b3cc76c9f",
    "resource": {
      "resourceType": "Observation",
      "id": "83f79dba-1c5d-49cc-b0ee-e20b3cc76c9f",
      "meta": {
        "profile": [ "http://hl7.org/fhir/us/qicore/StructureDefinition/qicore-observation-screening-assessment" ]
      },
      "status": "final",
      "category": [ {
        "coding": [ {
          "system": "http://terminology.hl7.org/CodeSystem/observation-category",
          "code": "survey"
        } ]
      } ],
      "code": {
        "coding": [ {
          "system": "http://loinc.org",
          "code": "72097-9",
          "display": "Pain score [HOOS]"
        } ]
      },
      "subject": {
        "reference": "Patient/05236d2f-aa55-4478-b2b0-815b513d3655"
      },
      "effectivePeriod": {
        "start": "2024-08-02T00:00:00.000+00:00",
        "end": "2024-08-02T01:00:00.000+00:00"
      },
      "valueInteger": 60
    }
  }, {
    "fullUrl": "https://madie.cms.gov/Observation/515f6cae-6992-4a94-a162-ad74703de08d",
    "resource": {
      "resourceType": "Observation",
      "id": "515f6cae-6992-4a94-a162-ad74703de08d",
      "meta": {
        "profile": [ "http://hl7.org/fhir/us/qicore/StructureDefinition/qicore-observation-screening-assessment" ]
      },
      "status": "final",
      "category": [ {
        "coding": [ {
          "system": "http://terminology.hl7.org/CodeSystem/observation-category",
          "code": "survey"
        } ]
      } ],
      "code": {
        "coding": [ {
          "system": "http://loinc.org",
          "code": "72093-8",
          "display": "Quality of life score [HOOS]"
        } ]
      },
      "subject": {
        "reference": "Patient/05236d2f-aa55-4478-b2b0-815b513d3655"
      },
      "effectivePeriod": {
        "start": "2025-12-31T00:00:00.000+00:00",
        "end": "2025-12-31T01:00:00.000+00:00"
      },
      "valueInteger": 60
    }
  }, {
    "fullUrl": "https://madie.cms.gov/Observation/c4921e90-182d-4f79-abe9-57091ff4579f",
    "resource": {
      "resourceType": "Observation",
      "id": "c4921e90-182d-4f79-abe9-57091ff4579f",
      "meta": {
        "profile": [ "http://hl7.org/fhir/us/qicore/StructureDefinition/qicore-observation-screening-assessment" ]
      },
      "status": "final",
      "category": [ {
        "coding": [ {
          "system": "http://terminology.hl7.org/CodeSystem/observation-category",
          "code": "survey"
        } ]
      } ],
      "code": {
        "coding": [ {
          "system": "http://loinc.org",
          "code": "72094-6",
          "display": "Sport-recreation score [HOOS]"
        } ]
      },
      "subject": {
        "reference": "Patient/05236d2f-aa55-4478-b2b0-815b513d3655"
      },
      "effectivePeriod": {
        "start": "2025-12-31T00:00:00.000+00:00",
        "end": "2025-12-31T01:00:00.000+00:00"
      },
      "valueInteger": 60
    }
  }, {
    "fullUrl": "https://madie.cms.gov/Observation/688758e6-737f-49f6-a90a-461bd6bed757",
    "resource": {
      "resourceType": "Observation",
      "id": "688758e6-737f-49f6-a90a-461bd6bed757",
      "meta": {
        "profile": [ "http://hl7.org/fhir/us/qicore/StructureDefinition/qicore-observation-screening-assessment" ]
      },
      "status": "final",
      "category": [ {
        "coding": [ {
          "system": "http://terminology.hl7.org/CodeSystem/observation-category",
          "code": "survey"
        } ]
      } ],
      "code": {
        "coding": [ {
          "system": "http://loinc.org",
          "code": "72095-3",
          "display": "Activities of daily living score [HOOS]"
        } ]
      },
      "subject": {
        "reference": "Patient/05236d2f-aa55-4478-b2b0-815b513d3655"
      },
      "effectivePeriod": {
        "start": "2025-12-31T00:00:00.000+00:00",
        "end": "2025-12-31T01:00:00.000+00:00"
      },
      "valueInteger": 60
    }
  }, {
    "fullUrl": "https://madie.cms.gov/Observation/a4ca3f23-aa45-4fe7-b866-681d341bd85e",
    "resource": {
      "resourceType": "Observation",
      "id": "a4ca3f23-aa45-4fe7-b866-681d341bd85e",
      "meta": {
        "profile": [ "http://hl7.org/fhir/us/qicore/StructureDefinition/qicore-observation-screening-assessment" ]
      },
      "status": "final",
      "category": [ {
        "coding": [ {
          "system": "http://terminology.hl7.org/CodeSystem/observation-category",
          "code": "survey"
        } ]
      } ],
      "code": {
        "coding": [ {
          "system": "http://loinc.org",
          "code": "72096-1",
          "display": "Symptoms score [HOOS]"
        } ]
      },
      "subject": {
        "reference": "Patient/05236d2f-aa55-4478-b2b0-815b513d3655"
      },
      "effectivePeriod": {
        "start": "2025-12-31T00:00:00.000+00:00",
        "end": "2025-12-31T01:00:00.000+00:00"
      },
      "valueInteger": 60
    }
  }, {
    "fullUrl": "https://madie.cms.gov/Observation/7f456f75-3967-4d75-8435-b3ac2b1c87c7",
    "resource": {
      "resourceType": "Observation",
      "id": "7f456f75-3967-4d75-8435-b3ac2b1c87c7",
      "meta": {
        "profile": [ "http://hl7.org/fhir/us/qicore/StructureDefinition/qicore-observation-screening-assessment" ]
      },
      "status": "final",
      "category": [ {
        "coding": [ {
          "system": "http://terminology.hl7.org/CodeSystem/observation-category",
          "code": "survey"
        } ]
      } ],
      "code": {
        "coding": [ {
          "system": "http://loinc.org",
          "code": "72097-9",
          "display": "Pain score [HOOS]"
        } ]
      },
      "subject": {
        "reference": "Patient/05236d2f-aa55-4478-b2b0-815b513d3655"
      },
      "effectivePeriod": {
        "start": "2025-12-31T00:00:00.000+00:00",
        "end": "2025-12-31T01:00:00.000+00:00"
      },
      "valueInteger": 60
    }
  }, {
    "fullUrl": "https://madie.cms.gov/MeasureReport/efd8d7e6-70bf-49a6-8bd6-30bb52ccd3e1",
    "resource": {
      "resourceType": "MeasureReport",
      "id": "efd8d7e6-70bf-49a6-8bd6-30bb52ccd3e1",
      "meta": {
        "profile": [ "http://hl7.org/fhir/us/cqfmeasures/StructureDefinition/test-case-cqfm" ]
      },
      "contained": [ {
        "resourceType": "Parameters",
        "id": "db12f6fc-4829-43a6-a7d5-11ba412c0691-parameters",
        "parameter": [ {
          "name": "subject",
          "valueString": "05236d2f-aa55-4478-b2b0-815b513d3655"
        } ]
      } ],
      "extension": [ {
        "url": "http://hl7.org/fhir/StructureDefinition/cqf-inputParameters",
        "valueReference": {
          "reference": "#db12f6fc-4829-43a6-a7d5-11ba412c0691-parameters"
        }
      }, {
        "url": "http://hl7.org/fhir/us/cqfmeasures/StructureDefinition/cqfm-testCaseDescription",
        "valueMarkdown": "Patient w/ a THA Procedure 11/1, Initial Hip Assessment 91 days before THA Procedure(8/2), and FollowUp Hip Assessment HOOS 425 days after THA Procedure (12/30)"
      } ],
      "modifierExtension": [ {
        "url": "http://hl7.org/fhir/us/cqfmeasures/StructureDefinition/cqfm-isTestCase",
        "valueBoolean": true
      } ],
      "status": "complete",
      "type": "individual",
      "measure": "https://madie.cms.gov/Measure/CMS56FHIRFuncStatHipReplacement",
      "period": {
        "start": "2026-01-01",
        "end": "2026-12-31"
      },
      "group": [ {
        "id": "Group_1",
        "population": [ {
          "id": "InitialPopulation_1",
          "code": {
            "coding": [ {
              "system": "http://terminology.hl7.org/CodeSystem/measure-population",
              "code": "initial-population",
              "display": "Initial Population"
            } ]
          },
          "count": 1
        }, {
          "id": "Denominator_1",
          "code": {
            "coding": [ {
              "system": "http://terminology.hl7.org/CodeSystem/measure-population",
              "code": "denominator",
              "display": "Denominator"
            } ]
          },
          "count": 1
        }, {
          "id": "DenominatorExclusion_1",
          "code": {
            "coding": [ {
              "system": "http://terminology.hl7.org/CodeSystem/measure-population",
              "code": "denominator-exclusion",
              "display": "Denominator Exclusion"
            } ]
          },
          "count": 0
        }, {
          "id": "Numerator_1",
          "code": {
            "coding": [ {
              "system": "http://terminology.hl7.org/CodeSystem/measure-population",
              "code": "numerator",
              "display": "Numerator"
            } ]
          },
          "count": 0
        } ],
        "measureScore": {
          "value": 1.0
        }
      } ],
      "evaluatedResource": [ {
        "reference": "Patient/05236d2f-aa55-4478-b2b0-815b513d3655"
      }, {
        "reference": "Procedure/75e3d20d-ce69-4643-bd56-e775360e3a69"
      }, {
        "reference": "Encounter/c0eeb709-3047-43ce-ad40-e255ca146b70"
      }, {
        "reference": "Observation/83eeb421-4e3b-4891-b296-9fed02c9fd46"
      }, {
        "reference": "Observation/2209df9a-0cb8-4615-92ce-0034a73d8a22"
      }, {
        "reference": "Observation/19050e31-7914-4fae-8c0a-9bc017aa76f5"
      }, {
        "reference": "Observation/83b7909e-99a6-4f7f-b9de-5b25462c43ea"
      }, {
        "reference": "Observation/83f79dba-1c5d-49cc-b0ee-e20b3cc76c9f"
      }, {
        "reference": "Observation/515f6cae-6992-4a94-a162-ad74703de08d"
      }, {
        "reference": "Observation/c4921e90-182d-4f79-abe9-57091ff4579f"
      }, {
        "reference": "Observation/688758e6-737f-49f6-a90a-461bd6bed757"
      }, {
        "reference": "Observation/a4ca3f23-aa45-4fe7-b866-681d341bd85e"
      }, {
        "reference": "Observation/7f456f75-3967-4d75-8435-b3ac2b1c87c7"
      } ]
    }
  } ]
}