{
  "resourceType": "Bundle",
  "id": "612e6a6302c62a011f2e9eca",
  "type": "transaction",
  "entry": [ {
    "fullUrl": "https://madie.cms.gov/Patient/3c8c427a-d756-456a-8f4e-e909b364e4fb",
    "resource": {
      "resourceType": "Patient",
      "id": "3c8c427a-d756-456a-8f4e-e909b364e4fb",
      "meta": {
        "profile": [ "http://hl7.org/fhir/us/qicore/StructureDefinition/qicore-patient" ]
      },
      "text": {
        "status": "generated",
        "div": "<div xmlns=\"http://www.w3.org/1999/xhtml\"><div class=\"hapiHeaderText\">MA_OralXaOnDayAFAnes_MedAdmDT <b>NUMERPASS </b></div><table class=\"hapiPropertyTable\"><tbody><tr><td>Identifier</td><td>a47c3099d7a3ac0ff12b569e6d2221d4</td></tr><tr><td>Date of birth</td><td><span>02 January 1974</span></td></tr></tbody></table></div>"
      },
      "extension": [ {
        "url": "http://hl7.org/fhir/us/core/StructureDefinition/us-core-race",
        "extension": [ {
          "url": "ombCategory",
          "valueCoding": {
            "system": "urn:oid:2.16.840.1.113883.6.238",
            "code": "1002-5",
            "display": "American Indian or Alaska Native",
            "userSelected": true
          }
        }, {
          "url": "text",
          "valueString": "American Indian or Alaska Native"
        } ]
      }, {
        "url": "http://hl7.org/fhir/us/core/StructureDefinition/us-core-ethnicity",
        "extension": [ {
          "url": "ombCategory",
          "valueCoding": {
            "system": "urn:oid:2.16.840.1.113883.6.238",
            "code": "2135-2",
            "display": "Hispanic or Latino",
            "userSelected": true
          }
        }, {
          "url": "text",
          "valueString": "Hispanic or Latino"
        } ]
      } ],
      "identifier": [ {
        "type": {
          "coding": [ {
            "system": "http://terminology.hl7.org/CodeSystem/v2-0203",
            "code": "MR"
          } ]
        },
        "system": "https://bonnie-fhir.healthit.gov/",
        "value": "612e6a6302c62a011f2e9eca"
      } ],
      "active": true,
      "name": [ {
        "use": "usual",
        "family": "NUMERPass",
        "given": [ "MAOralXaOnDayAFAnesMedAdmDT" ]
      } ],
      "gender": "male",
      "birthDate": "1975-01-02"
    },
    "request": {
      "method": "PUT",
      "url": "Patient/3c8c427a-d756-456a-8f4e-e909b364e4fb"
    }
  }, {
    "fullUrl": "https://madie.cms.gov/Encounter/f99ab4aa-ff8a-4f68-82a8-9998213c5ce8",
    "resource": {
      "resourceType": "Encounter",
      "id": "f99ab4aa-ff8a-4f68-82a8-9998213c5ce8",
      "meta": {
        "profile": [ "http://hl7.org/fhir/us/qicore/StructureDefinition/qicore-encounter" ]
      },
      "status": "finished",
      "class": {
        "system": "http://terminology.hl7.org/CodeSystem/v3-ActCode",
        "code": "IMP",
        "display": "inpatient encounter"
      },
      "type": [ {
        "coding": [ {
          "system": "http://snomed.info/sct",
          "code": "8715000"
        } ]
      } ],
      "subject": {
        "reference": "Patient/3c8c427a-d756-456a-8f4e-e909b364e4fb"
      },
      "period": {
        "start": "2026-11-01T08:00:00.000+00:00",
        "end": "2026-11-26T08:15:00.000+00:00"
      },
      "length": {
        "value": 25,
        "unit": "days"
      }
    },
    "request": {
      "method": "PUT",
      "url": "Encounter/f99ab4aa-ff8a-4f68-82a8-9998213c5ce8"
    }
  }, {
    "fullUrl": "https://madie.cms.gov/Coverage/5d834314-9f07-47d9-b38f-e1506e3f9d47",
    "resource": {
      "resourceType": "Coverage",
      "id": "5d834314-9f07-47d9-b38f-e1506e3f9d47",
      "status": "active",
      "beneficiary": {
        "reference": "Patient/3c8c427a-d756-456a-8f4e-e909b364e4fb"
      },
      "period": {
        "start": "1975-01-02T08:00:00.000+00:00"
      },
      "payor": [ {
        "reference": "Organization/ce7140a9-2407-45cf-8d9b-96d0786c64d4"
      } ]
    },
    "request": {
      "method": "PUT",
      "url": "Coverage/5d834314-9f07-47d9-b38f-e1506e3f9d47"
    }
  }, {
    "fullUrl": "https://madie.cms.gov/Condition/cc949cfd-a6c1-411a-9c2c-891ac2492fce",
    "resource": {
      "resourceType": "Condition",
      "id": "cc949cfd-a6c1-411a-9c2c-891ac2492fce",
      "meta": {
        "profile": [ "http://hl7.org/fhir/us/qicore/StructureDefinition/qicore-condition-problems-health-concerns" ]
      },
      "clinicalStatus": {
        "coding": [ {
          "system": "http://terminology.hl7.org/CodeSystem/condition-clinical",
          "code": "active",
          "display": "active",
          "userSelected": true
        } ]
      },
      "verificationStatus": {
        "coding": [ {
          "system": "http://terminology.hl7.org/CodeSystem/condition-ver-status",
          "code": "confirmed",
          "display": "confirmed",
          "userSelected": true
        } ]
      },
      "category": [ {
        "coding": [ {
          "system": "http://terminology.hl7.org/CodeSystem/condition-category",
          "code": "problem-list-item",
          "display": "Problem List Item"
        } ]
      } ],
      "code": {
        "coding": [ {
          "system": "http://hl7.org/fhir/sid/icd-9-cm",
          "code": "427.31"
        }, {
          "system": "http://hl7.org/fhir/sid/icd-10-cm",
          "code": "I48.0"
        }, {
          "system": "http://snomed.info/sct",
          "code": "5370000"
        } ]
      },
      "subject": {
        "reference": "Patient/3c8c427a-d756-456a-8f4e-e909b364e4fb"
      },
      "onsetPeriod": {
        "start": "2026-10-09T08:00:00.000+00:00",
        "end": "2026-10-09T08:15:00.000+00:00"
      }
    },
    "request": {
      "method": "PUT",
      "url": "Condition/cc949cfd-a6c1-411a-9c2c-891ac2492fce"
    }
  }, {
    "fullUrl": "https://madie.cms.gov/MedicationAdministration/b58ad8de-41bb-46fc-94ca-eab5a9e5b94f",
    "resource": {
      "resourceType": "MedicationAdministration",
      "id": "b58ad8de-41bb-46fc-94ca-eab5a9e5b94f",
      "meta": {
        "profile": [ "http://hl7.org/fhir/us/qicore/StructureDefinition/qicore-medicationadministration" ]
      },
      "status": "completed",
      "medicationCodeableConcept": {
        "coding": [ {
          "system": "http://www.nlm.nih.gov/research/umls/rxnorm",
          "code": "1992427",
          "display": "{74 (apixaban 5 MG Oral Tablet) } Pack"
        } ]
      },
      "subject": {
        "reference": "Patient/3c8c427a-d756-456a-8f4e-e909b364e4fb"
      },
      "effectiveDateTime": "2026-11-03T11:00:00.000+00:00"
    },
    "request": {
      "method": "PUT",
      "url": "MedicationAdministration/b58ad8de-41bb-46fc-94ca-eab5a9e5b94f"
    }
  }, {
    "fullUrl": "https://madie.cms.gov/Procedure/dbdbc194-e414-4e16-ac67-5c14ca8d7559",
    "resource": {
      "resourceType": "Procedure",
      "id": "dbdbc194-e414-4e16-ac67-5c14ca8d7559",
      "meta": {
        "profile": [ "http://hl7.org/fhir/us/qicore/StructureDefinition/qicore-procedure" ]
      },
      "extension": [ {
        "url": "http://hl7.org/fhir/us/qicore/StructureDefinition/qicore-recorded",
        "valueDateTime": "2013-11-19T13:35:00.000+00:00"
      } ],
      "status": "completed",
      "code": {
        "coding": [ {
          "system": "http://www.cms.gov/Medicare/Coding/ICD10",
          "code": "3E030FZ"
        } ]
      },
      "subject": {
        "reference": "Patient/3c8c427a-d756-456a-8f4e-e909b364e4fb"
      },
      "performedPeriod": {
        "start": "2026-11-02T09:00:00.000+00:00",
        "end": "2026-11-02T09:15:00.000+00:00"
      }
    },
    "request": {
      "method": "PUT",
      "url": "Procedure/dbdbc194-e414-4e16-ac67-5c14ca8d7559"
    }
  }, {
    "fullUrl": "https://madie.cms.gov/Organization/ce7140a9-2407-45cf-8d9b-96d0786c64d4",
    "resource": {
      "resourceType": "Organization",
      "id": "ce7140a9-2407-45cf-8d9b-96d0786c64d4",
      "meta": {
        "profile": [ "http://hl7.org/fhir/us/qicore/StructureDefinition/qicore-organization" ]
      },
      "identifier": [ {
        "use": "temp",
        "system": "urn:oid:2.16.840.1.113883.4.4",
        "value": "21-3259825"
      } ],
      "active": true,
      "type": [ {
        "coding": [ {
          "system": "http://terminology.hl7.org/CodeSystem/organization-type",
          "code": "pay",
          "display": "Payer"
        } ]
      } ],
      "name": "Blue Cross Blue Shield of Texas",
      "telecom": [ {
        "system": "phone",
        "value": "(+1) 972-766-6900"
      } ],
      "address": [ {
        "use": "billing",
        "type": "postal",
        "line": [ "P.O. Box 660044" ],
        "city": "Dallas",
        "state": "TX",
        "postalCode": "75266-0044",
        "country": "USA"
      } ]
    },
    "request": {
      "method": "PUT",
      "url": "Organization/ce7140a9-2407-45cf-8d9b-96d0786c64d4"
    }
  }, {
    "fullUrl": "https://madie.cms.gov/Practitioner/c14f5724-6a7a-45c7-944e-6f8a0192631d",
    "resource": {
      "resourceType": "Practitioner",
      "id": "c14f5724-6a7a-45c7-944e-6f8a0192631d",
      "identifier": [ {
        "system": "http://hl7.org/fhir/sid/us-npi",
        "value": "123456"
      } ],
      "name": [ {
        "family": "Evil",
        "prefix": [ "Dr" ]
      } ]
    },
    "request": {
      "method": "PUT",
      "url": "Practitioner/c14f5724-6a7a-45c7-944e-6f8a0192631d"
    }
  }, {
    "fullUrl": "https://madie.cms.gov/MeasureReport/6876c477-2b9f-48ab-b4ae-f9abc4c9d0bc",
    "resource": {
      "resourceType": "MeasureReport",
      "id": "6876c477-2b9f-48ab-b4ae-f9abc4c9d0bc",
      "meta": {
        "profile": [ "http://hl7.org/fhir/us/cqfmeasures/StructureDefinition/test-case-cqfm" ]
      },
      "contained": [ {
        "resourceType": "Parameters",
        "id": "62e02f82-411a-4305-acd6-381afbf1cfe7-parameters",
        "parameter": [ {
          "name": "subject",
          "valueString": "3c8c427a-d756-456a-8f4e-e909b364e4fb"
        } ]
      } ],
      "extension": [ {
        "url": "http://hl7.org/fhir/StructureDefinition/cqf-inputParameters",
        "valueReference": {
          "reference": "#62e02f82-411a-4305-acd6-381afbf1cfe7-parameters"
        }
      }, {
        "url": "http://hl7.org/fhir/us/cqfmeasures/StructureDefinition/cqfm-testCaseDescription",
        "valueMarkdown": "oral factor Xa administered =0 day after end of anesthesia with MedicationAdm. effectiveDateTime\n"
      } ],
      "modifierExtension": [ {
        "url": "http://hl7.org/fhir/us/cqfmeasures/StructureDefinition/cqfm-isTestCase",
        "valueBoolean": true
      } ],
      "status": "complete",
      "type": "individual",
      "measure": "https://madie.cms.gov/Measure/CMS108FHIRVTEProphylaxis",
      "period": {
        "start": "2026-01-01",
        "end": "2026-12-31"
      },
      "group": [ {
        "id": "Group_1",
        "population": [ {
          "id": "InitialPopulation_1",
          "code": {
            "coding": [ {
              "system": "http://terminology.hl7.org/CodeSystem/measure-population",
              "code": "initial-population",
              "display": "Initial Population"
            } ]
          },
          "count": 1
        }, {
          "id": "Denominator_1",
          "code": {
            "coding": [ {
              "system": "http://terminology.hl7.org/CodeSystem/measure-population",
              "code": "denominator",
              "display": "Denominator"
            } ]
          },
          "count": 1
        }, {
          "id": "DenominatorExclusion_1",
          "code": {
            "coding": [ {
              "system": "http://terminology.hl7.org/CodeSystem/measure-population",
              "code": "denominator-exclusion",
              "display": "Denominator Exclusion"
            } ]
          },
          "count": 0
        }, {
          "id": "Numerator_1",
          "code": {
            "coding": [ {
              "system": "http://terminology.hl7.org/CodeSystem/measure-population",
              "code": "numerator",
              "display": "Numerator"
            } ]
          },
          "count": 1
        } ],
        "measureScore": {
          "value": 0.0
        }
      } ],
      "evaluatedResource": [ {
        "reference": "Patient/3c8c427a-d756-456a-8f4e-e909b364e4fb"
      }, {
        "reference": "Encounter/f99ab4aa-ff8a-4f68-82a8-9998213c5ce8"
      }, {
        "reference": "Coverage/5d834314-9f07-47d9-b38f-e1506e3f9d47"
      }, {
        "reference": "Condition/cc949cfd-a6c1-411a-9c2c-891ac2492fce"
      }, {
        "reference": "MedicationAdministration/b58ad8de-41bb-46fc-94ca-eab5a9e5b94f"
      }, {
        "reference": "Procedure/dbdbc194-e414-4e16-ac67-5c14ca8d7559"
      }, {
        "reference": "Organization/ce7140a9-2407-45cf-8d9b-96d0786c64d4"
      }, {
        "reference": "Practitioner/c14f5724-6a7a-45c7-944e-6f8a0192631d"
      } ]
    },
    "request": {
      "method": "PUT",
      "url": "MeasureReport/6876c477-2b9f-48ab-b4ae-f9abc4c9d0bc"
    }
  } ]
}