{
  "resourceType": "Bundle",
  "id": "t1f044ef3e654daa2672",
  "type": "transaction",
  "entry": [ {
    "fullUrl": "https://madie.cms.gov/Patient/1208dcbf-4047-4b33-aafc-20431294b909",
    "resource": {
      "resourceType": "Patient",
      "id": "1208dcbf-4047-4b33-aafc-20431294b909",
      "meta": {
        "profile": [ "http://hl7.org/fhir/us/qicore/StructureDefinition/qicore-patient" ]
      },
      "extension": [ {
        "url": "http://hl7.org/fhir/us/core/StructureDefinition/us-core-race",
        "extension": [ {
          "url": "ombCategory",
          "valueCoding": {
            "system": "urn:oid:2.16.840.1.113883.6.238",
            "code": "1002-5",
            "display": "American Indian or Alaska Native",
            "userSelected": true
          }
        }, {
          "url": "text",
          "valueString": "American Indian or Alaska Native"
        } ]
      }, {
        "url": "http://hl7.org/fhir/us/core/StructureDefinition/us-core-ethnicity",
        "extension": [ {
          "url": "ombCategory",
          "valueCoding": {
            "system": "urn:oid:2.16.840.1.113883.6.238",
            "code": "2135-2",
            "display": "Hispanic or Latino",
            "userSelected": true
          }
        }, {
          "url": "text",
          "valueString": "Hispanic or Latino"
        } ]
      }, {
        "url": "http://hl7.org/fhir/us/core/StructureDefinition/us-core-sex",
        "valueCode": "248153007"
      } ],
      "identifier": [ {
        "type": {
          "coding": [ {
            "system": "http://terminology.hl7.org/CodeSystem/v2-0203",
            "code": "MR"
          } ]
        },
        "system": "https://bonnie-fhir.healthit.gov/",
        "value": "t1f044ef3e654daa2672"
      } ],
      "name": [ {
        "family": "DENEXCL11PASS",
        "given": [ "HospiceInterventionRelevantPeriodPerformedBeforeED" ]
      } ],
      "gender": "male",
      "birthDate": "1976-04-02"
    },
    "request": {
      "method": "PUT",
      "url": "Patient/1208dcbf-4047-4b33-aafc-20431294b909"
    }
  }, {
    "fullUrl": "https://madie.cms.gov/Encounter/38997557-6247-4ee0-a878-26dab158f2a6",
    "resource": {
      "resourceType": "Encounter",
      "id": "38997557-6247-4ee0-a878-26dab158f2a6",
      "meta": {
        "profile": [ "http://hl7.org/fhir/us/qicore/StructureDefinition/qicore-encounter" ]
      },
      "status": "finished",
      "class": {
        "system": "http://terminology.hl7.org/CodeSystem/v3-ActCode",
        "code": "EMER",
        "display": "emergency",
        "userSelected": true
      },
      "type": [ {
        "coding": [ {
          "system": "http://snomed.info/sct",
          "version": "2020-09",
          "code": "4525004",
          "display": "Emergency department patient visit",
          "userSelected": true
        } ]
      } ],
      "subject": {
        "reference": "Patient/1208dcbf-4047-4b33-aafc-20431294b909"
      },
      "period": {
        "start": "2026-10-09T05:00:00.000+00:00",
        "end": "2026-10-13T17:00:00.000+00:00"
      },
      "reasonCode": [ {
        "coding": [ {
          "system": "http://hl7.org/fhir/sid/icd-10-cm",
          "code": "I21.21",
          "display": "ST elevation (STEMI) myocardial infarction involving left circumflex coronary artery",
          "userSelected": true
        } ]
      } ]
    },
    "request": {
      "method": "PUT",
      "url": "Encounter/38997557-6247-4ee0-a878-26dab158f2a6"
    }
  }, {
    "fullUrl": "https://madie.cms.gov/Procedure/77cc1c8f-1621-445c-a211-3227d4bdb25d",
    "resource": {
      "resourceType": "Procedure",
      "id": "77cc1c8f-1621-445c-a211-3227d4bdb25d",
      "meta": {
        "profile": [ "http://hl7.org/fhir/us/qicore/StructureDefinition/qicore-procedure" ]
      },
      "extension": [ {
        "url": "http://hl7.org/fhir/us/qicore/StructureDefinition/qicore-recorded",
        "valueDateTime": "2026-10-09T12:15:00.000+00:00"
      } ],
      "status": "completed",
      "code": {
        "coding": [ {
          "system": "http://snomed.info/sct",
          "code": "385763009",
          "display": "Hospice care (regime/therapy)",
          "userSelected": true
        } ]
      },
      "subject": {
        "reference": "Patient/1208dcbf-4047-4b33-aafc-20431294b909"
      },
      "performedPeriod": {
        "start": "2026-10-01T14:00:00.000+00:00",
        "end": "2026-10-01T17:00:00.000+00:00"
      }
    },
    "request": {
      "method": "PUT",
      "url": "Procedure/77cc1c8f-1621-445c-a211-3227d4bdb25d"
    }
  }, {
    "fullUrl": "https://madie.cms.gov/MeasureReport/527a40f8-1656-4866-8828-c876230817ac",
    "resource": {
      "resourceType": "MeasureReport",
      "id": "527a40f8-1656-4866-8828-c876230817ac",
      "meta": {
        "profile": [ "http://hl7.org/fhir/us/cqfmeasures/StructureDefinition/test-case-cqfm" ]
      },
      "contained": [ {
        "resourceType": "Parameters",
        "id": "f64ff2b6-faf5-409f-b3a6-2242edc8add5-parameters",
        "parameter": [ {
          "name": "subject",
          "valueString": "1208dcbf-4047-4b33-aafc-20431294b909"
        } ]
      } ],
      "extension": [ {
        "url": "http://hl7.org/fhir/StructureDefinition/cqf-inputParameters",
        "valueReference": {
          "reference": "#f64ff2b6-faf5-409f-b3a6-2242edc8add5-parameters"
        }
      }, {
        "url": "http://hl7.org/fhir/us/cqfmeasures/StructureDefinition/cqfm-testCaseDescription",
        "valueMarkdown": "Patients has hospice services (intervention, procedure| Relevant Period) before ED"
      } ],
      "modifierExtension": [ {
        "url": "http://hl7.org/fhir/us/cqfmeasures/StructureDefinition/cqfm-isTestCase",
        "valueBoolean": true
      } ],
      "status": "complete",
      "type": "individual",
      "measure": "https://madie.cms.gov/Measure/CMS996FHIRAptTxforSTEMI",
      "period": {
        "start": "2026-01-01",
        "end": "2026-12-31"
      },
      "group": [ {
        "id": "Group_1",
        "population": [ {
          "id": "InitialPopulation_1",
          "code": {
            "coding": [ {
              "system": "http://terminology.hl7.org/CodeSystem/measure-population",
              "code": "initial-population",
              "display": "Initial Population"
            } ]
          },
          "count": 1
        }, {
          "id": "Denominator_1",
          "code": {
            "coding": [ {
              "system": "http://terminology.hl7.org/CodeSystem/measure-population",
              "code": "denominator",
              "display": "Denominator"
            } ]
          },
          "count": 1
        }, {
          "id": "DenominatorExclusion_1",
          "code": {
            "coding": [ {
              "system": "http://terminology.hl7.org/CodeSystem/measure-population",
              "code": "denominator-exclusion",
              "display": "Denominator Exclusion"
            } ]
          },
          "count": 1
        }, {
          "id": "Numerator_1",
          "code": {
            "coding": [ {
              "system": "http://terminology.hl7.org/CodeSystem/measure-population",
              "code": "numerator",
              "display": "Numerator"
            } ]
          },
          "count": 0
        }, {
          "id": "DenominatorException_1",
          "code": {
            "coding": [ {
              "system": "http://terminology.hl7.org/CodeSystem/measure-population",
              "code": "denominator-exception",
              "display": "Denominator Exception"
            } ]
          },
          "count": 0
        } ],
        "measureScore": {
          "value": 0.0
        }
      } ],
      "evaluatedResource": [ {
        "reference": "Patient/1208dcbf-4047-4b33-aafc-20431294b909"
      }, {
        "reference": "Encounter/38997557-6247-4ee0-a878-26dab158f2a6"
      }, {
        "reference": "Procedure/77cc1c8f-1621-445c-a211-3227d4bdb25d"
      } ]
    },
    "request": {
      "method": "PUT",
      "url": "MeasureReport/527a40f8-1656-4866-8828-c876230817ac"
    }
  } ]
}