{
  "resourceType": "Bundle",
  "id": "63233350414ba67d4e1d1c2f",
  "type": "transaction",
  "entry": [ {
    "fullUrl": "https://madie.cms.gov/Patient/57da77da-de92-4ef5-9311-1d86e67c9de4",
    "resource": {
      "resourceType": "Patient",
      "id": "57da77da-de92-4ef5-9311-1d86e67c9de4",
      "meta": {
        "profile": [ "http://hl7.org/fhir/us/qicore/StructureDefinition/qicore-patient" ]
      },
      "extension": [ {
        "url": "http://hl7.org/fhir/us/core/StructureDefinition/us-core-race",
        "extension": [ {
          "url": "ombCategory",
          "valueCoding": {
            "system": "urn:oid:2.16.840.1.113883.6.238",
            "code": "2028-9",
            "display": "Asian",
            "userSelected": true
          }
        }, {
          "url": "text",
          "valueString": "Asian"
        }, {
          "url": "detailed",
          "valueCoding": {
            "system": "urn:oid:2.16.840.1.113883.6.238",
            "code": "1653-5",
            "display": "Tohono O'Odham"
          }
        } ]
      }, {
        "url": "http://hl7.org/fhir/us/core/StructureDefinition/us-core-ethnicity",
        "extension": [ {
          "url": "ombCategory",
          "valueCoding": {
            "system": "urn:oid:2.16.840.1.113883.6.238",
            "code": "2186-5",
            "display": "Not Hispanic or Latino",
            "userSelected": true
          }
        }, {
          "url": "text",
          "valueString": "Not Hispanic or Latino"
        }, {
          "url": "detailed",
          "valueCoding": {
            "system": "urn:oid:2.16.840.1.113883.6.238",
            "code": "2153-5",
            "display": "Mexican American Indian"
          }
        } ]
      } ],
      "identifier": [ {
        "system": "http://hospital.smarthealthit.org",
        "value": "999999999"
      } ],
      "name": [ {
        "family": "DENEXPass",
        "given": [ "OpioidUseDisorder" ]
      } ],
      "gender": "female",
      "birthDate": "1944-02-01"
    },
    "request": {
      "method": "PUT",
      "url": "Patient/57da77da-de92-4ef5-9311-1d86e67c9de4"
    }
  }, {
    "fullUrl": "https://madie.cms.gov/Encounter/735af6f1-03f9-4b51-8355-0192306690b2",
    "resource": {
      "resourceType": "Encounter",
      "id": "735af6f1-03f9-4b51-8355-0192306690b2",
      "meta": {
        "profile": [ "http://hl7.org/fhir/us/qicore/StructureDefinition/qicore-encounter" ]
      },
      "status": "finished",
      "class": {
        "system": "http://terminology.hl7.org/CodeSystem/v3-ActCode",
        "code": "IMP",
        "display": "inpatient encounter"
      },
      "type": [ {
        "coding": [ {
          "system": "http://snomed.info/sct",
          "code": "183452005",
          "display": "Emergency hospital admission (procedure)",
          "userSelected": true
        } ]
      } ],
      "subject": {
        "reference": "Patient/57da77da-de92-4ef5-9311-1d86e67c9de4"
      },
      "period": {
        "start": "2026-01-01T11:45:00.000+00:00",
        "end": "2026-01-03T11:59:00.000+00:00"
      }
    },
    "request": {
      "method": "PUT",
      "url": "Encounter/735af6f1-03f9-4b51-8355-0192306690b2"
    }
  }, {
    "fullUrl": "https://madie.cms.gov/MedicationRequest/ecd620b8-fe97-434b-aafe-79002f64ddc5",
    "resource": {
      "resourceType": "MedicationRequest",
      "id": "ecd620b8-fe97-434b-aafe-79002f64ddc5",
      "meta": {
        "profile": [ "http://hl7.org/fhir/us/qicore/StructureDefinition/qicore-medicationrequest" ]
      },
      "status": "completed",
      "intent": "order",
      "category": [ {
        "coding": [ {
          "system": "http://terminology.hl7.org/CodeSystem/medicationrequest-category",
          "code": "discharge",
          "display": "Discharge",
          "userSelected": true
        } ]
      } ],
      "doNotPerform": false,
      "medicationCodeableConcept": {
        "coding": [ {
          "system": "http://www.nlm.nih.gov/research/umls/rxnorm",
          "code": "2103192",
          "display": "sufentanil 0.03 MG Sublingual Tablet",
          "userSelected": true
        } ]
      },
      "subject": {
        "reference": "Patient/57da77da-de92-4ef5-9311-1d86e67c9de4"
      },
      "authoredOn": "2026-01-03T11:59:00.000+00:00",
      "requester": {
        "reference": "Practitioner/22c43080-9589-4fd4-8c54-4cc2e3b41459"
      }
    },
    "request": {
      "method": "PUT",
      "url": "MedicationRequest/ecd620b8-fe97-434b-aafe-79002f64ddc5"
    }
  }, {
    "fullUrl": "https://madie.cms.gov/Practitioner/22c43080-9589-4fd4-8c54-4cc2e3b41459",
    "resource": {
      "resourceType": "Practitioner",
      "id": "22c43080-9589-4fd4-8c54-4cc2e3b41459",
      "meta": {
        "profile": [ "http://hl7.org/fhir/us/qicore/StructureDefinition/qicore-practitioner" ]
      },
      "identifier": [ {
        "system": "http://hl7.org/fhir/sid/us-npi",
        "value": "9999999896"
      } ],
      "active": true,
      "name": [ {
        "family": "Ramires",
        "given": [ "Alma" ],
        "prefix": [ "Dr" ]
      } ],
      "address": [ {
        "use": "home",
        "line": [ "534 Erewhon St" ],
        "city": "Netherville",
        "state": "IN",
        "postalCode": "46131"
      } ],
      "qualification": [ {
        "identifier": [ {
          "system": "http://goodhealth.org/prIdentifier",
          "value": "12345"
        } ],
        "code": {
          "coding": [ {
            "system": "http://terminology.hl7.org/CodeSystem/v2-0360|2.7",
            "code": "BS",
            "display": "Bachelor of Science"
          } ],
          "text": "Bachelor of Science"
        },
        "period": {
          "start": "1995"
        },
        "issuer": {
          "display": "Example University"
        }
      } ]
    },
    "request": {
      "method": "PUT",
      "url": "Practitioner/22c43080-9589-4fd4-8c54-4cc2e3b41459"
    }
  }, {
    "fullUrl": "https://madie.cms.gov/Condition/81cb6269-459e-4f1c-bf6c-f14d7431a6cc",
    "resource": {
      "resourceType": "Condition",
      "id": "81cb6269-459e-4f1c-bf6c-f14d7431a6cc",
      "meta": {
        "profile": [ "http://hl7.org/fhir/us/qicore/StructureDefinition/qicore-condition-problems-health-concerns" ]
      },
      "clinicalStatus": {
        "coding": [ {
          "system": "http://terminology.hl7.org/CodeSystem/condition-clinical",
          "code": "active",
          "display": "active",
          "userSelected": true
        } ]
      },
      "verificationStatus": {
        "coding": [ {
          "system": "http://terminology.hl7.org/CodeSystem/condition-ver-status",
          "code": "confirmed",
          "display": "Confirmed",
          "userSelected": true
        } ]
      },
      "category": [ {
        "coding": [ {
          "system": "http://terminology.hl7.org/CodeSystem/condition-category",
          "code": "problem-list-item",
          "display": "Problem List Item"
        }, {
          "system": "http://snomed.info/sct",
          "code": "439401001",
          "display": "Diagnosis"
        } ]
      } ],
      "code": {
        "coding": [ {
          "system": "http://snomed.info/sct",
          "code": "75544000",
          "display": "Opioid dependence (disorder)",
          "userSelected": true
        } ]
      },
      "subject": {
        "reference": "Patient/57da77da-de92-4ef5-9311-1d86e67c9de4"
      },
      "onsetPeriod": {
        "start": "2026-01-02T08:00:00.000+00:00"
      }
    },
    "request": {
      "method": "PUT",
      "url": "Condition/81cb6269-459e-4f1c-bf6c-f14d7431a6cc"
    }
  }, {
    "fullUrl": "https://madie.cms.gov/MedicationRequest/5ccec8a7-e9dc-497f-9120-8c6e5bbf28b6",
    "resource": {
      "resourceType": "MedicationRequest",
      "id": "5ccec8a7-e9dc-497f-9120-8c6e5bbf28b6",
      "meta": {
        "profile": [ "http://hl7.org/fhir/us/qicore/StructureDefinition/qicore-medicationrequest" ]
      },
      "status": "active",
      "intent": "order",
      "category": [ {
        "coding": [ {
          "system": "http://terminology.hl7.org/CodeSystem/medicationrequest-category",
          "code": "community",
          "display": "Community",
          "userSelected": true
        } ]
      } ],
      "doNotPerform": false,
      "medicationCodeableConcept": {
        "coding": [ {
          "system": "http://www.nlm.nih.gov/research/umls/rxnorm",
          "code": "1010600",
          "display": "buprenorphine 2 MG / naloxone 0.5 MG Sublingual Film",
          "userSelected": true
        } ]
      },
      "subject": {
        "reference": "Patient/57da77da-de92-4ef5-9311-1d86e67c9de4"
      },
      "authoredOn": "2026-01-02T00:05:00.000+00:00",
      "requester": {
        "reference": "Practitioner/22c43080-9589-4fd4-8c54-4cc2e3b41459"
      }
    },
    "request": {
      "method": "PUT",
      "url": "MedicationRequest/5ccec8a7-e9dc-497f-9120-8c6e5bbf28b6"
    }
  }, {
    "fullUrl": "https://madie.cms.gov/Coverage/65c52540-45d1-4f05-8d92-83b1dc8d028e",
    "resource": {
      "resourceType": "Coverage",
      "id": "65c52540-45d1-4f05-8d92-83b1dc8d028e",
      "meta": {
        "profile": [ "http://hl7.org/fhir/us/qicore/StructureDefinition/qicore-coverage" ]
      },
      "status": "active",
      "subscriberId": "523435",
      "beneficiary": {
        "reference": "Patient/57da77da-de92-4ef5-9311-1d86e67c9de4"
      },
      "relationship": {
        "coding": [ {
          "system": "http://terminology.hl7.org/CodeSystem/subscriber-relationship",
          "code": "self"
        } ]
      },
      "payor": [ {
        "reference": "Organization/08f4debb-8e47-4952-91cd-d01657afbfdd"
      } ]
    },
    "request": {
      "method": "PUT",
      "url": "Coverage/65c52540-45d1-4f05-8d92-83b1dc8d028e"
    }
  }, {
    "fullUrl": "https://madie.cms.gov/Organization/08f4debb-8e47-4952-91cd-d01657afbfdd",
    "resource": {
      "resourceType": "Organization",
      "id": "08f4debb-8e47-4952-91cd-d01657afbfdd",
      "meta": {
        "profile": [ "http://hl7.org/fhir/us/qicore/StructureDefinition/qicore-organization" ]
      },
      "identifier": [ {
        "use": "temp",
        "system": "urn:oid:2.16.840.1.113883.4.4",
        "value": "21-3259825"
      } ],
      "active": true,
      "type": [ {
        "coding": [ {
          "system": "http://terminology.hl7.org/CodeSystem/organization-type",
          "code": "pay",
          "display": "Payer"
        } ]
      } ],
      "name": "Blue Cross Blue Shield of Texas",
      "telecom": [ {
        "system": "phone",
        "value": "(+1) 972-766-6900"
      } ],
      "address": [ {
        "use": "billing",
        "type": "postal",
        "line": [ "P.O. Box 660044" ],
        "city": "Dallas",
        "state": "TX",
        "postalCode": "75266-0044",
        "country": "USA"
      } ]
    },
    "request": {
      "method": "PUT",
      "url": "Organization/08f4debb-8e47-4952-91cd-d01657afbfdd"
    }
  }, {
    "fullUrl": "https://madie.cms.gov/MeasureReport/607085b0-7eb7-4655-a573-694b92dac062",
    "resource": {
      "resourceType": "MeasureReport",
      "id": "607085b0-7eb7-4655-a573-694b92dac062",
      "meta": {
        "profile": [ "http://hl7.org/fhir/us/cqfmeasures/StructureDefinition/test-case-cqfm" ]
      },
      "contained": [ {
        "resourceType": "Parameters",
        "id": "63737bdf-43e8-4292-8393-25ed97f614aa-parameters",
        "parameter": [ {
          "name": "subject",
          "valueString": "57da77da-de92-4ef5-9311-1d86e67c9de4"
        } ]
      } ],
      "extension": [ {
        "url": "http://hl7.org/fhir/StructureDefinition/cqf-inputParameters",
        "valueReference": {
          "reference": "#63737bdf-43e8-4292-8393-25ed97f614aa-parameters"
        }
      }, {
        "url": "http://hl7.org/fhir/us/cqfmeasures/StructureDefinition/cqfm-testCaseDescription",
        "valueMarkdown": "Encounter 1/1 - 1/3 of MP, pt has opioid use disorder dx onset during enc\n\nSDE detailed is included"
      } ],
      "modifierExtension": [ {
        "url": "http://hl7.org/fhir/us/cqfmeasures/StructureDefinition/cqfm-isTestCase",
        "valueBoolean": true
      } ],
      "status": "complete",
      "type": "individual",
      "measure": "https://madie.cms.gov/Measure/CMS506FHIRSafeUseofOpioids",
      "period": {
        "start": "2026-01-01",
        "end": "2026-12-31"
      },
      "group": [ {
        "id": "Group_1",
        "population": [ {
          "id": "InitialPopulation_1",
          "code": {
            "coding": [ {
              "system": "http://terminology.hl7.org/CodeSystem/measure-population",
              "code": "initial-population",
              "display": "Initial Population"
            } ]
          },
          "count": 1
        }, {
          "id": "Denominator_1",
          "code": {
            "coding": [ {
              "system": "http://terminology.hl7.org/CodeSystem/measure-population",
              "code": "denominator",
              "display": "Denominator"
            } ]
          },
          "count": 1
        }, {
          "id": "DenominatorExclusion_1",
          "code": {
            "coding": [ {
              "system": "http://terminology.hl7.org/CodeSystem/measure-population",
              "code": "denominator-exclusion",
              "display": "Denominator Exclusion"
            } ]
          },
          "count": 1
        }, {
          "id": "Numerator_1",
          "code": {
            "coding": [ {
              "system": "http://terminology.hl7.org/CodeSystem/measure-population",
              "code": "numerator",
              "display": "Numerator"
            } ]
          },
          "count": 0
        } ],
        "measureScore": {
          "value": 0.0
        }
      } ],
      "evaluatedResource": [ {
        "reference": "Patient/57da77da-de92-4ef5-9311-1d86e67c9de4"
      }, {
        "reference": "Encounter/735af6f1-03f9-4b51-8355-0192306690b2"
      }, {
        "reference": "MedicationRequest/ecd620b8-fe97-434b-aafe-79002f64ddc5"
      }, {
        "reference": "Practitioner/22c43080-9589-4fd4-8c54-4cc2e3b41459"
      }, {
        "reference": "Condition/81cb6269-459e-4f1c-bf6c-f14d7431a6cc"
      }, {
        "reference": "MedicationRequest/5ccec8a7-e9dc-497f-9120-8c6e5bbf28b6"
      }, {
        "reference": "Coverage/65c52540-45d1-4f05-8d92-83b1dc8d028e"
      }, {
        "reference": "Organization/08f4debb-8e47-4952-91cd-d01657afbfdd"
      } ]
    },
    "request": {
      "method": "PUT",
      "url": "MeasureReport/607085b0-7eb7-4655-a573-694b92dac062"
    }
  } ]
}