{
  "resourceType": "Bundle",
  "id": "612e6b9302c62a011f2ee63c",
  "type": "transaction",
  "entry": [ {
    "fullUrl": "https://madie.cms.gov/Patient/91ff5f1a-cfdb-472d-b8c3-144f499d1ccc",
    "resource": {
      "resourceType": "Patient",
      "id": "91ff5f1a-cfdb-472d-b8c3-144f499d1ccc",
      "meta": {
        "profile": [ "http://hl7.org/fhir/us/qicore/StructureDefinition/qicore-patient" ]
      },
      "text": {
        "status": "generated",
        "div": "<div xmlns=\"http://www.w3.org/1999/xhtml\"><div class=\"hapiHeaderText\">PtRef_DO_GCS=1DayAFAnes <b>NUMERPASS </b></div><table class=\"hapiPropertyTable\"><tbody><tr><td>Identifier</td><td>24fc1ce85ce14557dd4d9eba17df9f17</td></tr><tr><td>Date of birth</td><td><span>02 January 1974</span></td></tr></tbody></table></div>"
      },
      "extension": [ {
        "url": "http://hl7.org/fhir/us/core/StructureDefinition/us-core-race",
        "extension": [ {
          "url": "ombCategory",
          "valueCoding": {
            "system": "urn:oid:2.16.840.1.113883.6.238",
            "code": "1002-5",
            "display": "American Indian or Alaska Native",
            "userSelected": true
          }
        }, {
          "url": "text",
          "valueString": "American Indian or Alaska Native"
        } ]
      }, {
        "url": "http://hl7.org/fhir/us/core/StructureDefinition/us-core-ethnicity",
        "extension": [ {
          "url": "ombCategory",
          "valueCoding": {
            "system": "urn:oid:2.16.840.1.113883.6.238",
            "code": "2135-2",
            "display": "Hispanic or Latino",
            "userSelected": true
          }
        }, {
          "url": "text",
          "valueString": "Hispanic or Latino"
        } ]
      } ],
      "identifier": [ {
        "type": {
          "coding": [ {
            "system": "http://terminology.hl7.org/CodeSystem/v2-0203",
            "code": "MR"
          } ]
        },
        "system": "https://bonnie-fhir.healthit.gov/",
        "value": "612e6b9302c62a011f2ee63c"
      } ],
      "active": true,
      "name": [ {
        "use": "usual",
        "family": "NUMERPass",
        "given": [ "PtRefDOIPCTaskReject" ]
      } ],
      "gender": "male",
      "birthDate": "1975-01-02"
    },
    "request": {
      "method": "PUT",
      "url": "Patient/91ff5f1a-cfdb-472d-b8c3-144f499d1ccc"
    }
  }, {
    "fullUrl": "https://madie.cms.gov/Encounter/896c1815-d516-4856-b08d-378056ef357b",
    "resource": {
      "resourceType": "Encounter",
      "id": "896c1815-d516-4856-b08d-378056ef357b",
      "meta": {
        "profile": [ "http://hl7.org/fhir/us/qicore/StructureDefinition/qicore-encounter" ]
      },
      "status": "finished",
      "class": {
        "system": "http://terminology.hl7.org/CodeSystem/v3-ActCode",
        "code": "IMP",
        "display": "inpatient encounter"
      },
      "type": [ {
        "coding": [ {
          "system": "http://snomed.info/sct",
          "code": "8715000"
        } ]
      } ],
      "subject": {
        "reference": "Patient/91ff5f1a-cfdb-472d-b8c3-144f499d1ccc"
      },
      "period": {
        "start": "2026-11-01T08:00:00.000+00:00",
        "end": "2026-11-26T08:15:00.000+00:00"
      },
      "length": {
        "value": 25,
        "unit": "days"
      }
    },
    "request": {
      "method": "PUT",
      "url": "Encounter/896c1815-d516-4856-b08d-378056ef357b"
    }
  }, {
    "fullUrl": "https://madie.cms.gov/Coverage/43f2d39e-9f8c-4054-a49e-ec19dc0d4011",
    "resource": {
      "resourceType": "Coverage",
      "id": "43f2d39e-9f8c-4054-a49e-ec19dc0d4011",
      "status": "active",
      "beneficiary": {
        "reference": "Patient/91ff5f1a-cfdb-472d-b8c3-144f499d1ccc"
      },
      "period": {
        "start": "1975-01-02T08:00:00.000+00:00"
      },
      "payor": [ {
        "reference": "Organization/978a27d9-b533-42d2-813f-46cff4bd2a61"
      } ]
    },
    "request": {
      "method": "PUT",
      "url": "Coverage/43f2d39e-9f8c-4054-a49e-ec19dc0d4011"
    }
  }, {
    "fullUrl": "https://madie.cms.gov/Procedure/57a2939e-0b55-409c-8ddb-8f0a2befedaa",
    "resource": {
      "resourceType": "Procedure",
      "id": "57a2939e-0b55-409c-8ddb-8f0a2befedaa",
      "meta": {
        "profile": [ "http://hl7.org/fhir/us/qicore/StructureDefinition/qicore-procedure" ]
      },
      "extension": [ {
        "url": "http://hl7.org/fhir/us/qicore/StructureDefinition/qicore-recorded",
        "valueDateTime": "2013-11-03T13:35:00.000+00:00"
      } ],
      "status": "completed",
      "code": {
        "coding": [ {
          "system": "http://www.icd10data.com/icd10pcs",
          "code": "3E030FZ"
        }, {
          "system": "http://snomed.info/sct",
          "code": "18946005"
        } ]
      },
      "subject": {
        "reference": "Patient/91ff5f1a-cfdb-472d-b8c3-144f499d1ccc"
      },
      "performedPeriod": {
        "start": "2026-11-02T09:00:00.000+00:00",
        "end": "2026-11-02T09:15:00.000+00:00"
      }
    },
    "request": {
      "method": "PUT",
      "url": "Procedure/57a2939e-0b55-409c-8ddb-8f0a2befedaa"
    }
  }, {
    "fullUrl": "https://madie.cms.gov/ServiceRequest/eebd4e1c-92a0-43cb-8528-2518aa6b806e",
    "resource": {
      "resourceType": "ServiceRequest",
      "id": "eebd4e1c-92a0-43cb-8528-2518aa6b806e",
      "meta": {
        "profile": [ "http://hl7.org/fhir/us/qicore/StructureDefinition/qicore-servicerequest" ]
      },
      "status": "active",
      "intent": "order",
      "doNotPerform": true,
      "code": {
        "coding": [ {
          "system": "http://snomed.info/sct",
          "version": "2025-03",
          "code": "428411000124104",
          "display": "Intermittent pneumatic compression boot (physical object)",
          "userSelected": true
        } ]
      },
      "subject": {
        "reference": "Patient/91ff5f1a-cfdb-472d-b8c3-144f499d1ccc"
      },
      "authoredOn": "2026-11-02T11:00:00.000+00:00"
    },
    "request": {
      "method": "PUT",
      "url": "ServiceRequest/eebd4e1c-92a0-43cb-8528-2518aa6b806e"
    }
  }, {
    "fullUrl": "https://madie.cms.gov/Task/f6fa79a6-d11d-4555-b89d-71a69ff8013c",
    "resource": {
      "resourceType": "Task",
      "id": "f6fa79a6-d11d-4555-b89d-71a69ff8013c",
      "meta": {
        "profile": [ "http://hl7.org/fhir/us/qicore/StructureDefinition/qicore-taskrejected" ]
      },
      "status": "rejected",
      "statusReason": {
        "coding": [ {
          "system": "http://snomed.info/sct",
          "code": "443390004",
          "display": "Refusal of treatment by patient (situation)",
          "userSelected": true
        } ]
      },
      "code": {
        "coding": [ {
          "system": "http://hl7.org/fhir/CodeSystem/task-code",
          "code": "fulfill"
        } ]
      },
      "focus": {
        "reference": "ServiceRequest/eebd4e1c-92a0-43cb-8528-2518aa6b806e"
      },
      "executionPeriod": {
        "start": "2026-11-02T11:30:00.000+00:00",
        "end": "2026-11-02T11:35:00.000+00:00"
      }
    },
    "request": {
      "method": "PUT",
      "url": "Task/f6fa79a6-d11d-4555-b89d-71a69ff8013c"
    }
  }, {
    "fullUrl": "https://madie.cms.gov/Organization/978a27d9-b533-42d2-813f-46cff4bd2a61",
    "resource": {
      "resourceType": "Organization",
      "id": "978a27d9-b533-42d2-813f-46cff4bd2a61",
      "meta": {
        "profile": [ "http://hl7.org/fhir/us/qicore/StructureDefinition/qicore-organization" ]
      },
      "identifier": [ {
        "use": "temp",
        "system": "urn:oid:2.16.840.1.113883.4.4",
        "value": "21-3259825"
      } ],
      "active": true,
      "type": [ {
        "coding": [ {
          "system": "http://terminology.hl7.org/CodeSystem/organization-type",
          "code": "pay",
          "display": "Payer"
        } ]
      } ],
      "name": "Blue Cross Blue Shield of Texas",
      "telecom": [ {
        "system": "phone",
        "value": "(+1) 972-766-6900"
      } ],
      "address": [ {
        "use": "billing",
        "type": "postal",
        "line": [ "P.O. Box 660044" ],
        "city": "Dallas",
        "state": "TX",
        "postalCode": "75266-0044",
        "country": "USA"
      } ]
    },
    "request": {
      "method": "PUT",
      "url": "Organization/978a27d9-b533-42d2-813f-46cff4bd2a61"
    }
  }, {
    "fullUrl": "https://madie.cms.gov/Practitioner/4539057e-c533-4f01-a531-747c9fd09e9d",
    "resource": {
      "resourceType": "Practitioner",
      "id": "4539057e-c533-4f01-a531-747c9fd09e9d",
      "identifier": [ {
        "system": "http://hl7.org/fhir/sid/us-npi",
        "value": "123456"
      } ],
      "name": [ {
        "family": "Evil",
        "prefix": [ "Dr" ]
      } ]
    },
    "request": {
      "method": "PUT",
      "url": "Practitioner/4539057e-c533-4f01-a531-747c9fd09e9d"
    }
  }, {
    "fullUrl": "https://madie.cms.gov/MeasureReport/cee9ae71-29f6-41ee-a479-0fc2d8b338c5",
    "resource": {
      "resourceType": "MeasureReport",
      "id": "cee9ae71-29f6-41ee-a479-0fc2d8b338c5",
      "meta": {
        "profile": [ "http://hl7.org/fhir/us/cqfmeasures/StructureDefinition/test-case-cqfm" ]
      },
      "contained": [ {
        "resourceType": "Parameters",
        "id": "398d93f9-4ef2-4ac5-ae57-afdd89ba9a82-parameters",
        "parameter": [ {
          "name": "subject",
          "valueString": "91ff5f1a-cfdb-472d-b8c3-144f499d1ccc"
        } ]
      } ],
      "extension": [ {
        "url": "http://hl7.org/fhir/StructureDefinition/cqf-inputParameters",
        "valueReference": {
          "reference": "#398d93f9-4ef2-4ac5-ae57-afdd89ba9a82-parameters"
        }
      }, {
        "url": "http://hl7.org/fhir/us/cqfmeasures/StructureDefinition/cqfm-testCaseDescription",
        "valueMarkdown": "patient refused IPC order  rejected on 1 day after start of IP encounter and same day with Aneth\n"
      } ],
      "modifierExtension": [ {
        "url": "http://hl7.org/fhir/us/cqfmeasures/StructureDefinition/cqfm-isTestCase",
        "valueBoolean": true
      } ],
      "status": "complete",
      "type": "individual",
      "measure": "https://madie.cms.gov/Measure/CMS108FHIRVTEProphylaxis",
      "period": {
        "start": "2026-01-01",
        "end": "2026-12-31"
      },
      "group": [ {
        "id": "Group_1",
        "population": [ {
          "id": "InitialPopulation_1",
          "code": {
            "coding": [ {
              "system": "http://terminology.hl7.org/CodeSystem/measure-population",
              "code": "initial-population",
              "display": "Initial Population"
            } ]
          },
          "count": 1
        }, {
          "id": "Denominator_1",
          "code": {
            "coding": [ {
              "system": "http://terminology.hl7.org/CodeSystem/measure-population",
              "code": "denominator",
              "display": "Denominator"
            } ]
          },
          "count": 1
        }, {
          "id": "DenominatorExclusion_1",
          "code": {
            "coding": [ {
              "system": "http://terminology.hl7.org/CodeSystem/measure-population",
              "code": "denominator-exclusion",
              "display": "Denominator Exclusion"
            } ]
          },
          "count": 0
        }, {
          "id": "Numerator_1",
          "code": {
            "coding": [ {
              "system": "http://terminology.hl7.org/CodeSystem/measure-population",
              "code": "numerator",
              "display": "Numerator"
            } ]
          },
          "count": 1
        } ],
        "measureScore": {
          "value": 0.0
        }
      } ],
      "evaluatedResource": [ {
        "reference": "Patient/91ff5f1a-cfdb-472d-b8c3-144f499d1ccc"
      }, {
        "reference": "Encounter/896c1815-d516-4856-b08d-378056ef357b"
      }, {
        "reference": "Coverage/43f2d39e-9f8c-4054-a49e-ec19dc0d4011"
      }, {
        "reference": "Procedure/57a2939e-0b55-409c-8ddb-8f0a2befedaa"
      }, {
        "reference": "ServiceRequest/eebd4e1c-92a0-43cb-8528-2518aa6b806e"
      }, {
        "reference": "Task/f6fa79a6-d11d-4555-b89d-71a69ff8013c"
      }, {
        "reference": "Organization/978a27d9-b533-42d2-813f-46cff4bd2a61"
      }, {
        "reference": "Practitioner/4539057e-c533-4f01-a531-747c9fd09e9d"
      } ]
    },
    "request": {
      "method": "PUT",
      "url": "MeasureReport/cee9ae71-29f6-41ee-a479-0fc2d8b338c5"
    }
  } ]
}