{
  "resourceType": "Bundle",
  "id": "6109650498086b538055a0d8",
  "type": "transaction",
  "entry": [ {
    "fullUrl": "https://madie.cms.gov/Patient/fd5099ab-c975-42f4-a9c1-0298b9aed153",
    "resource": {
      "resourceType": "Patient",
      "id": "fd5099ab-c975-42f4-a9c1-0298b9aed153",
      "meta": {
        "profile": [ "http://hl7.org/fhir/us/qicore/StructureDefinition/qicore-patient" ]
      },
      "text": {
        "status": "generated",
        "div": "<div xmlns=\"http://www.w3.org/1999/xhtml\"><div class=\"hapiHeaderText\">RiskAssessPsychFamilyEnc <b>NUMERPASS </b></div><table class=\"hapiPropertyTable\"><tbody><tr><td>Identifier</td><td>611d7229559c821433393e98d4ad09de</td></tr><tr><td>Date of birth</td><td><span>01 January 1996</span></td></tr></tbody></table></div>"
      },
      "extension": [ {
        "url": "http://hl7.org/fhir/us/core/StructureDefinition/us-core-race",
        "extension": [ {
          "url": "ombCategory",
          "valueCoding": {
            "system": "urn:oid:2.16.840.1.113883.6.238",
            "code": "1002-5",
            "display": "American Indian or Alaska Native",
            "userSelected": true
          }
        }, {
          "url": "text",
          "valueString": "American Indian or Alaska Native"
        } ]
      }, {
        "url": "http://hl7.org/fhir/us/core/StructureDefinition/us-core-ethnicity",
        "extension": [ {
          "url": "ombCategory",
          "valueCoding": {
            "system": "urn:oid:2.16.840.1.113883.6.238",
            "code": "2135-2",
            "display": "Hispanic or Latino",
            "userSelected": true
          }
        }, {
          "url": "text",
          "valueString": "Hispanic or Latino"
        } ]
      }, {
        "url": "http://hl7.org/fhir/us/core/StructureDefinition/us-core-sex",
        "valueCode": "248152002"
      } ],
      "identifier": [ {
        "type": {
          "coding": [ {
            "system": "http://terminology.hl7.org/CodeSystem/v2-0203",
            "code": "MR"
          } ]
        },
        "system": "https://bonnie-fhir.healthit.gov/",
        "value": "6109650498086b538055a0d8"
      } ],
      "active": true,
      "name": [ {
        "use": "usual",
        "family": "NUMPass",
        "given": [ "RiskAssessPsychotherEnc" ]
      } ],
      "gender": "unknown",
      "birthDate": "2016-01-01"
    },
    "request": {
      "method": "PUT",
      "url": "Patient/fd5099ab-c975-42f4-a9c1-0298b9aed153"
    }
  }, {
    "fullUrl": "https://madie.cms.gov/Encounter/274ddb04-b43d-47dd-a331-b146a2d334d8",
    "resource": {
      "resourceType": "Encounter",
      "id": "274ddb04-b43d-47dd-a331-b146a2d334d8",
      "meta": {
        "profile": [ "http://hl7.org/fhir/us/qicore/StructureDefinition/qicore-encounter" ]
      },
      "status": "finished",
      "class": {
        "system": "http://terminology.hl7.org/CodeSystem/v3-ActCode",
        "code": "AMB",
        "display": "ambulatory",
        "userSelected": true
      },
      "type": [ {
        "coding": [ {
          "system": "http://www.ama-assn.org/go/cpt",
          "code": "90853"
        } ]
      } ],
      "subject": {
        "reference": "Patient/fd5099ab-c975-42f4-a9c1-0298b9aed153"
      },
      "period": {
        "start": "2026-04-18T11:00:00.000+00:00",
        "end": "2026-04-18T11:30:00.000+00:00"
      },
      "length": {
        "value": 0.0,
        "unit": "days"
      },
      "reasonCode": [ {
        "coding": [ {
          "system": "http://snomed.info/sct",
          "version": "2023-09",
          "code": "191610000",
          "display": "Recurrent major depressive episodes, mild (disorder)",
          "userSelected": true
        } ]
      } ],
      "diagnosis": [ {
        "condition": {
          "reference": "Condition/b0a61064-0b84-4db7-9b1d-f43af1e8416f"
        },
        "use": {
          "coding": [ {
            "system": "http://snomed.info/sct",
            "code": "10811161000119107",
            "display": "Major Depressive Disorder-Active"
          } ]
        }
      } ]
    },
    "request": {
      "method": "PUT",
      "url": "Encounter/274ddb04-b43d-47dd-a331-b146a2d334d8"
    }
  }, {
    "fullUrl": "https://madie.cms.gov/Condition/b0a61064-0b84-4db7-9b1d-f43af1e8416f",
    "resource": {
      "resourceType": "Condition",
      "id": "b0a61064-0b84-4db7-9b1d-f43af1e8416f",
      "meta": {
        "profile": [ "http://hl7.org/fhir/us/qicore/StructureDefinition/qicore-condition" ]
      },
      "clinicalStatus": {
        "coding": [ {
          "system": "http://terminology.hl7.org/CodeSystem/condition-clinical",
          "code": "active",
          "display": "Active",
          "userSelected": true
        } ]
      },
      "verificationStatus": {
        "coding": [ {
          "system": "http://terminology.hl7.org/CodeSystem/condition-ver-status",
          "code": "confirmed",
          "display": "Confirmed",
          "userSelected": true
        } ]
      },
      "category": [ {
        "coding": [ {
          "system": "http://terminology.hl7.org/CodeSystem/condition-category",
          "code": "encounter-diagnosis",
          "display": "Encounter Diagnosis"
        } ]
      } ],
      "code": {
        "coding": [ {
          "system": "http://snomed.info/sct",
          "code": "2618002",
          "userSelected": true
        } ]
      },
      "subject": {
        "reference": "Patient/fd5099ab-c975-42f4-a9c1-0298b9aed153"
      },
      "recordedDate": "2026-04-18T08:00:00.000+00:00"
    },
    "request": {
      "method": "PUT",
      "url": "Condition/b0a61064-0b84-4db7-9b1d-f43af1e8416f"
    }
  }, {
    "fullUrl": "https://madie.cms.gov/Procedure/d661d4cb-4f42-47e5-8db1-a31f4c360406",
    "resource": {
      "resourceType": "Procedure",
      "id": "d661d4cb-4f42-47e5-8db1-a31f4c360406",
      "meta": {
        "profile": [ "http://hl7.org/fhir/us/qicore/StructureDefinition/qicore-procedure" ]
      },
      "extension": [ {
        "url": "http://hl7.org/fhir/us/qicore/StructureDefinition/qicore-recorded",
        "valueDateTime": "2026-04-18T11:01:00.000+00:00"
      } ],
      "status": "completed",
      "code": {
        "coding": [ {
          "system": "http://snomed.info/sct",
          "code": "225337009",
          "display": "Suicide risk assessment (procedure)",
          "userSelected": true
        } ]
      },
      "subject": {
        "reference": "Patient/fd5099ab-c975-42f4-a9c1-0298b9aed153"
      },
      "performedDateTime": "2026-04-18T11:01:00.000+00:00"
    },
    "request": {
      "method": "PUT",
      "url": "Procedure/d661d4cb-4f42-47e5-8db1-a31f4c360406"
    }
  }, {
    "fullUrl": "https://madie.cms.gov/Coverage/53185093-ce7b-49ce-9d39-edde6f472b4b",
    "resource": {
      "resourceType": "Coverage",
      "id": "53185093-ce7b-49ce-9d39-edde6f472b4b",
      "meta": {
        "profile": [ "http://hl7.org/fhir/us/qicore/StructureDefinition/qicore-coverage" ]
      },
      "status": "active",
      "type": {
        "coding": [ {
          "system": "https://nahdo.org/sopt",
          "code": "113",
          "userSelected": true
        } ]
      },
      "beneficiary": {
        "reference": "Patient/fd5099ab-c975-42f4-a9c1-0298b9aed153"
      },
      "period": {
        "start": "2026-04-18T11:00:00.000+00:00",
        "end": "2026-04-18T11:30:00.000+00:00"
      },
      "payor": [ {
        "reference": "Organization/e99e96ee-81c1-4675-98d3-fe348c09419e"
      } ]
    },
    "request": {
      "method": "PUT",
      "url": "Coverage/53185093-ce7b-49ce-9d39-edde6f472b4b"
    }
  }, {
    "fullUrl": "https://madie.cms.gov/Organization/e99e96ee-81c1-4675-98d3-fe348c09419e",
    "resource": {
      "resourceType": "Organization",
      "id": "e99e96ee-81c1-4675-98d3-fe348c09419e",
      "meta": {
        "profile": [ "http://hl7.org/fhir/us/qicore/StructureDefinition/qicore-organization" ]
      },
      "identifier": [ {
        "use": "temp",
        "system": "urn:oid:2.16.840.1.113883.4.4",
        "value": "21-3259825"
      } ],
      "active": true,
      "type": [ {
        "coding": [ {
          "system": "http://terminology.hl7.org/CodeSystem/organization-type",
          "code": "pay",
          "display": "Payer"
        } ]
      } ],
      "name": "Blue Cross Blue Shield of Texas",
      "telecom": [ {
        "system": "phone",
        "value": "(+1) 972-766-6900"
      } ],
      "address": [ {
        "use": "billing",
        "type": "postal",
        "line": [ "P.O. Box 660044" ],
        "city": "Dallas",
        "state": "TX",
        "postalCode": "75266-0044",
        "country": "USA"
      } ]
    },
    "request": {
      "method": "PUT",
      "url": "Organization/e99e96ee-81c1-4675-98d3-fe348c09419e"
    }
  }, {
    "fullUrl": "https://madie.cms.gov/Practitioner/d4b73e62-4cca-4b98-8939-a71f80c49cf9",
    "resource": {
      "resourceType": "Practitioner",
      "id": "d4b73e62-4cca-4b98-8939-a71f80c49cf9",
      "meta": {
        "profile": [ "http://hl7.org/fhir/us/qicore/StructureDefinition/qicore-practitioner" ]
      },
      "identifier": [ {
        "system": "http://hl7.org/fhir/sid/us-npi",
        "value": "123456"
      } ],
      "name": [ {
        "family": "Evil",
        "prefix": [ "Dr" ]
      } ]
    },
    "request": {
      "method": "PUT",
      "url": "Practitioner/d4b73e62-4cca-4b98-8939-a71f80c49cf9"
    }
  }, {
    "fullUrl": "https://madie.cms.gov/MeasureReport/7bd6f254-ce56-4ff9-b7eb-55f0bbd806d3",
    "resource": {
      "resourceType": "MeasureReport",
      "id": "7bd6f254-ce56-4ff9-b7eb-55f0bbd806d3",
      "meta": {
        "profile": [ "http://hl7.org/fhir/us/cqfmeasures/StructureDefinition/test-case-cqfm" ]
      },
      "contained": [ {
        "resourceType": "Parameters",
        "id": "04eef5cf-9c20-4fbd-a49f-2fac769e36f7-parameters",
        "parameter": [ {
          "name": "subject",
          "valueString": "fd5099ab-c975-42f4-a9c1-0298b9aed153"
        } ]
      } ],
      "extension": [ {
        "url": "http://hl7.org/fhir/StructureDefinition/cqf-inputParameters",
        "valueReference": {
          "reference": "#04eef5cf-9c20-4fbd-a49f-2fac769e36f7-parameters"
        }
      }, {
        "url": "http://hl7.org/fhir/us/cqfmeasures/StructureDefinition/cqfm-testCaseDescription",
        "valueMarkdown": "Patient completes suicide risk assessment during psychotherapy appointment in MP"
      } ],
      "modifierExtension": [ {
        "url": "http://hl7.org/fhir/us/cqfmeasures/StructureDefinition/cqfm-isTestCase",
        "valueBoolean": true
      } ],
      "status": "complete",
      "type": "individual",
      "measure": "https://madie.cms.gov/Measure/CMS177FHIRChildMDDSuicideAssmt",
      "period": {
        "start": "2026-01-01",
        "end": "2026-12-31"
      },
      "group": [ {
        "id": "Group_1",
        "population": [ {
          "id": "InitialPopulation_1",
          "code": {
            "coding": [ {
              "system": "http://terminology.hl7.org/CodeSystem/measure-population",
              "code": "initial-population",
              "display": "Initial Population"
            } ]
          },
          "count": 1
        }, {
          "id": "Denominator_1",
          "code": {
            "coding": [ {
              "system": "http://terminology.hl7.org/CodeSystem/measure-population",
              "code": "denominator",
              "display": "Denominator"
            } ]
          },
          "count": 1
        }, {
          "id": "Numerator_1",
          "code": {
            "coding": [ {
              "system": "http://terminology.hl7.org/CodeSystem/measure-population",
              "code": "numerator",
              "display": "Numerator"
            } ]
          },
          "count": 1
        } ],
        "measureScore": {
          "value": 0.0
        }
      } ],
      "evaluatedResource": [ {
        "reference": "Patient/fd5099ab-c975-42f4-a9c1-0298b9aed153"
      }, {
        "reference": "Encounter/274ddb04-b43d-47dd-a331-b146a2d334d8"
      }, {
        "reference": "Condition/b0a61064-0b84-4db7-9b1d-f43af1e8416f"
      }, {
        "reference": "Procedure/d661d4cb-4f42-47e5-8db1-a31f4c360406"
      }, {
        "reference": "Coverage/53185093-ce7b-49ce-9d39-edde6f472b4b"
      }, {
        "reference": "Organization/e99e96ee-81c1-4675-98d3-fe348c09419e"
      }, {
        "reference": "Practitioner/d4b73e62-4cca-4b98-8939-a71f80c49cf9"
      } ]
    },
    "request": {
      "method": "PUT",
      "url": "MeasureReport/7bd6f254-ce56-4ff9-b7eb-55f0bbd806d3"
    }
  } ]
}