{
  "resourceType": "Bundle",
  "id": "612e6ea602c62a011f2ef2b4",
  "type": "transaction",
  "entry": [ {
    "fullUrl": "https://madie.cms.gov/Patient/9cd5f0f5-5d45-4ba2-921c-37bd6e7822dd",
    "resource": {
      "resourceType": "Patient",
      "id": "9cd5f0f5-5d45-4ba2-921c-37bd6e7822dd",
      "meta": {
        "profile": [ "http://hl7.org/fhir/us/qicore/StructureDefinition/qicore-patient" ]
      },
      "text": {
        "status": "generated",
        "div": "<div xmlns=\"http://www.w3.org/1999/xhtml\"><div class=\"hapiHeaderText\">PtRefMOWarfarinOnAnesRlvntDT <b>NUMERPASS </b></div><table class=\"hapiPropertyTable\"><tbody><tr><td>Identifier</td><td>0605317a287832394eb791622c2564f2</td></tr><tr><td>Date of birth</td><td><span>03 March 1974</span></td></tr></tbody></table></div>"
      },
      "extension": [ {
        "url": "http://hl7.org/fhir/us/core/StructureDefinition/us-core-race",
        "extension": [ {
          "url": "ombCategory",
          "valueCoding": {
            "system": "urn:oid:2.16.840.1.113883.6.238",
            "code": "1002-5",
            "display": "American Indian or Alaska Native",
            "userSelected": true
          }
        }, {
          "url": "text",
          "valueString": "American Indian or Alaska Native"
        } ]
      }, {
        "url": "http://hl7.org/fhir/us/core/StructureDefinition/us-core-ethnicity",
        "extension": [ {
          "url": "ombCategory",
          "valueCoding": {
            "system": "urn:oid:2.16.840.1.113883.6.238",
            "code": "2135-2",
            "display": "Hispanic or Latino",
            "userSelected": true
          }
        }, {
          "url": "text",
          "valueString": "Hispanic or Latino"
        } ]
      } ],
      "identifier": [ {
        "type": {
          "coding": [ {
            "system": "http://terminology.hl7.org/CodeSystem/v2-0203",
            "code": "MR"
          } ]
        },
        "system": "https://bonnie-fhir.healthit.gov/",
        "value": "612e6ea602c62a011f2ef2b4"
      } ],
      "active": true,
      "name": [ {
        "use": "usual",
        "family": "NUMERPass",
        "given": [ "PtRefMOWarfarinOnAnesRlvntDT" ]
      } ],
      "gender": "female",
      "birthDate": "1975-03-03"
    },
    "request": {
      "method": "PUT",
      "url": "Patient/9cd5f0f5-5d45-4ba2-921c-37bd6e7822dd"
    }
  }, {
    "fullUrl": "https://madie.cms.gov/Encounter/911ef646-98b7-4fcd-80d3-b9a7737101b8",
    "resource": {
      "resourceType": "Encounter",
      "id": "911ef646-98b7-4fcd-80d3-b9a7737101b8",
      "meta": {
        "profile": [ "http://hl7.org/fhir/us/qicore/StructureDefinition/qicore-encounter" ]
      },
      "status": "finished",
      "class": {
        "system": "http://terminology.hl7.org/CodeSystem/v3-ActCode",
        "code": "IMP",
        "display": "inpatient encounter"
      },
      "type": [ {
        "coding": [ {
          "system": "http://snomed.info/sct",
          "code": "8715000"
        } ]
      } ],
      "subject": {
        "reference": "Patient/9cd5f0f5-5d45-4ba2-921c-37bd6e7822dd"
      },
      "period": {
        "start": "2026-12-04T08:00:00.000+00:00",
        "end": "2026-12-30T08:15:00.000+00:00"
      },
      "length": {
        "value": 26,
        "unit": "days"
      },
      "location": [ {
        "location": {
          "reference": "Location/4b4b232d-da5f-4ac0-933a-9d79bbbc2609"
        },
        "period": {
          "start": "2026-12-06T08:00:00.000+00:00",
          "end": "2026-12-08T08:15:00.000+00:00"
        }
      } ]
    },
    "request": {
      "method": "PUT",
      "url": "Encounter/911ef646-98b7-4fcd-80d3-b9a7737101b8"
    }
  }, {
    "fullUrl": "https://madie.cms.gov/Coverage/6e9d4441-e947-40a9-ad5a-f9e3d9290b12",
    "resource": {
      "resourceType": "Coverage",
      "id": "6e9d4441-e947-40a9-ad5a-f9e3d9290b12",
      "status": "active",
      "beneficiary": {
        "reference": "Patient/9cd5f0f5-5d45-4ba2-921c-37bd6e7822dd"
      },
      "period": {
        "start": "1975-03-03T08:00:00.000+00:00"
      },
      "payor": [ {
        "reference": "Organization/06eaf1b5-4303-4ce8-9efa-d4dba531b24c"
      } ]
    },
    "request": {
      "method": "PUT",
      "url": "Coverage/6e9d4441-e947-40a9-ad5a-f9e3d9290b12"
    }
  }, {
    "fullUrl": "https://madie.cms.gov/MedicationRequest/8df33928-8af9-460f-834a-401d2292afa6",
    "resource": {
      "resourceType": "MedicationRequest",
      "id": "8df33928-8af9-460f-834a-401d2292afa6",
      "meta": {
        "profile": [ "http://hl7.org/fhir/us/qicore/StructureDefinition/qicore-medicationnotrequested" ]
      },
      "status": "completed",
      "intent": "order",
      "category": [ {
        "coding": [ {
          "system": "http://terminology.hl7.org/CodeSystem/medicationrequest-category",
          "code": "community"
        } ]
      } ],
      "doNotPerform": true,
      "medicationCodeableConcept": {
        "coding": [ {
          "system": "http://www.nlm.nih.gov/research/umls/rxnorm",
          "code": "855288"
        } ]
      },
      "subject": {
        "reference": "Patient/9cd5f0f5-5d45-4ba2-921c-37bd6e7822dd"
      },
      "authoredOn": "2026-12-07T19:00:00.000+00:00",
      "requester": {
        "reference": "Practitioner/123456"
      },
      "reasonCode": [ {
        "coding": [ {
          "system": "http://snomed.info/sct",
          "code": "443390004",
          "display": "Refusal of treatment by patient (situation)",
          "userSelected": true
        } ]
      } ]
    },
    "request": {
      "method": "PUT",
      "url": "MedicationRequest/8df33928-8af9-460f-834a-401d2292afa6"
    }
  }, {
    "fullUrl": "https://madie.cms.gov/Procedure/e32fe37c-5e2d-4c3b-be45-4e5e6cef6bc9",
    "resource": {
      "resourceType": "Procedure",
      "id": "e32fe37c-5e2d-4c3b-be45-4e5e6cef6bc9",
      "meta": {
        "profile": [ "http://hl7.org/fhir/us/qicore/StructureDefinition/qicore-procedure" ]
      },
      "extension": [ {
        "url": "http://hl7.org/fhir/us/qicore/StructureDefinition/qicore-recorded",
        "valueDateTime": "2013-12-04T13:35:00.000+00:00"
      } ],
      "status": "completed",
      "code": {
        "coding": [ {
          "system": "http://snomed.info/sct",
          "code": "18946005"
        } ]
      },
      "subject": {
        "reference": "Patient/9cd5f0f5-5d45-4ba2-921c-37bd6e7822dd"
      },
      "performedDateTime": "2026-12-07T19:00:00.000+00:00"
    },
    "request": {
      "method": "PUT",
      "url": "Procedure/e32fe37c-5e2d-4c3b-be45-4e5e6cef6bc9"
    }
  }, {
    "fullUrl": "https://madie.cms.gov/Location/4b4b232d-da5f-4ac0-933a-9d79bbbc2609",
    "resource": {
      "resourceType": "Location",
      "id": "4b4b232d-da5f-4ac0-933a-9d79bbbc2609",
      "meta": {
        "profile": [ "http://hl7.org/fhir/us/qicore/StructureDefinition/qicore-location" ]
      },
      "identifier": [ {
        "use": "usual",
        "system": "http://exampleoflocation.com",
        "value": "B1-S.F2"
      } ],
      "name": "Medical Surgical East, first floor",
      "type": [ {
        "coding": [ {
          "system": "https://www.cdc.gov/nhsn/cdaportal/terminology/codesystem/hsloc.html",
          "code": "1025-6",
          "display": "Trauma Critical Care",
          "userSelected": true
        } ]
      } ]
    },
    "request": {
      "method": "PUT",
      "url": "Location/4b4b232d-da5f-4ac0-933a-9d79bbbc2609"
    }
  }, {
    "fullUrl": "https://madie.cms.gov/Organization/06eaf1b5-4303-4ce8-9efa-d4dba531b24c",
    "resource": {
      "resourceType": "Organization",
      "id": "06eaf1b5-4303-4ce8-9efa-d4dba531b24c",
      "meta": {
        "profile": [ "http://hl7.org/fhir/us/qicore/StructureDefinition/qicore-organization" ]
      },
      "identifier": [ {
        "use": "temp",
        "system": "urn:oid:2.16.840.1.113883.4.4",
        "value": "21-3259825"
      } ],
      "active": true,
      "type": [ {
        "coding": [ {
          "system": "http://terminology.hl7.org/CodeSystem/organization-type",
          "code": "pay",
          "display": "Payer"
        } ]
      } ],
      "name": "Blue Cross Blue Shield of Texas",
      "telecom": [ {
        "system": "phone",
        "value": "(+1) 972-766-6900"
      } ],
      "address": [ {
        "use": "billing",
        "type": "postal",
        "line": [ "P.O. Box 660044" ],
        "city": "Dallas",
        "state": "TX",
        "postalCode": "75266-0044",
        "country": "USA"
      } ]
    },
    "request": {
      "method": "PUT",
      "url": "Organization/06eaf1b5-4303-4ce8-9efa-d4dba531b24c"
    }
  }, {
    "fullUrl": "https://madie.cms.gov/Practitioner/fd6247a7-20e0-4003-8c24-40d97c8d8047",
    "resource": {
      "resourceType": "Practitioner",
      "id": "fd6247a7-20e0-4003-8c24-40d97c8d8047",
      "identifier": [ {
        "system": "http://hl7.org/fhir/sid/us-npi",
        "value": "123456"
      } ],
      "name": [ {
        "family": "Evil",
        "prefix": [ "Dr" ]
      } ]
    },
    "request": {
      "method": "PUT",
      "url": "Practitioner/fd6247a7-20e0-4003-8c24-40d97c8d8047"
    }
  }, {
    "fullUrl": "https://madie.cms.gov/MeasureReport/8c31ecf2-a6a8-4435-85b2-758ddb823b38",
    "resource": {
      "resourceType": "MeasureReport",
      "id": "8c31ecf2-a6a8-4435-85b2-758ddb823b38",
      "meta": {
        "profile": [ "http://hl7.org/fhir/us/cqfmeasures/StructureDefinition/test-case-cqfm" ]
      },
      "contained": [ {
        "resourceType": "Parameters",
        "id": "a86165c3-e831-4bbf-9958-a7ace4cb9a97-parameters",
        "parameter": [ {
          "name": "subject",
          "valueString": "9cd5f0f5-5d45-4ba2-921c-37bd6e7822dd"
        } ]
      } ],
      "extension": [ {
        "url": "http://hl7.org/fhir/StructureDefinition/cqf-inputParameters",
        "valueReference": {
          "reference": "#a86165c3-e831-4bbf-9958-a7ace4cb9a97-parameters"
        }
      }, {
        "url": "http://hl7.org/fhir/us/cqfmeasures/StructureDefinition/cqfm-testCaseDescription",
        "valueMarkdown": "warfarin not requested due to patient refusal concurrent with neuraxial anesthesia relevant DT\n"
      } ],
      "modifierExtension": [ {
        "url": "http://hl7.org/fhir/us/cqfmeasures/StructureDefinition/cqfm-isTestCase",
        "valueBoolean": true
      } ],
      "status": "complete",
      "type": "individual",
      "measure": "https://madie.cms.gov/Measure/CMS190FHIRVTEProphylaxisICU",
      "period": {
        "start": "2026-01-01",
        "end": "2026-12-31"
      },
      "group": [ {
        "id": "Group_1",
        "population": [ {
          "id": "InitialPopulation_1",
          "code": {
            "coding": [ {
              "system": "http://terminology.hl7.org/CodeSystem/measure-population",
              "code": "initial-population",
              "display": "Initial Population"
            } ]
          },
          "count": 1
        }, {
          "id": "Denominator_1",
          "code": {
            "coding": [ {
              "system": "http://terminology.hl7.org/CodeSystem/measure-population",
              "code": "denominator",
              "display": "Denominator"
            } ]
          },
          "count": 1
        }, {
          "id": "DenominatorExclusion_1",
          "code": {
            "coding": [ {
              "system": "http://terminology.hl7.org/CodeSystem/measure-population",
              "code": "denominator-exclusion",
              "display": "Denominator Exclusion"
            } ]
          },
          "count": 0
        }, {
          "id": "Numerator_1",
          "code": {
            "coding": [ {
              "system": "http://terminology.hl7.org/CodeSystem/measure-population",
              "code": "numerator",
              "display": "Numerator"
            } ]
          },
          "count": 1
        }, {
          "id": "DenominatorException_1",
          "code": {
            "coding": [ {
              "system": "http://terminology.hl7.org/CodeSystem/measure-population",
              "code": "denominator-exception",
              "display": "Denominator Exception"
            } ]
          },
          "count": 0
        } ],
        "measureScore": {
          "value": 0.0
        }
      } ],
      "evaluatedResource": [ {
        "reference": "Patient/9cd5f0f5-5d45-4ba2-921c-37bd6e7822dd"
      }, {
        "reference": "Encounter/911ef646-98b7-4fcd-80d3-b9a7737101b8"
      }, {
        "reference": "Coverage/6e9d4441-e947-40a9-ad5a-f9e3d9290b12"
      }, {
        "reference": "MedicationRequest/8df33928-8af9-460f-834a-401d2292afa6"
      }, {
        "reference": "Procedure/e32fe37c-5e2d-4c3b-be45-4e5e6cef6bc9"
      }, {
        "reference": "Location/4b4b232d-da5f-4ac0-933a-9d79bbbc2609"
      }, {
        "reference": "Organization/06eaf1b5-4303-4ce8-9efa-d4dba531b24c"
      }, {
        "reference": "Practitioner/fd6247a7-20e0-4003-8c24-40d97c8d8047"
      } ]
    },
    "request": {
      "method": "PUT",
      "url": "MeasureReport/8c31ecf2-a6a8-4435-85b2-758ddb823b38"
    }
  } ]
}