{
  "resourceType": "Bundle",
  "id": "6323489059967e30c06d0774",
  "type": "transaction",
  "entry": [ {
    "fullUrl": "https://madie.cms.gov/Patient/b792f3b9-b8f5-4d5c-ad66-f580b47ebffd",
    "resource": {
      "resourceType": "Patient",
      "id": "b792f3b9-b8f5-4d5c-ad66-f580b47ebffd",
      "meta": {
        "profile": [ "http://hl7.org/fhir/us/qicore/StructureDefinition/qicore-patient" ]
      },
      "extension": [ {
        "url": "http://hl7.org/fhir/us/core/StructureDefinition/us-core-race",
        "extension": [ {
          "url": "ombCategory",
          "valueCoding": {
            "system": "urn:oid:2.16.840.1.113883.6.238",
            "code": "1002-5",
            "display": "American Indian or Alaska Native",
            "userSelected": true
          }
        }, {
          "url": "text",
          "valueString": "American Indian or Alaska Native"
        } ]
      }, {
        "url": "http://hl7.org/fhir/us/core/StructureDefinition/us-core-ethnicity",
        "extension": [ {
          "url": "ombCategory",
          "valueCoding": {
            "system": "urn:oid:2.16.840.1.113883.6.238",
            "code": "2135-2",
            "display": "Hispanic or Latino",
            "userSelected": true
          }
        }, {
          "url": "text",
          "valueString": "Hispanic or Latino"
        } ]
      } ],
      "identifier": [ {
        "system": "http://hospital.smarthealthit.org",
        "value": "999999999"
      } ],
      "name": [ {
        "family": "NUMERFail",
        "given": [ "MedicationIntentPlan" ]
      } ],
      "gender": "male",
      "birthDate": "2006-09-15"
    },
    "request": {
      "method": "PUT",
      "url": "Patient/b792f3b9-b8f5-4d5c-ad66-f580b47ebffd"
    }
  }, {
    "fullUrl": "https://madie.cms.gov/Encounter/193facde-b413-4ce2-8b3b-d4329740b636",
    "resource": {
      "resourceType": "Encounter",
      "id": "193facde-b413-4ce2-8b3b-d4329740b636",
      "meta": {
        "profile": [ "http://hl7.org/fhir/us/qicore/StructureDefinition/qicore-encounter" ]
      },
      "status": "finished",
      "class": {
        "system": "http://terminology.hl7.org/CodeSystem/v3-ActCode",
        "code": "IMP",
        "display": "inpatient encounter"
      },
      "type": [ {
        "coding": [ {
          "system": "http://snomed.info/sct",
          "code": "183452005",
          "display": "Emergency hospital admission (procedure)",
          "userSelected": true
        } ]
      } ],
      "subject": {
        "reference": "Patient/b792f3b9-b8f5-4d5c-ad66-f580b47ebffd"
      },
      "period": {
        "start": "2026-01-01T00:00:00.000+00:00",
        "end": "2026-01-03T00:00:00.000+00:00"
      }
    },
    "request": {
      "method": "PUT",
      "url": "Encounter/193facde-b413-4ce2-8b3b-d4329740b636"
    }
  }, {
    "fullUrl": "https://madie.cms.gov/MedicationRequest/dc269687-c456-4b61-8800-2fef4abf3f9e",
    "resource": {
      "resourceType": "MedicationRequest",
      "id": "dc269687-c456-4b61-8800-2fef4abf3f9e",
      "meta": {
        "profile": [ "http://hl7.org/fhir/us/qicore/StructureDefinition/qicore-medicationrequest" ]
      },
      "status": "active",
      "intent": "plan",
      "category": [ {
        "coding": [ {
          "system": "http://terminology.hl7.org/CodeSystem/medicationrequest-category",
          "code": "discharge",
          "display": "Discharge",
          "userSelected": true
        } ]
      } ],
      "doNotPerform": false,
      "medicationCodeableConcept": {
        "coding": [ {
          "system": "http://www.nlm.nih.gov/research/umls/rxnorm",
          "code": "1014632",
          "display": "acetaminophen 300 MG / oxycodone hydrochloride 7.5 MG Oral Tablet",
          "userSelected": true
        } ]
      },
      "subject": {
        "reference": "Patient/b792f3b9-b8f5-4d5c-ad66-f580b47ebffd"
      },
      "authoredOn": "2026-01-03T00:00:00.000+00:00",
      "requester": {
        "reference": "Practitioner/ce089dbc-3b2c-4c94-8b67-5f6b78c21f13"
      }
    },
    "request": {
      "method": "PUT",
      "url": "MedicationRequest/dc269687-c456-4b61-8800-2fef4abf3f9e"
    }
  }, {
    "fullUrl": "https://madie.cms.gov/Practitioner/ce089dbc-3b2c-4c94-8b67-5f6b78c21f13",
    "resource": {
      "resourceType": "Practitioner",
      "id": "ce089dbc-3b2c-4c94-8b67-5f6b78c21f13",
      "meta": {
        "profile": [ "http://hl7.org/fhir/us/qicore/StructureDefinition/qicore-practitioner" ]
      },
      "identifier": [ {
        "system": "http://hl7.org/fhir/sid/us-npi",
        "value": "9999999896"
      } ],
      "active": true,
      "name": [ {
        "family": "Ramires",
        "given": [ "Alma" ],
        "prefix": [ "Dr" ]
      } ],
      "address": [ {
        "use": "home",
        "line": [ "534 Erewhon St" ],
        "city": "Netherville",
        "state": "IN",
        "postalCode": "46131"
      } ],
      "qualification": [ {
        "identifier": [ {
          "system": "http://goodhealth.org/prIdentifier",
          "value": "12345"
        } ],
        "code": {
          "coding": [ {
            "system": "http://terminology.hl7.org/CodeSystem/v2-0360|2.7",
            "code": "BS",
            "display": "Bachelor of Science"
          } ],
          "text": "Bachelor of Science"
        },
        "period": {
          "start": "1995"
        },
        "issuer": {
          "display": "Example University"
        }
      } ]
    },
    "request": {
      "method": "PUT",
      "url": "Practitioner/ce089dbc-3b2c-4c94-8b67-5f6b78c21f13"
    }
  }, {
    "fullUrl": "https://madie.cms.gov/MedicationRequest/74f4ec57-6fd7-481f-9371-7fcf9a1e4aff",
    "resource": {
      "resourceType": "MedicationRequest",
      "id": "74f4ec57-6fd7-481f-9371-7fcf9a1e4aff",
      "meta": {
        "profile": [ "http://hl7.org/fhir/us/qicore/StructureDefinition/qicore-medicationrequest" ]
      },
      "status": "active",
      "intent": "order",
      "category": [ {
        "coding": [ {
          "system": "http://terminology.hl7.org/CodeSystem/medicationrequest-category",
          "code": "discharge",
          "display": "Discharge",
          "userSelected": true
        } ]
      } ],
      "doNotPerform": false,
      "medicationCodeableConcept": {
        "coding": [ {
          "system": "http://www.nlm.nih.gov/research/umls/rxnorm",
          "code": "863845",
          "display": "Abuse-Deterrent morphine sulfate 100 MG / naltrexone hydrochloride 4 MG Extended Release Oral Capsule",
          "userSelected": true
        } ]
      },
      "subject": {
        "reference": "Patient/b792f3b9-b8f5-4d5c-ad66-f580b47ebffd"
      },
      "authoredOn": "2026-01-03T00:00:00.000+00:00",
      "requester": {
        "reference": "Practitioner/ce089dbc-3b2c-4c94-8b67-5f6b78c21f13"
      }
    },
    "request": {
      "method": "PUT",
      "url": "MedicationRequest/74f4ec57-6fd7-481f-9371-7fcf9a1e4aff"
    }
  }, {
    "fullUrl": "https://madie.cms.gov/Coverage/efa0b59e-dbce-4c57-8525-c1be8c86e750",
    "resource": {
      "resourceType": "Coverage",
      "id": "efa0b59e-dbce-4c57-8525-c1be8c86e750",
      "meta": {
        "profile": [ "http://hl7.org/fhir/us/qicore/StructureDefinition/qicore-coverage" ]
      },
      "status": "active",
      "subscriberId": "523435",
      "beneficiary": {
        "reference": "Patient/b792f3b9-b8f5-4d5c-ad66-f580b47ebffd"
      },
      "relationship": {
        "coding": [ {
          "system": "http://terminology.hl7.org/CodeSystem/subscriber-relationship",
          "code": "self"
        } ]
      },
      "payor": [ {
        "reference": "Organization/88040eeb-5a04-46aa-bb98-0edb83ac1d76"
      } ]
    },
    "request": {
      "method": "PUT",
      "url": "Coverage/efa0b59e-dbce-4c57-8525-c1be8c86e750"
    }
  }, {
    "fullUrl": "https://madie.cms.gov/Organization/88040eeb-5a04-46aa-bb98-0edb83ac1d76",
    "resource": {
      "resourceType": "Organization",
      "id": "88040eeb-5a04-46aa-bb98-0edb83ac1d76",
      "meta": {
        "profile": [ "http://hl7.org/fhir/us/qicore/StructureDefinition/qicore-organization" ]
      },
      "identifier": [ {
        "use": "temp",
        "system": "urn:oid:2.16.840.1.113883.4.4",
        "value": "21-3259825"
      } ],
      "active": true,
      "type": [ {
        "coding": [ {
          "system": "http://terminology.hl7.org/CodeSystem/organization-type",
          "code": "pay",
          "display": "Payer"
        } ]
      } ],
      "name": "Blue Cross Blue Shield of Texas",
      "telecom": [ {
        "system": "phone",
        "value": "(+1) 972-766-6900"
      } ],
      "address": [ {
        "use": "billing",
        "type": "postal",
        "line": [ "P.O. Box 660044" ],
        "city": "Dallas",
        "state": "TX",
        "postalCode": "75266-0044",
        "country": "USA"
      } ]
    },
    "request": {
      "method": "PUT",
      "url": "Organization/88040eeb-5a04-46aa-bb98-0edb83ac1d76"
    }
  }, {
    "fullUrl": "https://madie.cms.gov/MeasureReport/17b76aec-5bec-4fd4-ab79-8a00efc64346",
    "resource": {
      "resourceType": "MeasureReport",
      "id": "17b76aec-5bec-4fd4-ab79-8a00efc64346",
      "meta": {
        "profile": [ "http://hl7.org/fhir/us/cqfmeasures/StructureDefinition/test-case-cqfm" ]
      },
      "contained": [ {
        "resourceType": "Parameters",
        "id": "0f738b2c-9ff2-4cab-ba0a-76840567bebc-parameters",
        "parameter": [ {
          "name": "subject",
          "valueString": "b792f3b9-b8f5-4d5c-ad66-f580b47ebffd"
        } ]
      } ],
      "extension": [ {
        "url": "http://hl7.org/fhir/StructureDefinition/cqf-inputParameters",
        "valueReference": {
          "reference": "#0f738b2c-9ff2-4cab-ba0a-76840567bebc-parameters"
        }
      }, {
        "url": "http://hl7.org/fhir/us/cqfmeasures/StructureDefinition/cqfm-testCaseDescription",
        "valueMarkdown": "Encounter during MP, 2 opioids but one has an intent of 'plan' instead of order (MedicationRequest-1)"
      } ],
      "modifierExtension": [ {
        "url": "http://hl7.org/fhir/us/cqfmeasures/StructureDefinition/cqfm-isTestCase",
        "valueBoolean": true
      } ],
      "status": "complete",
      "type": "individual",
      "measure": "https://madie.cms.gov/Measure/CMS506FHIRSafeUseofOpioids",
      "period": {
        "start": "2026-01-01",
        "end": "2026-12-31"
      },
      "group": [ {
        "id": "Group_1",
        "population": [ {
          "id": "InitialPopulation_1",
          "code": {
            "coding": [ {
              "system": "http://terminology.hl7.org/CodeSystem/measure-population",
              "code": "initial-population",
              "display": "Initial Population"
            } ]
          },
          "count": 1
        }, {
          "id": "Denominator_1",
          "code": {
            "coding": [ {
              "system": "http://terminology.hl7.org/CodeSystem/measure-population",
              "code": "denominator",
              "display": "Denominator"
            } ]
          },
          "count": 1
        }, {
          "id": "DenominatorExclusion_1",
          "code": {
            "coding": [ {
              "system": "http://terminology.hl7.org/CodeSystem/measure-population",
              "code": "denominator-exclusion",
              "display": "Denominator Exclusion"
            } ]
          },
          "count": 0
        }, {
          "id": "Numerator_1",
          "code": {
            "coding": [ {
              "system": "http://terminology.hl7.org/CodeSystem/measure-population",
              "code": "numerator",
              "display": "Numerator"
            } ]
          },
          "count": 0
        } ],
        "measureScore": {
          "value": 0.0
        }
      } ],
      "evaluatedResource": [ {
        "reference": "Patient/b792f3b9-b8f5-4d5c-ad66-f580b47ebffd"
      }, {
        "reference": "Encounter/193facde-b413-4ce2-8b3b-d4329740b636"
      }, {
        "reference": "MedicationRequest/dc269687-c456-4b61-8800-2fef4abf3f9e"
      }, {
        "reference": "Practitioner/ce089dbc-3b2c-4c94-8b67-5f6b78c21f13"
      }, {
        "reference": "MedicationRequest/74f4ec57-6fd7-481f-9371-7fcf9a1e4aff"
      }, {
        "reference": "Coverage/efa0b59e-dbce-4c57-8525-c1be8c86e750"
      }, {
        "reference": "Organization/88040eeb-5a04-46aa-bb98-0edb83ac1d76"
      } ]
    },
    "request": {
      "method": "PUT",
      "url": "MeasureReport/17b76aec-5bec-4fd4-ab79-8a00efc64346"
    }
  } ]
}