{
  "resourceType": "Bundle",
  "id": "tests-223bc449-fc6b-4636-b392-3613761ee5c8-bundle",
  "type": "transaction",
  "entry": [ {
    "fullUrl": "https://madie.cms.gov/Encounter/dfacb965-298e-4e17-8ebc-66823b809bc5",
    "resource": {
      "resourceType": "Encounter",
      "id": "dfacb965-298e-4e17-8ebc-66823b809bc5",
      "meta": {
        "profile": [ "http://hl7.org/fhir/us/qicore/StructureDefinition/qicore-encounter" ]
      },
      "status": "finished",
      "class": {
        "system": "http://terminology.hl7.org/CodeSystem/v3-ActCode",
        "code": "IMP",
        "display": "inpatient encounter"
      },
      "type": [ {
        "coding": [ {
          "system": "http://snomed.info/sct",
          "code": "112689000",
          "display": "Hospital admission, elective, with complete pre-admission work-up"
        } ],
        "text": "Hospital admission, elective, with complete pre-admission work-up"
      } ],
      "priority": {
        "coding": [ {
          "system": "http://snomed.info/sct",
          "code": "103390000"
        } ]
      },
      "subject": {
        "reference": "Patient/223bc449-fc6b-4636-b392-3613761ee5c8"
      },
      "period": {
        "start": "2026-04-10T08:00:00.000+00:00",
        "end": "2026-04-18T08:15:00.000+00:00"
      }
    },
    "request": {
      "method": "PUT",
      "url": "Encounter/dfacb965-298e-4e17-8ebc-66823b809bc5"
    }
  }, {
    "fullUrl": "https://madie.cms.gov/Procedure/510e1cb7-7178-4a2c-9b4c-6d76d4276103",
    "resource": {
      "resourceType": "Procedure",
      "id": "510e1cb7-7178-4a2c-9b4c-6d76d4276103",
      "meta": {
        "profile": [ "http://hl7.org/fhir/us/qicore/StructureDefinition/qicore-procedure" ]
      },
      "extension": [ {
        "url": "http://hl7.org/fhir/us/qicore/StructureDefinition/qicore-recorded",
        "valueDateTime": "2026-04-13T11:10:30.000+00:00"
      } ],
      "status": "completed",
      "code": {
        "coding": [ {
          "system": "http://snomed.info/sct",
          "code": "243141005",
          "display": "Mechanically assisted spontaneous ventilation"
        } ],
        "text": "Mechanically assisted spontaneous ventilation"
      },
      "subject": {
        "reference": "Patient/223bc449-fc6b-4636-b392-3613761ee5c8"
      },
      "performedDateTime": "2026-04-13T11:00:00.000+00:00"
    },
    "request": {
      "method": "PUT",
      "url": "Procedure/510e1cb7-7178-4a2c-9b4c-6d76d4276103"
    }
  }, {
    "fullUrl": "https://madie.cms.gov/Procedure/7d5335b4-1a34-4b87-95f6-2ed2b7284541",
    "resource": {
      "resourceType": "Procedure",
      "id": "7d5335b4-1a34-4b87-95f6-2ed2b7284541",
      "meta": {
        "profile": [ "http://hl7.org/fhir/us/qicore/StructureDefinition/qicore-procedure" ]
      },
      "extension": [ {
        "url": "http://hl7.org/fhir/us/qicore/StructureDefinition/qicore-recorded",
        "valueDateTime": "2026-04-11T08:10:00.000+00:00"
      } ],
      "status": "completed",
      "category": {
        "coding": [ {
          "system": "http://snomed.info/sct",
          "code": "18286008",
          "display": "General or neuraxial anesthesia"
        } ]
      },
      "code": {
        "coding": [ {
          "system": "http://snomed.info/sct",
          "code": "112943005",
          "display": "Epidural injection of anesthetic substance, diagnostic, caudal, continuous"
        } ]
      },
      "subject": {
        "reference": "Patient/223bc449-fc6b-4636-b392-3613761ee5c8"
      },
      "performedPeriod": {
        "start": "2026-04-11T08:00:00.000+00:00",
        "end": "2026-04-11T10:15:00.000+00:00"
      }
    },
    "request": {
      "method": "PUT",
      "url": "Procedure/7d5335b4-1a34-4b87-95f6-2ed2b7284541"
    }
  }, {
    "fullUrl": "https://madie.cms.gov/Patient/223bc449-fc6b-4636-b392-3613761ee5c8",
    "resource": {
      "resourceType": "Patient",
      "id": "223bc449-fc6b-4636-b392-3613761ee5c8",
      "meta": {
        "profile": [ "http://hl7.org/fhir/us/qicore/StructureDefinition/qicore-patient" ]
      },
      "extension": [ {
        "url": "http://hl7.org/fhir/us/core/StructureDefinition/us-core-race",
        "extension": [ {
          "url": "ombCategory",
          "valueCoding": {
            "system": "urn:oid:2.16.840.1.113883.6.238",
            "code": "2054-5",
            "display": "Black or African American",
            "userSelected": true
          }
        }, {
          "url": "text",
          "valueString": "Black or African American"
        } ]
      }, {
        "url": "http://hl7.org/fhir/us/core/StructureDefinition/us-core-ethnicity",
        "extension": [ {
          "url": "ombCategory",
          "valueCoding": {
            "system": "urn:oid:2.16.840.1.113883.6.238",
            "code": "2186-5",
            "display": "Not Hispanic or Latino",
            "userSelected": true
          }
        }, {
          "url": "text",
          "valueString": "Not Hispanic or Latino"
        } ]
      } ],
      "identifier": [ {
        "type": {
          "coding": [ {
            "system": "http://terminology.hl7.org/CodeSystem/v2-0203",
            "code": "MR"
          } ]
        },
        "system": "https://bonnie-fhir.healthit.gov/",
        "value": "61152a3b98086b7a79cbd7c1"
      } ],
      "active": true,
      "name": [ {
        "use": "usual",
        "family": "NUMERPass",
        "given": [ "Num4-2MVGT48HrsAfterORNoInterruptions" ]
      } ],
      "gender": "female",
      "birthDate": "1966-07-12"
    },
    "request": {
      "method": "PUT",
      "url": "Patient/223bc449-fc6b-4636-b392-3613761ee5c8"
    }
  }, {
    "fullUrl": "https://madie.cms.gov/Procedure/2d8be4f4-98a4-44bd-bd0f-76f834cd26d3",
    "resource": {
      "resourceType": "Procedure",
      "id": "2d8be4f4-98a4-44bd-bd0f-76f834cd26d3",
      "meta": {
        "profile": [ "http://hl7.org/fhir/us/qicore/StructureDefinition/qicore-procedure" ]
      },
      "extension": [ {
        "url": "http://hl7.org/fhir/us/qicore/StructureDefinition/qicore-recorded",
        "valueDateTime": "2026-04-15T08:10:00.000+00:00"
      } ],
      "status": "completed",
      "category": {
        "coding": [ {
          "system": "http://snomed.info/sct",
          "code": "18286008",
          "display": "General or neuraxial anesthesia"
        } ]
      },
      "code": {
        "coding": [ {
          "system": "http://snomed.info/sct",
          "code": "112943005",
          "display": "Epidural injection of anesthetic substance, diagnostic, caudal, continuous"
        } ]
      },
      "subject": {
        "reference": "Patient/223bc449-fc6b-4636-b392-3613761ee5c8"
      },
      "performedPeriod": {
        "start": "2026-04-15T08:00:00.000+00:00",
        "end": "2026-04-15T09:15:00.000+00:00"
      }
    },
    "request": {
      "method": "PUT",
      "url": "Procedure/2d8be4f4-98a4-44bd-bd0f-76f834cd26d3"
    }
  }, {
    "fullUrl": "https://madie.cms.gov/Procedure/569694c4-7fb5-47ee-9431-186b4028c32a",
    "resource": {
      "resourceType": "Procedure",
      "id": "569694c4-7fb5-47ee-9431-186b4028c32a",
      "meta": {
        "profile": [ "http://hl7.org/fhir/us/qicore/StructureDefinition/qicore-procedure" ]
      },
      "extension": [ {
        "url": "http://hl7.org/fhir/us/qicore/StructureDefinition/qicore-recorded",
        "valueDateTime": "2026-04-17T10:10:30.000+00:00"
      } ],
      "status": "completed",
      "code": {
        "coding": [ {
          "system": "http://snomed.info/sct",
          "code": "243141005",
          "display": "Mechanically assisted spontaneous ventilation"
        } ],
        "text": "Mechanically assisted spontaneous ventilation"
      },
      "subject": {
        "reference": "Patient/223bc449-fc6b-4636-b392-3613761ee5c8"
      },
      "performedDateTime": "2026-04-17T10:00:00.000+00:00"
    },
    "request": {
      "method": "PUT",
      "url": "Procedure/569694c4-7fb5-47ee-9431-186b4028c32a"
    }
  }, {
    "fullUrl": "https://madie.cms.gov/MeasureReport/22a2974d-6d5c-4133-91f3-c5fe1b6443d0",
    "resource": {
      "resourceType": "MeasureReport",
      "id": "22a2974d-6d5c-4133-91f3-c5fe1b6443d0",
      "meta": {
        "profile": [ "http://hl7.org/fhir/us/cqfmeasures/StructureDefinition/test-case-cqfm" ]
      },
      "contained": [ {
        "resourceType": "Parameters",
        "id": "64c425a9-9848-42d9-bd21-33f15e4a72f3-parameters",
        "parameter": [ {
          "name": "subject",
          "valueString": "223bc449-fc6b-4636-b392-3613761ee5c8"
        } ]
      } ],
      "extension": [ {
        "url": "http://hl7.org/fhir/StructureDefinition/cqf-inputParameters",
        "valueReference": {
          "reference": "#64c425a9-9848-42d9-bd21-33f15e4a72f3-parameters"
        }
      }, {
        "url": "http://hl7.org/fhir/us/cqfmeasures/StructureDefinition/cqfm-testCaseDescription",
        "valueMarkdown": "Elective hospitalization with procedure, MV relevant DT > 48 hours after end of first and second OR w/no interruptions. Meets Numerator. "
      } ],
      "modifierExtension": [ {
        "url": "http://hl7.org/fhir/us/cqfmeasures/StructureDefinition/cqfm-isTestCase",
        "valueBoolean": true
      } ],
      "status": "complete",
      "type": "individual",
      "measure": "https://madie.cms.gov/Measure/CMS1218FHIRHHRF",
      "period": {
        "start": "2026-01-01",
        "end": "2026-12-31"
      },
      "group": [ {
        "id": "Group_1",
        "population": [ {
          "id": "InitialPopulation_1",
          "code": {
            "coding": [ {
              "system": "http://terminology.hl7.org/CodeSystem/measure-population",
              "code": "initial-population",
              "display": "Initial Population"
            } ]
          },
          "count": 1
        }, {
          "id": "Denominator_1",
          "code": {
            "coding": [ {
              "system": "http://terminology.hl7.org/CodeSystem/measure-population",
              "code": "denominator",
              "display": "Denominator"
            } ]
          },
          "count": 1
        }, {
          "id": "DenominatorExclusion_1",
          "code": {
            "coding": [ {
              "system": "http://terminology.hl7.org/CodeSystem/measure-population",
              "code": "denominator-exclusion",
              "display": "Denominator Exclusion"
            } ]
          },
          "count": 0
        }, {
          "id": "Numerator_1",
          "code": {
            "coding": [ {
              "system": "http://terminology.hl7.org/CodeSystem/measure-population",
              "code": "numerator",
              "display": "Numerator"
            } ]
          },
          "count": 1
        } ],
        "measureScore": {
          "value": 0.0
        }
      } ],
      "evaluatedResource": [ {
        "reference": "Encounter/dfacb965-298e-4e17-8ebc-66823b809bc5"
      }, {
        "reference": "Procedure/510e1cb7-7178-4a2c-9b4c-6d76d4276103"
      }, {
        "reference": "Procedure/7d5335b4-1a34-4b87-95f6-2ed2b7284541"
      }, {
        "reference": "Patient/223bc449-fc6b-4636-b392-3613761ee5c8"
      }, {
        "reference": "Procedure/2d8be4f4-98a4-44bd-bd0f-76f834cd26d3"
      }, {
        "reference": "Procedure/569694c4-7fb5-47ee-9431-186b4028c32a"
      } ]
    },
    "request": {
      "method": "PUT",
      "url": "MeasureReport/22a2974d-6d5c-4133-91f3-c5fe1b6443d0"
    }
  } ]
}