{
  "resourceType": "Bundle",
  "id": "62fa573ff4a8c3cd9f45539e",
  "type": "transaction",
  "entry": [ {
    "fullUrl": "https://madie.cms.gov/Patient/8cfb2747-a46d-4348-9e21-5ef3417e524a",
    "resource": {
      "resourceType": "Patient",
      "id": "8cfb2747-a46d-4348-9e21-5ef3417e524a",
      "meta": {
        "profile": [ "http://hl7.org/fhir/us/qicore/StructureDefinition/qicore-patient" ]
      },
      "extension": [ {
        "url": "http://hl7.org/fhir/us/core/StructureDefinition/us-core-race",
        "extension": [ {
          "url": "ombCategory",
          "valueCoding": {
            "system": "urn:oid:2.16.840.1.113883.6.238",
            "code": "2028-9",
            "display": "Asian",
            "userSelected": true
          }
        }, {
          "url": "text",
          "valueString": "Asian"
        } ]
      }, {
        "url": "http://hl7.org/fhir/us/core/StructureDefinition/us-core-ethnicity",
        "extension": [ {
          "url": "ombCategory",
          "valueCoding": {
            "system": "urn:oid:2.16.840.1.113883.6.238",
            "code": "2186-5",
            "display": "Not Hispanic or Latino",
            "userSelected": true
          }
        }, {
          "url": "text",
          "valueString": "Not Hispanic or Latino"
        } ]
      } ],
      "identifier": [ {
        "type": {
          "coding": [ {
            "system": "http://terminology.hl7.org/CodeSystem/v2-0203",
            "code": "MR"
          } ]
        },
        "system": "https://bonnie-fhir.healthit.gov/",
        "value": "62fa573ff4a8c3cd9f45539e"
      } ],
      "name": [ {
        "family": "NUMERFail",
        "given": [ "KidneyPanelPerformedNoValue" ]
      } ],
      "gender": "male",
      "birthDate": "2006-12-01"
    },
    "request": {
      "method": "PUT",
      "url": "Patient/8cfb2747-a46d-4348-9e21-5ef3417e524a"
    }
  }, {
    "fullUrl": "https://madie.cms.gov/Condition/b731bcc3-d990-4509-a563-7350989d360a",
    "resource": {
      "resourceType": "Condition",
      "id": "b731bcc3-d990-4509-a563-7350989d360a",
      "meta": {
        "profile": [ "http://hl7.org/fhir/us/qicore/StructureDefinition/qicore-condition-problems-health-concerns" ]
      },
      "clinicalStatus": {
        "coding": [ {
          "system": "http://terminology.hl7.org/CodeSystem/condition-clinical",
          "code": "active",
          "display": "active",
          "userSelected": true
        } ]
      },
      "category": [ {
        "coding": [ {
          "system": "http://terminology.hl7.org/CodeSystem/condition-category",
          "code": "problem-list-item",
          "display": "Problem List Item",
          "userSelected": true
        } ]
      } ],
      "code": {
        "coding": [ {
          "system": "http://snomed.info/sct",
          "version": "2021-09",
          "code": "102781000119107",
          "display": "Sensory neuropathy due to type 1 diabetes mellitus (disorder)",
          "userSelected": true
        } ]
      },
      "subject": {
        "reference": "Patient/8cfb2747-a46d-4348-9e21-5ef3417e524a"
      },
      "onsetDateTime": "2025-12-31T08:00:00.000+00:00"
    },
    "request": {
      "method": "PUT",
      "url": "Condition/b731bcc3-d990-4509-a563-7350989d360a"
    }
  }, {
    "fullUrl": "https://madie.cms.gov/Encounter/0913373e-9c78-43a5-9261-7f91304dc27e",
    "resource": {
      "resourceType": "Encounter",
      "id": "0913373e-9c78-43a5-9261-7f91304dc27e",
      "meta": {
        "profile": [ "http://hl7.org/fhir/us/qicore/StructureDefinition/qicore-encounter" ]
      },
      "status": "finished",
      "class": {
        "system": "http://terminology.hl7.org/CodeSystem/v3-ActCode",
        "code": "AMB",
        "display": "ambulatory",
        "userSelected": true
      },
      "type": [ {
        "coding": [ {
          "system": "http://snomed.info/sct",
          "version": "2021-09",
          "code": "185463005",
          "display": "Visit out of hours (procedure)",
          "userSelected": true
        } ]
      } ],
      "subject": {
        "reference": "Patient/8cfb2747-a46d-4348-9e21-5ef3417e524a"
      },
      "period": {
        "start": "2026-08-15T08:00:00.000+00:00",
        "end": "2026-08-15T08:15:00.000+00:00"
      }
    },
    "request": {
      "method": "PUT",
      "url": "Encounter/0913373e-9c78-43a5-9261-7f91304dc27e"
    }
  }, {
    "fullUrl": "https://madie.cms.gov/Observation/ba8a1ac4-791e-4e69-9cc8-0dcde0220c1d",
    "resource": {
      "resourceType": "Observation",
      "id": "ba8a1ac4-791e-4e69-9cc8-0dcde0220c1d",
      "meta": {
        "profile": [ "http://hl7.org/fhir/us/qicore/StructureDefinition/qicore-observation-lab" ]
      },
      "status": "final",
      "category": [ {
        "coding": [ {
          "system": "http://terminology.hl7.org/CodeSystem/observation-category",
          "code": "laboratory",
          "display": "Laboratory"
        } ],
        "text": "Laboratory"
      } ],
      "code": {
        "coding": [ {
          "system": "http://loinc.org",
          "version": "2.71",
          "code": "48642-3",
          "display": "Glomerular filtration rate [Volume Rate/Area] in Serum, Plasma or Blood by Creatinine-based formula (MDRD)/1.73 sq M among non black population",
          "userSelected": true
        } ]
      },
      "subject": {
        "reference": "Patient/8cfb2747-a46d-4348-9e21-5ef3417e524a"
      },
      "effectiveDateTime": "2026-08-15T08:00:00.000+00:00",
      "valueBoolean": true
    },
    "request": {
      "method": "PUT",
      "url": "Observation/ba8a1ac4-791e-4e69-9cc8-0dcde0220c1d"
    }
  }, {
    "fullUrl": "https://madie.cms.gov/Observation/939fadab-6aec-4295-8006-1271d502e145",
    "resource": {
      "resourceType": "Observation",
      "id": "939fadab-6aec-4295-8006-1271d502e145",
      "meta": {
        "profile": [ "http://hl7.org/fhir/us/qicore/StructureDefinition/qicore-observation-lab" ]
      },
      "status": "final",
      "category": [ {
        "coding": [ {
          "system": "http://terminology.hl7.org/CodeSystem/observation-category",
          "code": "laboratory",
          "display": "Laboratory",
          "userSelected": true
        } ]
      } ],
      "code": {
        "coding": [ {
          "system": "http://loinc.org",
          "version": "2.71",
          "code": "13705-9",
          "display": "Albumin/Creatinine [Mass Ratio] in 24 hour Urine",
          "userSelected": true
        } ]
      },
      "subject": {
        "reference": "Patient/8cfb2747-a46d-4348-9e21-5ef3417e524a"
      },
      "effectiveDateTime": "2026-08-15T08:00:00.000+00:00",
      "valueBoolean": true
    },
    "request": {
      "method": "PUT",
      "url": "Observation/939fadab-6aec-4295-8006-1271d502e145"
    }
  }, {
    "fullUrl": "https://madie.cms.gov/MeasureReport/a8870c7b-9907-4383-9197-962e7ea65483",
    "resource": {
      "resourceType": "MeasureReport",
      "id": "a8870c7b-9907-4383-9197-962e7ea65483",
      "meta": {
        "profile": [ "http://hl7.org/fhir/us/cqfmeasures/StructureDefinition/test-case-cqfm" ]
      },
      "contained": [ {
        "resourceType": "Parameters",
        "id": "84104160-fb3a-489f-b18f-f87d2cfe2ac0-parameters",
        "parameter": [ {
          "name": "subject",
          "valueString": "8cfb2747-a46d-4348-9e21-5ef3417e524a"
        } ]
      } ],
      "extension": [ {
        "url": "http://hl7.org/fhir/StructureDefinition/cqf-inputParameters",
        "valueReference": {
          "reference": "#84104160-fb3a-489f-b18f-f87d2cfe2ac0-parameters"
        }
      }, {
        "url": "http://hl7.org/fhir/us/cqfmeasures/StructureDefinition/cqfm-testCaseDescription",
        "valueMarkdown": "This patient has active diabetes and a qualifying encounter but no values recorded for the kidney panel. This case tests the numerator criteria."
      } ],
      "modifierExtension": [ {
        "url": "http://hl7.org/fhir/us/cqfmeasures/StructureDefinition/cqfm-isTestCase",
        "valueBoolean": true
      } ],
      "status": "complete",
      "type": "individual",
      "measure": "https://madie.cms.gov/Measure/CMS951FHIRKidneyHealthEval",
      "period": {
        "start": "2026-01-01",
        "end": "2026-12-31"
      },
      "group": [ {
        "id": "Group_1",
        "population": [ {
          "id": "InitialPopulation_1",
          "code": {
            "coding": [ {
              "system": "http://terminology.hl7.org/CodeSystem/measure-population",
              "code": "initial-population",
              "display": "Initial Population"
            } ]
          },
          "count": 1
        }, {
          "id": "Denominator_1",
          "code": {
            "coding": [ {
              "system": "http://terminology.hl7.org/CodeSystem/measure-population",
              "code": "denominator",
              "display": "Denominator"
            } ]
          },
          "count": 1
        }, {
          "id": "DenominatorExclusion_1",
          "code": {
            "coding": [ {
              "system": "http://terminology.hl7.org/CodeSystem/measure-population",
              "code": "denominator-exclusion",
              "display": "Denominator Exclusion"
            } ]
          },
          "count": 0
        }, {
          "id": "Numerator_1",
          "code": {
            "coding": [ {
              "system": "http://terminology.hl7.org/CodeSystem/measure-population",
              "code": "numerator",
              "display": "Numerator"
            } ]
          },
          "count": 0
        } ],
        "measureScore": {
          "value": 1.0
        }
      } ],
      "evaluatedResource": [ {
        "reference": "Patient/8cfb2747-a46d-4348-9e21-5ef3417e524a"
      }, {
        "reference": "Condition/b731bcc3-d990-4509-a563-7350989d360a"
      }, {
        "reference": "Encounter/0913373e-9c78-43a5-9261-7f91304dc27e"
      }, {
        "reference": "Observation/ba8a1ac4-791e-4e69-9cc8-0dcde0220c1d"
      }, {
        "reference": "Observation/939fadab-6aec-4295-8006-1271d502e145"
      } ]
    },
    "request": {
      "method": "PUT",
      "url": "MeasureReport/a8870c7b-9907-4383-9197-962e7ea65483"
    }
  } ]
}