{
  "resourceType": "Bundle",
  "id": "6495fe1f964a7a684098ad06",
  "type": "collection",
  "entry": [ {
    "fullUrl": "https://madie.cms.gov/Patient/de5e2460-196e-4a0f-bb6a-988c39edadd6",
    "resource": {
      "resourceType": "Patient",
      "id": "de5e2460-196e-4a0f-bb6a-988c39edadd6",
      "meta": {
        "profile": [ "http://hl7.org/fhir/us/qicore/StructureDefinition/qicore-patient" ]
      },
      "extension": [ {
        "url": "http://hl7.org/fhir/us/core/StructureDefinition/us-core-race",
        "extension": [ {
          "url": "ombCategory",
          "valueCoding": {
            "system": "urn:oid:2.16.840.1.113883.6.238",
            "code": "2076-8",
            "display": "Native Hawaiian or Other Pacific Islander",
            "userSelected": true
          }
        }, {
          "url": "text",
          "valueString": "Native Hawaiian or Other Pacific Islander"
        } ]
      }, {
        "url": "http://hl7.org/fhir/us/core/StructureDefinition/us-core-ethnicity",
        "extension": [ {
          "url": "ombCategory",
          "valueCoding": {
            "system": "urn:oid:2.16.840.1.113883.6.238",
            "code": "2135-2",
            "display": "Hispanic or Latino",
            "userSelected": true
          }
        }, {
          "url": "text",
          "valueString": "Hispanic or Latino"
        } ]
      } ],
      "identifier": [ {
        "type": {
          "coding": [ {
            "system": "http://terminology.hl7.org/CodeSystem/v2-0203",
            "code": "MR"
          } ]
        },
        "system": "https://bonnie-fhir.healthit.gov/",
        "value": "6495fe1f964a7a684098ad06"
      } ],
      "name": [ {
        "family": "NumPass",
        "given": [ "AllLabTestsAfterEncReleventDateTime" ]
      } ],
      "gender": "male",
      "birthDate": "2001-02-04"
    }
  }, {
    "fullUrl": "https://madie.cms.gov/Condition/48364768-8493-4a09-a975-2890aea052b8",
    "resource": {
      "resourceType": "Condition",
      "id": "48364768-8493-4a09-a975-2890aea052b8",
      "meta": {
        "profile": [ "http://hl7.org/fhir/us/qicore/StructureDefinition/qicore-condition-problems-health-concerns" ]
      },
      "clinicalStatus": {
        "coding": [ {
          "system": "http://terminology.hl7.org/CodeSystem/condition-clinical",
          "code": "active",
          "display": "active",
          "userSelected": true
        } ]
      },
      "category": [ {
        "coding": [ {
          "system": "http://terminology.hl7.org/CodeSystem/condition-category",
          "code": "problem-list-item",
          "display": "Problem List Item"
        } ]
      } ],
      "code": {
        "coding": [ {
          "system": "http://hl7.org/fhir/sid/icd-9-cm",
          "version": "2013",
          "code": "042",
          "display": "Human immunodeficiency virus [HIV] disease",
          "userSelected": true
        }, {
          "system": "http://snomed.info/sct",
          "version": "http://snomed.info/sct/731000124108/version/20250301",
          "code": "165816005",
          "userSelected": true
        } ]
      },
      "subject": {
        "reference": "Patient/de5e2460-196e-4a0f-bb6a-988c39edadd6"
      },
      "onsetDateTime": "2018-09-28T08:00:00.000+00:00",
      "recordedDate": "2018-09-28T08:00:00.000+00:00"
    }
  }, {
    "fullUrl": "https://madie.cms.gov/Encounter/48692b47-7eec-4821-852e-07b975eba9e3",
    "resource": {
      "resourceType": "Encounter",
      "id": "48692b47-7eec-4821-852e-07b975eba9e3",
      "meta": {
        "profile": [ "http://hl7.org/fhir/us/qicore/StructureDefinition/qicore-encounter" ]
      },
      "status": "finished",
      "class": {
        "system": "http://terminology.hl7.org/CodeSystem/v3-ActCode",
        "code": "AMB",
        "display": "ambulatory"
      },
      "type": [ {
        "coding": [ {
          "system": "http://www.ama-assn.org/go/cpt",
          "version": "2023",
          "code": "99391",
          "display": "Periodic comprehensive preventive medicine reevaluation and management of an individual including an age and gender appropriate history, examination, counseling/anticipatory guidance/risk factor reduction interventions, and the ordering of laboratory/diagnostic procedures, established patient; infant (age younger than 1 year)",
          "userSelected": true
        } ]
      } ],
      "subject": {
        "reference": "Patient/de5e2460-196e-4a0f-bb6a-988c39edadd6"
      },
      "period": {
        "start": "2026-09-29T08:00:00.000+00:00",
        "end": "2026-09-29T08:30:00.000+00:00"
      }
    }
  }, {
    "fullUrl": "https://madie.cms.gov/Observation/4c132470-98c9-4365-b052-96d7b8a4a17b",
    "resource": {
      "resourceType": "Observation",
      "id": "4c132470-98c9-4365-b052-96d7b8a4a17b",
      "meta": {
        "profile": [ "http://hl7.org/fhir/us/qicore/StructureDefinition/qicore-observation-lab" ]
      },
      "status": "final",
      "category": [ {
        "coding": [ {
          "system": "http://terminology.hl7.org/CodeSystem/observation-category",
          "code": "laboratory",
          "display": "Laboratory"
        } ]
      }, {
        "coding": [ {
          "system": "http://terminology.hl7.org/CodeSystem/observation-category",
          "code": "survey"
        } ]
      } ],
      "code": {
        "coding": [ {
          "system": "http://loinc.org",
          "version": "2.73",
          "code": "14463-4",
          "display": "Chlamydia trachomatis [Presence] in Cervix by Organism specific culture",
          "userSelected": true
        } ]
      },
      "subject": {
        "reference": "Patient/de5e2460-196e-4a0f-bb6a-988c39edadd6"
      },
      "effectiveDateTime": "2026-09-30T08:00:00.000+00:00",
      "issued": "2026-09-30T08:00:00.000+00:00",
      "valueQuantity": {
        "value": 80
      }
    }
  }, {
    "fullUrl": "https://madie.cms.gov/Observation/f7a96700-9f85-4115-bf58-69181c5a0d14",
    "resource": {
      "resourceType": "Observation",
      "id": "f7a96700-9f85-4115-bf58-69181c5a0d14",
      "meta": {
        "profile": [ "http://hl7.org/fhir/us/qicore/StructureDefinition/qicore-observation-lab" ]
      },
      "status": "final",
      "category": [ {
        "coding": [ {
          "system": "http://terminology.hl7.org/CodeSystem/observation-category",
          "code": "laboratory",
          "display": "Laboratory"
        } ]
      }, {
        "coding": [ {
          "system": "http://terminology.hl7.org/CodeSystem/observation-category",
          "code": "survey"
        } ]
      } ],
      "code": {
        "coding": [ {
          "system": "http://loinc.org",
          "version": "2.73",
          "code": "32705-6",
          "display": "Neisseria gonorrhoeae DNA [Presence] in Vaginal fluid by NAA with probe detection",
          "userSelected": true
        } ]
      },
      "subject": {
        "reference": "Patient/de5e2460-196e-4a0f-bb6a-988c39edadd6"
      },
      "effectiveDateTime": "2026-09-30T08:00:00.000+00:00",
      "issued": "2026-09-30T08:00:00.000+00:00",
      "valueQuantity": {
        "value": 12
      }
    }
  }, {
    "fullUrl": "https://madie.cms.gov/Observation/2bd6cc34-1ab6-436e-be4f-6c697d420536",
    "resource": {
      "resourceType": "Observation",
      "id": "2bd6cc34-1ab6-436e-be4f-6c697d420536",
      "meta": {
        "profile": [ "http://hl7.org/fhir/us/qicore/StructureDefinition/qicore-observation-lab" ]
      },
      "status": "final",
      "category": [ {
        "coding": [ {
          "system": "http://terminology.hl7.org/CodeSystem/observation-category",
          "code": "laboratory",
          "display": "Laboratory"
        } ]
      }, {
        "coding": [ {
          "system": "http://terminology.hl7.org/CodeSystem/observation-category",
          "code": "survey"
        } ]
      } ],
      "code": {
        "coding": [ {
          "system": "http://loinc.org",
          "version": "2.73",
          "code": "11084-1",
          "display": "Reagin Ab [Titer] in Serum",
          "userSelected": true
        } ]
      },
      "subject": {
        "reference": "Patient/de5e2460-196e-4a0f-bb6a-988c39edadd6"
      },
      "effectiveDateTime": "2026-09-30T08:00:00.000+00:00",
      "issued": "2026-09-30T08:00:00.000+00:00",
      "valueQuantity": {
        "value": 45
      }
    }
  }, {
    "fullUrl": "https://madie.cms.gov/Coverage/26b95bbe-6a94-4f01-85dc-34d22e5330f5",
    "resource": {
      "resourceType": "Coverage",
      "id": "26b95bbe-6a94-4f01-85dc-34d22e5330f5",
      "meta": {
        "profile": [ "http://hl7.org/fhir/us/qicore/StructureDefinition/qicore-coverage" ]
      },
      "status": "active",
      "subscriberId": "123456",
      "beneficiary": {
        "reference": "Patient/de5e2460-196e-4a0f-bb6a-988c39edadd6"
      },
      "relationship": {
        "coding": [ {
          "system": "http://terminology.hl7.org/CodeSystem/subscriber-relationship",
          "code": "self",
          "display": "Self"
        } ]
      },
      "payor": [ {
        "reference": "Organization/71e61e6b-89c7-44e4-b554-290d8a32d1c8"
      } ]
    }
  }, {
    "fullUrl": "https://madie.cms.gov/Organization/71e61e6b-89c7-44e4-b554-290d8a32d1c8",
    "resource": {
      "resourceType": "Organization",
      "id": "71e61e6b-89c7-44e4-b554-290d8a32d1c8",
      "meta": {
        "profile": [ "http://hl7.org/fhir/us/qicore/StructureDefinition/qicore-organization" ]
      },
      "identifier": [ {
        "use": "temp",
        "system": "urn:oid:2.16.840.1.113883.4.4",
        "value": "21-3259825"
      } ],
      "active": true,
      "type": [ {
        "coding": [ {
          "system": "http://terminology.hl7.org/CodeSystem/organization-type",
          "code": "pay",
          "display": "Payer"
        } ]
      } ],
      "name": "Blue Cross Blue Shield of Texas",
      "telecom": [ {
        "system": "phone",
        "value": "(+1) 972-766-6900"
      } ],
      "address": [ {
        "use": "billing",
        "type": "postal",
        "line": [ "P.O. Box 660044" ],
        "city": "Dallas",
        "state": "TX",
        "postalCode": "75266-0044",
        "country": "USA"
      } ]
    }
  }, {
    "fullUrl": "https://madie.cms.gov/Practitioner/08eb402a-4c95-471b-b202-388f651bad7a",
    "resource": {
      "resourceType": "Practitioner",
      "id": "08eb402a-4c95-471b-b202-388f651bad7a",
      "meta": {
        "profile": [ "http://hl7.org/fhir/us/qicore/StructureDefinition/qicore-practitioner" ]
      },
      "identifier": [ {
        "system": "http://hl7.org/fhir/sid/us-npi",
        "value": "1689411712"
      } ],
      "name": [ {
        "family": "Evil",
        "prefix": [ "Dr" ]
      } ]
    }
  }, {
    "fullUrl": "https://madie.cms.gov/MeasureReport/4c9cd849-b46a-4bd0-902d-c87a7fdd8e9e",
    "resource": {
      "resourceType": "MeasureReport",
      "id": "4c9cd849-b46a-4bd0-902d-c87a7fdd8e9e",
      "meta": {
        "profile": [ "http://hl7.org/fhir/us/cqfmeasures/StructureDefinition/test-case-cqfm" ]
      },
      "contained": [ {
        "resourceType": "Parameters",
        "id": "06f86916-29e3-43f9-81fd-74ff464b49ca-parameters",
        "parameter": [ {
          "name": "subject",
          "valueString": "de5e2460-196e-4a0f-bb6a-988c39edadd6"
        } ]
      } ],
      "extension": [ {
        "url": "http://hl7.org/fhir/StructureDefinition/cqf-inputParameters",
        "valueReference": {
          "reference": "#06f86916-29e3-43f9-81fd-74ff464b49ca-parameters"
        }
      }, {
        "url": "http://hl7.org/fhir/us/cqfmeasures/StructureDefinition/cqfm-testCaseDescription",
        "valueMarkdown": "Patient is over 13 years old and has an encounter during the MP and has all three lab tests during the MP AFTER the encounter using relevantDatetime"
      } ],
      "modifierExtension": [ {
        "url": "http://hl7.org/fhir/us/cqfmeasures/StructureDefinition/cqfm-isTestCase",
        "valueBoolean": true
      } ],
      "status": "complete",
      "type": "individual",
      "measure": "https://madie.cms.gov/Measure/CMS1188FHIRHIVSTITesting",
      "period": {
        "start": "2026-01-01",
        "end": "2026-12-31"
      },
      "group": [ {
        "id": "Group_1",
        "population": [ {
          "id": "InitialPopulation_1",
          "code": {
            "coding": [ {
              "system": "http://terminology.hl7.org/CodeSystem/measure-population",
              "code": "initial-population",
              "display": "Initial Population"
            } ]
          },
          "count": 1
        }, {
          "id": "Denominator_1",
          "code": {
            "coding": [ {
              "system": "http://terminology.hl7.org/CodeSystem/measure-population",
              "code": "denominator",
              "display": "Denominator"
            } ]
          },
          "count": 1
        }, {
          "id": "Numerator_1",
          "code": {
            "coding": [ {
              "system": "http://terminology.hl7.org/CodeSystem/measure-population",
              "code": "numerator",
              "display": "Numerator"
            } ]
          },
          "count": 1
        } ],
        "measureScore": {
          "value": 1.0
        }
      } ],
      "evaluatedResource": [ {
        "reference": "Patient/de5e2460-196e-4a0f-bb6a-988c39edadd6"
      }, {
        "reference": "Condition/48364768-8493-4a09-a975-2890aea052b8"
      }, {
        "reference": "Encounter/48692b47-7eec-4821-852e-07b975eba9e3"
      }, {
        "reference": "Observation/4c132470-98c9-4365-b052-96d7b8a4a17b"
      }, {
        "reference": "Observation/f7a96700-9f85-4115-bf58-69181c5a0d14"
      }, {
        "reference": "Observation/2bd6cc34-1ab6-436e-be4f-6c697d420536"
      }, {
        "reference": "Coverage/26b95bbe-6a94-4f01-85dc-34d22e5330f5"
      }, {
        "reference": "Organization/71e61e6b-89c7-44e4-b554-290d8a32d1c8"
      }, {
        "reference": "Practitioner/08eb402a-4c95-471b-b202-388f651bad7a"
      } ]
    }
  } ]
}