{
  "resourceType": "Bundle",
  "id": "62c880ec0111a60120dc21fd",
  "type": "transaction",
  "entry": [ {
    "fullUrl": "https://madie.cms.gov/Patient/1f368295-58dc-4c0e-b23f-704d867ed0ef",
    "resource": {
      "resourceType": "Patient",
      "id": "1f368295-58dc-4c0e-b23f-704d867ed0ef",
      "meta": {
        "profile": [ "http://hl7.org/fhir/us/qicore/StructureDefinition/qicore-patient" ]
      },
      "text": {
        "status": "generated",
        "div": "<div xmlns=\"http://www.w3.org/1999/xhtml\"><div class=\"hapiHeaderText\">BothChemoSameDayofEncounter<b>IPPPASSPOP1</b></div><table class=\"hapiPropertyTable\"><tbody><tr><td>Identifier</td><td>60e349100edd633ca8f54b90369c7513</td></tr><tr><td>Date of birth</td><td><span>13 May 1937</span></td></tr></tbody></table></div>"
      },
      "extension": [ {
        "url": "http://hl7.org/fhir/us/core/StructureDefinition/us-core-race",
        "extension": [ {
          "url": "ombCategory",
          "valueCoding": {
            "system": "urn:oid:2.16.840.1.113883.6.238",
            "code": "1002-5",
            "display": "American Indian or Alaska Native",
            "userSelected": true
          }
        }, {
          "url": "text",
          "valueString": "American Indian or Alaska Native"
        } ]
      }, {
        "url": "http://hl7.org/fhir/us/core/StructureDefinition/us-core-ethnicity",
        "extension": [ {
          "url": "ombCategory",
          "valueCoding": {
            "system": "urn:oid:2.16.840.1.113883.6.238",
            "code": "2135-2",
            "display": "Hispanic or Latino",
            "userSelected": true
          }
        }, {
          "url": "text",
          "valueString": "Hispanic or Latino"
        } ]
      } ],
      "identifier": [ {
        "type": {
          "coding": [ {
            "system": "http://terminology.hl7.org/CodeSystem/v2-0203",
            "code": "MR"
          } ]
        },
        "system": "https://bonnie-fhir.healthit.gov/",
        "value": "62c880ec0111a60120dc21fd"
      } ],
      "active": true,
      "name": [ {
        "use": "usual",
        "family": "IPPFailPop1",
        "given": [ "BothChemoSameDayofEncounter" ]
      } ],
      "gender": "female",
      "birthDate": "1938-05-13"
    },
    "request": {
      "method": "PUT",
      "url": "Patient/1f368295-58dc-4c0e-b23f-704d867ed0ef"
    }
  }, {
    "fullUrl": "https://madie.cms.gov/Condition/c9b83cbb-2da4-4363-9441-2cfadd171ad6",
    "resource": {
      "resourceType": "Condition",
      "id": "c9b83cbb-2da4-4363-9441-2cfadd171ad6",
      "meta": {
        "profile": [ "http://hl7.org/fhir/us/qicore/StructureDefinition/qicore-condition" ]
      },
      "clinicalStatus": {
        "coding": [ {
          "system": "http://terminology.hl7.org/CodeSystem/condition-clinical",
          "code": "active",
          "display": "active",
          "userSelected": true
        } ]
      },
      "category": [ {
        "coding": [ {
          "system": "http://terminology.hl7.org/CodeSystem/condition-category",
          "code": "encounter-diagnosis",
          "display": "Encounter Diagnosis"
        }, {
          "system": "http://terminology.hl7.org/CodeSystem/condition-category",
          "code": "problem-list-item",
          "display": "Problem List Item"
        } ]
      } ],
      "code": {
        "coding": [ {
          "system": "http://hl7.org/fhir/sid/icd-10-cm",
          "code": "C00.0"
        } ]
      },
      "subject": {
        "reference": "Patient/1f368295-58dc-4c0e-b23f-704d867ed0ef"
      },
      "onsetDateTime": "2024-05-01T13:30:00.000+00:00"
    },
    "request": {
      "method": "PUT",
      "url": "Condition/c9b83cbb-2da4-4363-9441-2cfadd171ad6"
    }
  }, {
    "fullUrl": "https://madie.cms.gov/Encounter/070d64ea-1fda-4e21-aff5-38926a17e73a",
    "resource": {
      "resourceType": "Encounter",
      "id": "070d64ea-1fda-4e21-aff5-38926a17e73a",
      "meta": {
        "profile": [ "http://hl7.org/fhir/us/qicore/StructureDefinition/qicore-encounter" ]
      },
      "status": "finished",
      "class": {
        "system": "http://terminology.hl7.org/CodeSystem/v3-ActCode",
        "code": "AMB",
        "display": "ambulatory",
        "userSelected": true
      },
      "type": [ {
        "coding": [ {
          "system": "http://www.ama-assn.org/go/cpt",
          "code": "99201"
        } ]
      } ],
      "subject": {
        "reference": "Patient/1f368295-58dc-4c0e-b23f-704d867ed0ef"
      },
      "period": {
        "start": "2026-01-01T14:00:00.000+00:00",
        "end": "2026-01-01T15:00:00.000+00:00"
      }
    },
    "request": {
      "method": "PUT",
      "url": "Encounter/070d64ea-1fda-4e21-aff5-38926a17e73a"
    }
  }, {
    "fullUrl": "https://madie.cms.gov/Coverage/cc75e647-f1db-4850-b345-9b4f92d9c7d2",
    "resource": {
      "resourceType": "Coverage",
      "id": "cc75e647-f1db-4850-b345-9b4f92d9c7d2",
      "meta": {
        "profile": [ "http://hl7.org/fhir/us/qicore/StructureDefinition/qicore-coverage" ]
      },
      "status": "active",
      "beneficiary": {
        "reference": "Patient/1f368295-58dc-4c0e-b23f-704d867ed0ef"
      },
      "period": {
        "start": "1938-05-13T08:00:00.000+00:00"
      },
      "payor": [ {
        "reference": "Organization/9ac2b3df-fc7f-4e18-9caa-e47c95172c30"
      } ]
    },
    "request": {
      "method": "PUT",
      "url": "Coverage/cc75e647-f1db-4850-b345-9b4f92d9c7d2"
    }
  }, {
    "fullUrl": "https://madie.cms.gov/Procedure/40da3ce6-6645-4fc9-b3ad-e6dcb61f51e3",
    "resource": {
      "resourceType": "Procedure",
      "id": "40da3ce6-6645-4fc9-b3ad-e6dcb61f51e3",
      "meta": {
        "profile": [ "http://hl7.org/fhir/us/qicore/StructureDefinition/qicore-procedure" ]
      },
      "extension": [ {
        "url": "http://hl7.org/fhir/us/qicore/StructureDefinition/qicore-recorded",
        "valueDateTime": "2026-01-01T12:35:00.000+00:00"
      } ],
      "status": "completed",
      "code": {
        "coding": [ {
          "system": "http://snomed.info/sct",
          "code": "169396008"
        } ]
      },
      "subject": {
        "reference": "Patient/1f368295-58dc-4c0e-b23f-704d867ed0ef"
      },
      "performedPeriod": {
        "start": "2026-01-01T08:00:00.000+00:00",
        "end": "2026-01-01T08:15:00.000+00:00"
      }
    },
    "request": {
      "method": "PUT",
      "url": "Procedure/40da3ce6-6645-4fc9-b3ad-e6dcb61f51e3"
    }
  }, {
    "fullUrl": "https://madie.cms.gov/Procedure/07d7f6fd-094f-40ca-82a1-23619c9969c5",
    "resource": {
      "resourceType": "Procedure",
      "id": "07d7f6fd-094f-40ca-82a1-23619c9969c5",
      "meta": {
        "profile": [ "http://hl7.org/fhir/us/qicore/StructureDefinition/qicore-procedure" ]
      },
      "extension": [ {
        "url": "http://hl7.org/fhir/us/qicore/StructureDefinition/qicore-recorded",
        "valueDateTime": "2026-01-01T12:35:00.000+00:00"
      } ],
      "status": "completed",
      "code": {
        "coding": [ {
          "system": "http://snomed.info/sct",
          "code": "169396008"
        } ]
      },
      "subject": {
        "reference": "Patient/1f368295-58dc-4c0e-b23f-704d867ed0ef"
      },
      "performedPeriod": {
        "start": "2026-01-01T08:00:00.000+00:00",
        "end": "2026-01-01T08:15:00.000+00:00"
      }
    },
    "request": {
      "method": "PUT",
      "url": "Procedure/07d7f6fd-094f-40ca-82a1-23619c9969c5"
    }
  }, {
    "fullUrl": "https://madie.cms.gov/Organization/9ac2b3df-fc7f-4e18-9caa-e47c95172c30",
    "resource": {
      "resourceType": "Organization",
      "id": "9ac2b3df-fc7f-4e18-9caa-e47c95172c30",
      "meta": {
        "profile": [ "http://hl7.org/fhir/us/qicore/StructureDefinition/qicore-organization" ]
      },
      "identifier": [ {
        "use": "temp",
        "system": "urn:oid:2.16.840.1.113883.4.4",
        "value": "21-3259825"
      } ],
      "active": true,
      "type": [ {
        "coding": [ {
          "system": "http://terminology.hl7.org/CodeSystem/organization-type",
          "code": "pay",
          "display": "Payer"
        } ]
      } ],
      "name": "Blue Cross Blue Shield of Texas",
      "telecom": [ {
        "system": "phone",
        "value": "(+1) 972-766-6900"
      } ],
      "address": [ {
        "use": "billing",
        "type": "postal",
        "line": [ "P.O. Box 660044" ],
        "city": "Dallas",
        "state": "TX",
        "postalCode": "75266-0044",
        "country": "USA"
      } ]
    },
    "request": {
      "method": "PUT",
      "url": "Organization/9ac2b3df-fc7f-4e18-9caa-e47c95172c30"
    }
  }, {
    "fullUrl": "https://madie.cms.gov/MeasureReport/a3ccdb60-f46a-4a03-b881-196a1fed4a43",
    "resource": {
      "resourceType": "MeasureReport",
      "id": "a3ccdb60-f46a-4a03-b881-196a1fed4a43",
      "meta": {
        "profile": [ "http://hl7.org/fhir/us/cqfmeasures/StructureDefinition/test-case-cqfm" ]
      },
      "contained": [ {
        "resourceType": "Parameters",
        "id": "ca172afc-6b77-4d76-aed7-aa21b8eb7ff6-parameters",
        "parameter": [ {
          "name": "subject",
          "valueString": "1f368295-58dc-4c0e-b23f-704d867ed0ef"
        } ]
      } ],
      "extension": [ {
        "url": "http://hl7.org/fhir/StructureDefinition/cqf-inputParameters",
        "valueReference": {
          "reference": "#ca172afc-6b77-4d76-aed7-aa21b8eb7ff6-parameters"
        }
      }, {
        "url": "http://hl7.org/fhir/us/cqfmeasures/StructureDefinition/cqfm-testCaseDescription",
        "valueMarkdown": "Patient with cancer diagnosis that overlaps the office visit during measurement period.  Two chemotherapy administered on the same day of office visit. "
      } ],
      "modifierExtension": [ {
        "url": "http://hl7.org/fhir/us/cqfmeasures/StructureDefinition/cqfm-isTestCase",
        "valueBoolean": true
      } ],
      "status": "complete",
      "type": "individual",
      "measure": "https://madie.cms.gov/Measure/CMS157FHIRPainIntensityQuantified",
      "period": {
        "start": "2026-01-01",
        "end": "2026-12-31"
      },
      "group": [ {
        "id": "Group_1",
        "population": [ {
          "id": "InitialPopulation_1",
          "code": {
            "coding": [ {
              "system": "http://terminology.hl7.org/CodeSystem/measure-population",
              "code": "initial-population",
              "display": "Initial Population"
            } ]
          },
          "count": 0
        }, {
          "id": "Denominator_1",
          "code": {
            "coding": [ {
              "system": "http://terminology.hl7.org/CodeSystem/measure-population",
              "code": "denominator",
              "display": "Denominator"
            } ]
          },
          "count": 0
        }, {
          "id": "Numerator_1",
          "code": {
            "coding": [ {
              "system": "http://terminology.hl7.org/CodeSystem/measure-population",
              "code": "numerator",
              "display": "Numerator"
            } ]
          },
          "count": 0
        } ],
        "measureScore": {
          "value": 0.0
        }
      }, {
        "id": "Group_2",
        "population": [ {
          "id": "InitialPopulation_2",
          "code": {
            "coding": [ {
              "system": "http://terminology.hl7.org/CodeSystem/measure-population",
              "code": "initial-population",
              "display": "Initial Population"
            } ]
          },
          "count": 0
        }, {
          "id": "Denominator_2",
          "code": {
            "coding": [ {
              "system": "http://terminology.hl7.org/CodeSystem/measure-population",
              "code": "denominator",
              "display": "Denominator"
            } ]
          },
          "count": 0
        }, {
          "id": "Numerator_2",
          "code": {
            "coding": [ {
              "system": "http://terminology.hl7.org/CodeSystem/measure-population",
              "code": "numerator",
              "display": "Numerator"
            } ]
          },
          "count": 0
        } ],
        "measureScore": {
          "value": 0.0
        }
      } ],
      "evaluatedResource": [ {
        "reference": "Patient/1f368295-58dc-4c0e-b23f-704d867ed0ef"
      }, {
        "reference": "Condition/c9b83cbb-2da4-4363-9441-2cfadd171ad6"
      }, {
        "reference": "Encounter/070d64ea-1fda-4e21-aff5-38926a17e73a"
      }, {
        "reference": "Coverage/cc75e647-f1db-4850-b345-9b4f92d9c7d2"
      }, {
        "reference": "Procedure/40da3ce6-6645-4fc9-b3ad-e6dcb61f51e3"
      }, {
        "reference": "Procedure/07d7f6fd-094f-40ca-82a1-23619c9969c5"
      }, {
        "reference": "Organization/9ac2b3df-fc7f-4e18-9caa-e47c95172c30"
      } ]
    },
    "request": {
      "method": "PUT",
      "url": "MeasureReport/a3ccdb60-f46a-4a03-b881-196a1fed4a43"
    }
  } ]
}