{
  "resourceType": "Bundle",
  "id": "6179e1a9e2011aa9929f330d",
  "type": "transaction",
  "entry": [ {
    "fullUrl": "https://madie.cms.gov/Patient/9a0727fd-6922-4fcc-9d7f-0bfd5c2f473b",
    "resource": {
      "resourceType": "Patient",
      "id": "9a0727fd-6922-4fcc-9d7f-0bfd5c2f473b",
      "meta": {
        "profile": [ "http://hl7.org/fhir/us/qicore/StructureDefinition/qicore-patient" ]
      },
      "extension": [ {
        "url": "http://hl7.org/fhir/us/core/StructureDefinition/us-core-race",
        "extension": [ {
          "url": "ombCategory",
          "valueCoding": {
            "system": "urn:oid:2.16.840.1.113883.6.238",
            "code": "2076-8",
            "display": "Native Hawaiian or Other Pacific Islander",
            "userSelected": true
          }
        }, {
          "url": "text",
          "valueString": "Native Hawaiian or Other Pacific Islander"
        } ]
      }, {
        "url": "http://hl7.org/fhir/us/core/StructureDefinition/us-core-ethnicity",
        "extension": [ {
          "url": "ombCategory",
          "valueCoding": {
            "system": "urn:oid:2.16.840.1.113883.6.238",
            "code": "2186-5",
            "display": "Not Hispanic or Latino",
            "userSelected": true
          }
        }, {
          "url": "text",
          "valueString": "Not Hispanic or Latino"
        } ]
      }, {
        "url": "http://hl7.org/fhir/us/core/StructureDefinition/us-core-sex",
        "valueCode": "248152002"
      } ],
      "identifier": [ {
        "type": {
          "coding": [ {
            "system": "http://terminology.hl7.org/CodeSystem/v2-0203",
            "code": "MR"
          } ]
        },
        "system": "https://bonnie-fhir.healthit.gov/",
        "value": "6179e1a9e2011aa9929f330d"
      } ],
      "name": [ {
        "family": "DenExcl1Fail",
        "given": [ "DxExclStartsBeforeEndsBeforeED" ]
      } ],
      "gender": "female",
      "birthDate": "1985-12-02"
    },
    "request": {
      "method": "PUT",
      "url": "Patient/9a0727fd-6922-4fcc-9d7f-0bfd5c2f473b"
    }
  }, {
    "fullUrl": "https://madie.cms.gov/Encounter/9fc76895-6b24-4407-b301-92135f01a05e",
    "resource": {
      "resourceType": "Encounter",
      "id": "9fc76895-6b24-4407-b301-92135f01a05e",
      "meta": {
        "profile": [ "http://hl7.org/fhir/us/qicore/StructureDefinition/qicore-encounter" ]
      },
      "status": "finished",
      "class": {
        "system": "http://terminology.hl7.org/CodeSystem/v3-ActCode",
        "code": "EMER",
        "display": "emergency",
        "userSelected": true
      },
      "type": [ {
        "coding": [ {
          "system": "http://snomed.info/sct",
          "version": "2020-09",
          "code": "4525004",
          "display": "Emergency department patient visit (procedure)",
          "userSelected": true
        } ]
      } ],
      "subject": {
        "reference": "Patient/9a0727fd-6922-4fcc-9d7f-0bfd5c2f473b"
      },
      "period": {
        "start": "2026-10-09T08:05:00.000+00:00",
        "end": "2026-10-10T07:15:00.000+00:00"
      },
      "reasonReference": [ {
        "reference": "Condition/d4cd4373-d1b7-4824-b771-2c24d8682692"
      } ]
    },
    "request": {
      "method": "PUT",
      "url": "Encounter/9fc76895-6b24-4407-b301-92135f01a05e"
    }
  }, {
    "fullUrl": "https://madie.cms.gov/Condition/d4cd4373-d1b7-4824-b771-2c24d8682692",
    "resource": {
      "resourceType": "Condition",
      "id": "d4cd4373-d1b7-4824-b771-2c24d8682692",
      "meta": {
        "profile": [ "http://hl7.org/fhir/us/qicore/StructureDefinition/qicore-condition-problems-health-concerns" ]
      },
      "clinicalStatus": {
        "coding": [ {
          "system": "http://terminology.hl7.org/CodeSystem/condition-clinical",
          "code": "active",
          "display": "active",
          "userSelected": true
        } ]
      },
      "category": [ {
        "coding": [ {
          "system": "http://terminology.hl7.org/CodeSystem/condition-category",
          "code": "problem-list-item",
          "display": "Problem List Item",
          "userSelected": true
        } ]
      } ],
      "code": {
        "coding": [ {
          "system": "http://snomed.info/sct",
          "version": "2020-09",
          "code": "401303003",
          "display": "Acute ST segment elevation myocardial infarction (disorder)",
          "userSelected": true
        } ]
      },
      "subject": {
        "reference": "Patient/9a0727fd-6922-4fcc-9d7f-0bfd5c2f473b"
      },
      "onsetDateTime": "2026-10-09T08:30:00.000+00:00"
    },
    "request": {
      "method": "PUT",
      "url": "Condition/d4cd4373-d1b7-4824-b771-2c24d8682692"
    }
  }, {
    "fullUrl": "https://madie.cms.gov/Condition/7dd448c2-2988-488e-9ae5-f85c48c1c2e7",
    "resource": {
      "resourceType": "Condition",
      "id": "7dd448c2-2988-488e-9ae5-f85c48c1c2e7",
      "meta": {
        "profile": [ "http://hl7.org/fhir/us/qicore/StructureDefinition/qicore-condition-problems-health-concerns" ]
      },
      "clinicalStatus": {
        "coding": [ {
          "system": "http://terminology.hl7.org/CodeSystem/condition-clinical",
          "version": "4.0.1",
          "code": "inactive",
          "display": "Inactive",
          "userSelected": true
        } ]
      },
      "category": [ {
        "coding": [ {
          "system": "http://terminology.hl7.org/CodeSystem/condition-category",
          "code": "problem-list-item",
          "display": "Problem List Item",
          "userSelected": true
        } ]
      } ],
      "code": {
        "coding": [ {
          "system": "http://snomed.info/sct",
          "version": "2020-09",
          "code": "111633007",
          "display": "Open fracture of sacrum AND/OR coccyx with complete cauda equina lesion (disorder)",
          "userSelected": true
        } ]
      },
      "subject": {
        "reference": "Patient/9a0727fd-6922-4fcc-9d7f-0bfd5c2f473b"
      },
      "onsetDateTime": "2026-01-08T08:00:00.000+00:00",
      "abatementDateTime": "2026-04-08T08:15:00.000+00:00"
    },
    "request": {
      "method": "PUT",
      "url": "Condition/7dd448c2-2988-488e-9ae5-f85c48c1c2e7"
    }
  }, {
    "fullUrl": "https://madie.cms.gov/MeasureReport/8645c219-c095-48f1-bffa-0ba075b35e62",
    "resource": {
      "resourceType": "MeasureReport",
      "id": "8645c219-c095-48f1-bffa-0ba075b35e62",
      "meta": {
        "profile": [ "http://hl7.org/fhir/us/cqfmeasures/StructureDefinition/test-case-cqfm" ]
      },
      "contained": [ {
        "resourceType": "Parameters",
        "id": "36740514-8840-46c4-87fd-c6be91386fdc-parameters",
        "parameter": [ {
          "name": "subject",
          "valueString": "9a0727fd-6922-4fcc-9d7f-0bfd5c2f473b"
        } ]
      } ],
      "extension": [ {
        "url": "http://hl7.org/fhir/StructureDefinition/cqf-inputParameters",
        "valueReference": {
          "reference": "#36740514-8840-46c4-87fd-c6be91386fdc-parameters"
        }
      }, {
        "url": "http://hl7.org/fhir/us/cqfmeasures/StructureDefinition/cqfm-testCaseDescription",
        "valueMarkdown": "Patient has Neurologic Impairment (exclusion diagnosis) that starts before ED encounter and ends before ED"
      } ],
      "modifierExtension": [ {
        "url": "http://hl7.org/fhir/us/cqfmeasures/StructureDefinition/cqfm-isTestCase",
        "valueBoolean": true
      } ],
      "status": "complete",
      "type": "individual",
      "measure": "https://madie.cms.gov/Measure/CMS996FHIRAptTxforSTEMI",
      "period": {
        "start": "2026-01-01",
        "end": "2026-12-31"
      },
      "group": [ {
        "id": "Group_1",
        "population": [ {
          "id": "InitialPopulation_1",
          "code": {
            "coding": [ {
              "system": "http://terminology.hl7.org/CodeSystem/measure-population",
              "code": "initial-population",
              "display": "Initial Population"
            } ]
          },
          "count": 1
        }, {
          "id": "Denominator_1",
          "code": {
            "coding": [ {
              "system": "http://terminology.hl7.org/CodeSystem/measure-population",
              "code": "denominator",
              "display": "Denominator"
            } ]
          },
          "count": 1
        }, {
          "id": "DenominatorExclusion_1",
          "code": {
            "coding": [ {
              "system": "http://terminology.hl7.org/CodeSystem/measure-population",
              "code": "denominator-exclusion",
              "display": "Denominator Exclusion"
            } ]
          },
          "count": 0
        }, {
          "id": "Numerator_1",
          "code": {
            "coding": [ {
              "system": "http://terminology.hl7.org/CodeSystem/measure-population",
              "code": "numerator",
              "display": "Numerator"
            } ]
          },
          "count": 0
        }, {
          "id": "DenominatorException_1",
          "code": {
            "coding": [ {
              "system": "http://terminology.hl7.org/CodeSystem/measure-population",
              "code": "denominator-exception",
              "display": "Denominator Exception"
            } ]
          },
          "count": 0
        } ],
        "measureScore": {
          "value": 0.0
        }
      } ],
      "evaluatedResource": [ {
        "reference": "Patient/9a0727fd-6922-4fcc-9d7f-0bfd5c2f473b"
      }, {
        "reference": "Encounter/9fc76895-6b24-4407-b301-92135f01a05e"
      }, {
        "reference": "Condition/d4cd4373-d1b7-4824-b771-2c24d8682692"
      }, {
        "reference": "Condition/7dd448c2-2988-488e-9ae5-f85c48c1c2e7"
      } ]
    },
    "request": {
      "method": "PUT",
      "url": "MeasureReport/8645c219-c095-48f1-bffa-0ba075b35e62"
    }
  } ]
}