{
  "resourceType": "Bundle",
  "id": "tests-NumerFail-ShortEncounter1-bundle",
  "type": "transaction",
  "entry": [ {
    "fullUrl": "https://madie.cms.gov/Condition/b22dc25b-c1d4-4bcf-a42a-768a556089a9",
    "resource": {
      "resourceType": "Condition",
      "id": "b22dc25b-c1d4-4bcf-a42a-768a556089a9",
      "meta": {
        "profile": [ "http://hl7.org/fhir/us/qicore/StructureDefinition/qicore-condition-encounter-diagnosis" ]
      },
      "clinicalStatus": {
        "coding": [ {
          "system": "http://terminology.hl7.org/CodeSystem/condition-clinical",
          "code": "active"
        } ]
      },
      "verificationStatus": {
        "coding": [ {
          "system": "http://terminology.hl7.org/CodeSystem/condition-ver-status",
          "code": "confirmed"
        } ]
      },
      "category": [ {
        "coding": [ {
          "system": "http://terminology.hl7.org/CodeSystem/condition-category",
          "code": "encounter-diagnosis",
          "display": "Encounter Diagnosis"
        } ]
      } ],
      "code": {
        "coding": [ {
          "system": "http://snomed.info/sct",
          "code": "46635009",
          "display": "Diabetes Mellitus"
        } ]
      },
      "subject": {
        "reference": "Patient/fd579f44-757b-4c98-9b09-27b17b935650"
      },
      "encounter": {
        "reference": "Encounter/8b53021d-5624-41dc-accb-bc3f35b9cbdc"
      },
      "onsetDateTime": "2025-07-11T08:00:00.000+00:00",
      "abatementDateTime": "2026-07-31T08:00:00.000+00:00"
    },
    "request": {
      "method": "PUT",
      "url": "Condition/b22dc25b-c1d4-4bcf-a42a-768a556089a9"
    }
  }, {
    "fullUrl": "https://madie.cms.gov/MedicationAdministration/1ce1864b-4f1b-418e-8fcc-77ef61510cef",
    "resource": {
      "resourceType": "MedicationAdministration",
      "id": "1ce1864b-4f1b-418e-8fcc-77ef61510cef",
      "meta": {
        "profile": [ "http://hl7.org/fhir/us/qicore/StructureDefinition/qicore-medicationadministration" ]
      },
      "status": "completed",
      "medicationCodeableConcept": {
        "coding": [ {
          "system": "http://www.nlm.nih.gov/research/umls/rxnorm",
          "code": "1368018",
          "display": "Hypoglycemics Treatment Medications"
        } ]
      },
      "subject": {
        "reference": "Patient/fd579f44-757b-4c98-9b09-27b17b935650"
      },
      "context": {
        "reference": "Encounter/8b53021d-5624-41dc-accb-bc3f35b9cbdc"
      },
      "effectivePeriod": {
        "start": "2026-07-11T09:00:00.000+00:00",
        "end": "2026-07-11T10:00:00.000+00:00"
      },
      "dosage": {
        "route": {
          "coding": [ {
            "system": "http://terminology.hl7.org/CodeSystem/medication-route",
            "code": "ORAL",
            "display": "Oral"
          } ]
        }
      }
    },
    "request": {
      "method": "PUT",
      "url": "MedicationAdministration/1ce1864b-4f1b-418e-8fcc-77ef61510cef"
    }
  }, {
    "fullUrl": "https://madie.cms.gov/Encounter/8b53021d-5624-41dc-accb-bc3f35b9cbdc",
    "resource": {
      "resourceType": "Encounter",
      "id": "8b53021d-5624-41dc-accb-bc3f35b9cbdc",
      "meta": {
        "profile": [ "http://hl7.org/fhir/us/qicore/StructureDefinition/qicore-encounter" ]
      },
      "status": "finished",
      "class": {
        "system": "http://terminology.hl7.org/CodeSystem/v3-ActCode",
        "code": "IMP",
        "display": "inpatient encounter"
      },
      "type": [ {
        "coding": [ {
          "system": "http://snomed.info/sct",
          "code": "183452005",
          "display": "Inpatient encounter"
        } ]
      } ],
      "subject": {
        "reference": "Patient/fd579f44-757b-4c98-9b09-27b17b935650"
      },
      "period": {
        "start": "2026-07-11T08:00:00.000+00:00",
        "end": "2026-07-11T22:00:00.000+00:00"
      }
    },
    "request": {
      "method": "PUT",
      "url": "Encounter/8b53021d-5624-41dc-accb-bc3f35b9cbdc"
    }
  }, {
    "fullUrl": "https://madie.cms.gov/Patient/fd579f44-757b-4c98-9b09-27b17b935650",
    "resource": {
      "resourceType": "Patient",
      "id": "fd579f44-757b-4c98-9b09-27b17b935650",
      "meta": {
        "profile": [ "http://hl7.org/fhir/us/qicore/StructureDefinition/qicore-patient" ]
      },
      "extension": [ {
        "url": "http://hl7.org/fhir/us/core/StructureDefinition/us-core-race",
        "extension": [ {
          "url": "ombCategory",
          "valueCoding": {
            "system": "urn:oid:2.16.840.1.113883.6.238",
            "code": "2106-3",
            "display": "White"
          }
        }, {
          "url": "text",
          "valueString": "White"
        } ]
      }, {
        "url": "http://hl7.org/fhir/us/core/StructureDefinition/us-core-ethnicity",
        "extension": [ {
          "url": "ombCategory",
          "valueCoding": {
            "system": "urn:oid:2.16.840.1.113883.6.238",
            "code": "2135-2",
            "display": "Hispanic or Latino"
          }
        }, {
          "url": "text",
          "valueString": "Hispanic or Latino"
        } ]
      }, {
        "url": "http://hl7.org/fhir/us/core/StructureDefinition/us-core-sex",
        "valueCode": "248153007"
      } ],
      "identifier": [ {
        "system": "http://hospital.smarthealthit.org",
        "value": "999999999"
      } ],
      "name": [ {
        "family": "Example",
        "given": [ "Patient" ]
      } ],
      "gender": "female",
      "birthDate": "1956-01-01"
    },
    "request": {
      "method": "PUT",
      "url": "Patient/fd579f44-757b-4c98-9b09-27b17b935650"
    }
  }, {
    "fullUrl": "https://madie.cms.gov/Observation/a4853536-c980-4520-8bac-c81afe0811f3",
    "resource": {
      "resourceType": "Observation",
      "id": "a4853536-c980-4520-8bac-c81afe0811f3",
      "meta": {
        "profile": [ "http://hl7.org/fhir/us/qicore/StructureDefinition/qicore-observation-lab" ]
      },
      "status": "final",
      "category": [ {
        "coding": [ {
          "system": "http://terminology.hl7.org/CodeSystem/observation-category",
          "code": "laboratory",
          "display": "Laboratory"
        } ]
      } ],
      "code": {
        "coding": [ {
          "system": "http://loinc.org",
          "version": "2.72",
          "code": "1547-9",
          "display": "Glucose Lab Test Mass Per Volume"
        } ]
      },
      "subject": {
        "reference": "Patient/fd579f44-757b-4c98-9b09-27b17b935650"
      },
      "effectiveDateTime": "2026-07-11T10:00:00.000+00:00",
      "valueQuantity": {
        "value": 301,
        "unit": "mg/dL"
      }
    },
    "request": {
      "method": "PUT",
      "url": "Observation/a4853536-c980-4520-8bac-c81afe0811f3"
    }
  }, {
    "fullUrl": "https://madie.cms.gov/MeasureReport/22df2e2a-404d-4ab0-831a-e2ab043197a2",
    "resource": {
      "resourceType": "MeasureReport",
      "id": "22df2e2a-404d-4ab0-831a-e2ab043197a2",
      "meta": {
        "profile": [ "http://hl7.org/fhir/us/cqfmeasures/StructureDefinition/test-case-cqfm" ]
      },
      "contained": [ {
        "resourceType": "Parameters",
        "id": "dee45d8b-e62e-4d0b-8feb-5ddf3615833c-parameters",
        "parameter": [ {
          "name": "subject",
          "valueString": "fd579f44-757b-4c98-9b09-27b17b935650"
        } ]
      } ],
      "extension": [ {
        "url": "http://hl7.org/fhir/StructureDefinition/cqf-inputParameters",
        "valueReference": {
          "reference": "#dee45d8b-e62e-4d0b-8feb-5ddf3615833c-parameters"
        }
      }, {
        "url": "http://hl7.org/fhir/us/cqfmeasures/StructureDefinition/cqfm-testCaseDescription",
        "valueMarkdown": "Encounter less than a day, diagnosis, meds, and elevated lab test. Therefore Num not met, no MO."
      } ],
      "modifierExtension": [ {
        "url": "http://hl7.org/fhir/us/cqfmeasures/StructureDefinition/cqfm-isTestCase",
        "valueBoolean": true
      } ],
      "status": "complete",
      "type": "individual",
      "measure": "https://madie.cms.gov/Measure/CMS871FHIRHHHyper",
      "period": {
        "start": "2026-01-01",
        "end": "2026-12-31"
      },
      "group": [ {
        "id": "Group_1",
        "population": [ {
          "id": "InitialPopulation_1",
          "code": {
            "coding": [ {
              "system": "http://terminology.hl7.org/CodeSystem/measure-population",
              "code": "initial-population",
              "display": "Initial Population"
            } ]
          },
          "count": 1
        }, {
          "id": "Denominator_1",
          "code": {
            "coding": [ {
              "system": "http://terminology.hl7.org/CodeSystem/measure-population",
              "code": "denominator",
              "display": "Denominator"
            } ]
          },
          "count": 1
        }, {
          "id": "DenominatorExclusion_1",
          "code": {
            "coding": [ {
              "system": "http://terminology.hl7.org/CodeSystem/measure-population",
              "code": "denominator-exclusion",
              "display": "Denominator Exclusion"
            } ]
          },
          "count": 0
        }, {
          "id": "Numerator_1",
          "code": {
            "coding": [ {
              "system": "http://terminology.hl7.org/CodeSystem/measure-population",
              "code": "numerator",
              "display": "Numerator"
            } ]
          },
          "count": 0
        }, {
          "id": "NumeratorExclusion_1",
          "code": {
            "coding": [ {
              "system": "http://terminology.hl7.org/CodeSystem/measure-population",
              "code": "numerator-exclusion",
              "display": "Numerator Exclusion"
            } ]
          },
          "count": 0
        }, {
          "id": "MeasureObservation_1_1_1",
          "code": {
            "coding": [ {
              "system": "http://terminology.hl7.org/CodeSystem/measure-population",
              "code": "measure-observation",
              "display": "Measure Observation"
            } ]
          },
          "count": 0
        } ],
        "measureScore": {
          "value": 0.0
        }
      } ],
      "evaluatedResource": [ {
        "reference": "Condition/b22dc25b-c1d4-4bcf-a42a-768a556089a9"
      }, {
        "reference": "MedicationAdministration/1ce1864b-4f1b-418e-8fcc-77ef61510cef"
      }, {
        "reference": "Encounter/8b53021d-5624-41dc-accb-bc3f35b9cbdc"
      }, {
        "reference": "Patient/fd579f44-757b-4c98-9b09-27b17b935650"
      }, {
        "reference": "Observation/a4853536-c980-4520-8bac-c81afe0811f3"
      } ]
    },
    "request": {
      "method": "PUT",
      "url": "MeasureReport/22df2e2a-404d-4ab0-831a-e2ab043197a2"
    }
  } ]
}