{
  "resourceType": "Bundle",
  "id": "612e6ab802c62a011f2eb11c",
  "type": "transaction",
  "entry": [ {
    "fullUrl": "https://madie.cms.gov/Patient/e3ec8d52-9b22-4b4d-8dad-a411a1053e83",
    "resource": {
      "resourceType": "Patient",
      "id": "e3ec8d52-9b22-4b4d-8dad-a411a1053e83",
      "meta": {
        "profile": [ "http://hl7.org/fhir/us/qicore/StructureDefinition/qicore-patient" ]
      },
      "text": {
        "status": "generated",
        "div": "<div xmlns=\"http://www.w3.org/1999/xhtml\"><div class=\"hapiHeaderText\">EncDx=VTE <b>IPPFAIL </b></div><table class=\"hapiPropertyTable\"><tbody><tr><td>Identifier</td><td>da1a5545aa68e1ac51ebdbfee0df4b4e</td></tr><tr><td>Date of birth</td><td><span>02 January 1974</span></td></tr></tbody></table></div>"
      },
      "extension": [ {
        "url": "http://hl7.org/fhir/us/core/StructureDefinition/us-core-race",
        "extension": [ {
          "url": "ombCategory",
          "valueCoding": {
            "system": "urn:oid:2.16.840.1.113883.6.238",
            "code": "1002-5",
            "display": "American Indian or Alaska Native",
            "userSelected": true
          }
        }, {
          "url": "text",
          "valueString": "American Indian or Alaska Native"
        } ]
      }, {
        "url": "http://hl7.org/fhir/us/core/StructureDefinition/us-core-ethnicity",
        "extension": [ {
          "url": "ombCategory",
          "valueCoding": {
            "system": "urn:oid:2.16.840.1.113883.6.238",
            "code": "2135-2",
            "display": "Hispanic or Latino",
            "userSelected": true
          }
        }, {
          "url": "text",
          "valueString": "Hispanic or Latino"
        } ]
      } ],
      "identifier": [ {
        "type": {
          "coding": [ {
            "system": "http://terminology.hl7.org/CodeSystem/v2-0203",
            "code": "MR"
          } ]
        },
        "system": "https://bonnie-fhir.healthit.gov/",
        "value": "612e6ab802c62a011f2eb11c"
      } ],
      "active": true,
      "name": [ {
        "use": "usual",
        "family": "IPPFail",
        "given": [ "EncDxVTE" ]
      } ],
      "gender": "male",
      "birthDate": "1975-01-02"
    },
    "request": {
      "method": "PUT",
      "url": "Patient/e3ec8d52-9b22-4b4d-8dad-a411a1053e83"
    }
  }, {
    "fullUrl": "https://madie.cms.gov/Encounter/499a2d11-ea9e-4df8-83ad-a1e2adb6188c",
    "resource": {
      "resourceType": "Encounter",
      "id": "499a2d11-ea9e-4df8-83ad-a1e2adb6188c",
      "meta": {
        "profile": [ "http://hl7.org/fhir/us/qicore/StructureDefinition/qicore-encounter" ]
      },
      "status": "finished",
      "class": {
        "system": "http://terminology.hl7.org/CodeSystem/v3-ActCode",
        "code": "IMP",
        "display": "inpatient encounter"
      },
      "type": [ {
        "coding": [ {
          "system": "http://snomed.info/sct",
          "code": "8715000"
        } ]
      } ],
      "subject": {
        "reference": "Patient/e3ec8d52-9b22-4b4d-8dad-a411a1053e83"
      },
      "period": {
        "start": "2026-11-01T08:00:00.000+00:00",
        "end": "2026-11-26T08:15:00.000+00:00"
      },
      "length": {
        "value": 25,
        "unit": "days"
      },
      "reasonReference": [ {
        "reference": "Condition/4add3629-45ee-480d-b42a-9576fcd0ca1c"
      } ]
    },
    "request": {
      "method": "PUT",
      "url": "Encounter/499a2d11-ea9e-4df8-83ad-a1e2adb6188c"
    }
  }, {
    "fullUrl": "https://madie.cms.gov/Coverage/10a29590-0353-490e-817e-5fd526c569c3",
    "resource": {
      "resourceType": "Coverage",
      "id": "10a29590-0353-490e-817e-5fd526c569c3",
      "status": "active",
      "beneficiary": {
        "reference": "Patient/e3ec8d52-9b22-4b4d-8dad-a411a1053e83"
      },
      "period": {
        "start": "1975-01-02T08:00:00.000+00:00"
      },
      "payor": [ {
        "reference": "Organization/ba68e129-3495-4f43-a28b-7443f1a18f8b"
      } ]
    },
    "request": {
      "method": "PUT",
      "url": "Coverage/10a29590-0353-490e-817e-5fd526c569c3"
    }
  }, {
    "fullUrl": "https://madie.cms.gov/MedicationAdministration/a6ae9cde-218a-4ae2-8160-878c7c8c61dd",
    "resource": {
      "resourceType": "MedicationAdministration",
      "id": "a6ae9cde-218a-4ae2-8160-878c7c8c61dd",
      "status": "unknown",
      "medicationCodeableConcept": {
        "coding": [ {
          "system": "http://www.nlm.nih.gov/research/umls/rxnorm",
          "code": "855288"
        } ]
      },
      "subject": {
        "reference": "Patient/e3ec8d52-9b22-4b4d-8dad-a411a1053e83"
      },
      "effectivePeriod": {
        "start": "2026-11-01T09:00:00.000+00:00",
        "end": "2026-11-01T09:15:00.000+00:00"
      }
    },
    "request": {
      "method": "PUT",
      "url": "MedicationAdministration/a6ae9cde-218a-4ae2-8160-878c7c8c61dd"
    }
  }, {
    "fullUrl": "https://madie.cms.gov/Condition/4add3629-45ee-480d-b42a-9576fcd0ca1c",
    "resource": {
      "resourceType": "Condition",
      "id": "4add3629-45ee-480d-b42a-9576fcd0ca1c",
      "meta": {
        "profile": [ "http://hl7.org/fhir/us/qicore/StructureDefinition/qicore-condition-encounter-diagnosis" ]
      },
      "category": [ {
        "coding": [ {
          "system": "http://terminology.hl7.org/CodeSystem/condition-category",
          "code": "encounter-diagnosis",
          "display": "Encounter Diagnosis"
        } ]
      } ],
      "code": {
        "coding": [ {
          "system": "http://snomed.info/sct",
          "version": "2025-03",
          "code": "1001000119102",
          "display": "Pulmonary embolism with pulmonary infarction (disorder)",
          "userSelected": true
        } ]
      },
      "subject": {
        "reference": "Patient/e3ec8d52-9b22-4b4d-8dad-a411a1053e83"
      },
      "recordedDate": "2026-11-02T08:00:00.000+00:00"
    },
    "request": {
      "method": "PUT",
      "url": "Condition/4add3629-45ee-480d-b42a-9576fcd0ca1c"
    }
  }, {
    "fullUrl": "https://madie.cms.gov/Organization/ba68e129-3495-4f43-a28b-7443f1a18f8b",
    "resource": {
      "resourceType": "Organization",
      "id": "ba68e129-3495-4f43-a28b-7443f1a18f8b",
      "meta": {
        "profile": [ "http://hl7.org/fhir/us/qicore/StructureDefinition/qicore-organization" ]
      },
      "identifier": [ {
        "use": "temp",
        "system": "urn:oid:2.16.840.1.113883.4.4",
        "value": "21-3259825"
      } ],
      "active": true,
      "type": [ {
        "coding": [ {
          "system": "http://terminology.hl7.org/CodeSystem/organization-type",
          "code": "pay",
          "display": "Payer"
        } ]
      } ],
      "name": "Blue Cross Blue Shield of Texas",
      "telecom": [ {
        "system": "phone",
        "value": "(+1) 972-766-6900"
      } ],
      "address": [ {
        "use": "billing",
        "type": "postal",
        "line": [ "P.O. Box 660044" ],
        "city": "Dallas",
        "state": "TX",
        "postalCode": "75266-0044",
        "country": "USA"
      } ]
    },
    "request": {
      "method": "PUT",
      "url": "Organization/ba68e129-3495-4f43-a28b-7443f1a18f8b"
    }
  }, {
    "fullUrl": "https://madie.cms.gov/Practitioner/0b9e8236-ea2d-41f0-91b0-833a8b678f03",
    "resource": {
      "resourceType": "Practitioner",
      "id": "0b9e8236-ea2d-41f0-91b0-833a8b678f03",
      "identifier": [ {
        "system": "http://hl7.org/fhir/sid/us-npi",
        "value": "123456"
      } ],
      "name": [ {
        "family": "Evil",
        "prefix": [ "Dr" ]
      } ]
    },
    "request": {
      "method": "PUT",
      "url": "Practitioner/0b9e8236-ea2d-41f0-91b0-833a8b678f03"
    }
  }, {
    "fullUrl": "https://madie.cms.gov/MeasureReport/53dbdfb6-e4ad-49c4-af1b-70aab5a02676",
    "resource": {
      "resourceType": "MeasureReport",
      "id": "53dbdfb6-e4ad-49c4-af1b-70aab5a02676",
      "meta": {
        "profile": [ "http://hl7.org/fhir/us/cqfmeasures/StructureDefinition/test-case-cqfm" ]
      },
      "contained": [ {
        "resourceType": "Parameters",
        "id": "263dd367-c0e3-43f3-8ece-1ab84f2da7c9-parameters",
        "parameter": [ {
          "name": "subject",
          "valueString": "e3ec8d52-9b22-4b4d-8dad-a411a1053e83"
        } ]
      } ],
      "extension": [ {
        "url": "http://hl7.org/fhir/StructureDefinition/cqf-inputParameters",
        "valueReference": {
          "reference": "#263dd367-c0e3-43f3-8ece-1ab84f2da7c9-parameters"
        }
      }, {
        "url": "http://hl7.org/fhir/us/cqfmeasures/StructureDefinition/cqfm-testCaseDescription",
        "valueMarkdown": "patient is > 18 years, LOS < 120 days during MP with dx of VTE and warfarin administered\n"
      } ],
      "modifierExtension": [ {
        "url": "http://hl7.org/fhir/us/cqfmeasures/StructureDefinition/cqfm-isTestCase",
        "valueBoolean": true
      } ],
      "status": "complete",
      "type": "individual",
      "measure": "https://madie.cms.gov/Measure/CMS108FHIRVTEProphylaxis",
      "period": {
        "start": "2026-01-01",
        "end": "2026-12-31"
      },
      "group": [ {
        "id": "Group_1",
        "population": [ {
          "id": "InitialPopulation_1",
          "code": {
            "coding": [ {
              "system": "http://terminology.hl7.org/CodeSystem/measure-population",
              "code": "initial-population",
              "display": "Initial Population"
            } ]
          },
          "count": 0
        }, {
          "id": "Denominator_1",
          "code": {
            "coding": [ {
              "system": "http://terminology.hl7.org/CodeSystem/measure-population",
              "code": "denominator",
              "display": "Denominator"
            } ]
          },
          "count": 0
        }, {
          "id": "DenominatorExclusion_1",
          "code": {
            "coding": [ {
              "system": "http://terminology.hl7.org/CodeSystem/measure-population",
              "code": "denominator-exclusion",
              "display": "Denominator Exclusion"
            } ]
          },
          "count": 0
        }, {
          "id": "Numerator_1",
          "code": {
            "coding": [ {
              "system": "http://terminology.hl7.org/CodeSystem/measure-population",
              "code": "numerator",
              "display": "Numerator"
            } ]
          },
          "count": 0
        } ],
        "measureScore": {
          "value": 0.0
        }
      } ],
      "evaluatedResource": [ {
        "reference": "Patient/e3ec8d52-9b22-4b4d-8dad-a411a1053e83"
      }, {
        "reference": "Encounter/499a2d11-ea9e-4df8-83ad-a1e2adb6188c"
      }, {
        "reference": "Coverage/10a29590-0353-490e-817e-5fd526c569c3"
      }, {
        "reference": "MedicationAdministration/a6ae9cde-218a-4ae2-8160-878c7c8c61dd"
      }, {
        "reference": "Condition/4add3629-45ee-480d-b42a-9576fcd0ca1c"
      }, {
        "reference": "Organization/ba68e129-3495-4f43-a28b-7443f1a18f8b"
      }, {
        "reference": "Practitioner/0b9e8236-ea2d-41f0-91b0-833a8b678f03"
      } ]
    },
    "request": {
      "method": "PUT",
      "url": "MeasureReport/53dbdfb6-e4ad-49c4-af1b-70aab5a02676"
    }
  } ]
}