{
  "resourceType": "Bundle",
  "id": "tests-NUMERFail-GlucoseLT40BeforeHypoMed-bundle",
  "type": "transaction",
  "entry": [ {
    "fullUrl": "https://madie.cms.gov/Encounter/7fb600c8-da24-4ccc-8853-5f81b00e7810",
    "resource": {
      "resourceType": "Encounter",
      "id": "7fb600c8-da24-4ccc-8853-5f81b00e7810",
      "meta": {
        "profile": [ "http://hl7.org/fhir/us/qicore/StructureDefinition/qicore-encounter" ]
      },
      "status": "finished",
      "class": {
        "system": "http://terminology.hl7.org/CodeSystem/v3-ActCode",
        "code": "EMER",
        "display": "emergency"
      },
      "type": [ {
        "coding": [ {
          "system": "http://snomed.info/sct",
          "code": "4525004",
          "display": "Emergency department patient visit"
        } ]
      } ],
      "subject": {
        "reference": "Patient/e066b98f-0c36-4f71-9b18-ad76854e27c6"
      },
      "period": {
        "start": "2026-11-11T08:00:00.000Z",
        "end": "2026-11-12T08:00:00.000Z"
      }
    },
    "request": {
      "method": "PUT",
      "url": "Encounter/7fb600c8-da24-4ccc-8853-5f81b00e7810"
    }
  }, {
    "fullUrl": "https://madie.cms.gov/Encounter/a5e2044b-c609-4a86-ae2d-d418a0200472",
    "resource": {
      "resourceType": "Encounter",
      "id": "a5e2044b-c609-4a86-ae2d-d418a0200472",
      "meta": {
        "profile": [ "http://hl7.org/fhir/us/qicore/StructureDefinition/qicore-encounter" ]
      },
      "status": "finished",
      "class": {
        "system": "http://terminology.hl7.org/CodeSystem/v3-ActCode",
        "code": "IMP",
        "display": "Inpatient encounter"
      },
      "type": [ {
        "coding": [ {
          "system": "http://snomed.info/sct",
          "code": "183452005",
          "display": "Emergency hospital admission"
        } ]
      } ],
      "subject": {
        "reference": "Patient/e066b98f-0c36-4f71-9b18-ad76854e27c6"
      },
      "period": {
        "start": "2026-11-12T08:00:00.000Z",
        "end": "2026-11-14T08:15:00.000Z"
      }
    },
    "request": {
      "method": "PUT",
      "url": "Encounter/a5e2044b-c609-4a86-ae2d-d418a0200472"
    }
  }, {
    "fullUrl": "https://madie.cms.gov/MedicationAdministration/8e7bc115-4286-4ebe-aa35-ce2019443452",
    "resource": {
      "resourceType": "MedicationAdministration",
      "id": "8e7bc115-4286-4ebe-aa35-ce2019443452",
      "meta": {
        "profile": [ "http://hl7.org/fhir/us/qicore/StructureDefinition/qicore-medicationadministration" ]
      },
      "status": "completed",
      "medicationCodeableConcept": {
        "coding": [ {
          "system": "http://www.nlm.nih.gov/research/umls/rxnorm",
          "code": "1604539",
          "display": "1.5 ML insulin glargine 300 UNT/ML Pen Injector"
        } ]
      },
      "subject": {
        "reference": "Patient/e066b98f-0c36-4f71-9b18-ad76854e27c6"
      },
      "effectivePeriod": {
        "start": "2026-11-11T08:20:00.000Z",
        "end": "2026-11-11T08:25:00.000Z"
      }
    },
    "request": {
      "method": "PUT",
      "url": "MedicationAdministration/8e7bc115-4286-4ebe-aa35-ce2019443452"
    }
  }, {
    "fullUrl": "https://madie.cms.gov/Observation/6cef6ca8-2042-402b-b8ab-fb9f73a6cac5",
    "resource": {
      "resourceType": "Observation",
      "id": "6cef6ca8-2042-402b-b8ab-fb9f73a6cac5",
      "meta": {
        "profile": [ "http://hl7.org/fhir/us/qicore/StructureDefinition/qicore-observation-lab" ]
      },
      "status": "final",
      "category": [ {
        "coding": [ {
          "system": "http://terminology.hl7.org/CodeSystem/observation-category",
          "code": "laboratory",
          "display": "Laboratory"
        } ]
      } ],
      "code": {
        "coding": [ {
          "system": "http://loinc.org",
          "code": "1556-0",
          "display": "Fasting glucose [Mass/volume] in Capillary blood"
        } ]
      },
      "subject": {
        "reference": "Patient/e066b98f-0c36-4f71-9b18-ad76854e27c6"
      },
      "effectivePeriod": {
        "start": "2026-11-11T08:19:00.000Z",
        "end": "2026-11-11T08:19:00.000Z"
      },
      "issued": "2026-11-11T08:19:00.000Z",
      "valueQuantity": {
        "value": 39,
        "unit": "mg/dL"
      }
    },
    "request": {
      "method": "PUT",
      "url": "Observation/6cef6ca8-2042-402b-b8ab-fb9f73a6cac5"
    }
  }, {
    "fullUrl": "https://madie.cms.gov/Patient/e066b98f-0c36-4f71-9b18-ad76854e27c6",
    "resource": {
      "resourceType": "Patient",
      "id": "e066b98f-0c36-4f71-9b18-ad76854e27c6",
      "meta": {
        "profile": [ "http://hl7.org/fhir/us/qicore/StructureDefinition/qicore-patient" ]
      },
      "extension": [ {
        "url": "http://hl7.org/fhir/us/core/StructureDefinition/us-core-race",
        "extension": [ {
          "url": "ombCategory",
          "valueCoding": {
            "system": "urn:oid:2.16.840.1.113883.6.238",
            "code": "2106-3",
            "display": "White"
          }
        }, {
          "url": "text",
          "valueString": "White"
        } ]
      }, {
        "url": "http://hl7.org/fhir/us/core/StructureDefinition/us-core-ethnicity",
        "extension": [ {
          "url": "ombCategory",
          "valueCoding": {
            "system": "urn:oid:2.16.840.1.113883.6.238",
            "code": "2135-2",
            "display": "Hispanic or Latino"
          }
        }, {
          "url": "text",
          "valueString": "Hispanic or Latino"
        } ]
      }, {
        "url": "http://hl7.org/fhir/us/core/StructureDefinition/us-core-sex",
        "valueCode": "248153007"
      } ],
      "identifier": [ {
        "system": "http://hospital.smarthealthit.org",
        "value": "999999999"
      } ],
      "name": [ {
        "family": "Example",
        "given": [ "Patient" ]
      } ],
      "gender": "female",
      "birthDate": "2000-07-11"
    },
    "request": {
      "method": "PUT",
      "url": "Patient/e066b98f-0c36-4f71-9b18-ad76854e27c6"
    }
  }, {
    "fullUrl": "https://madie.cms.gov/MeasureReport/4f3bbe8d-68ce-4434-be84-2c02a8012b57",
    "resource": {
      "resourceType": "MeasureReport",
      "id": "4f3bbe8d-68ce-4434-be84-2c02a8012b57",
      "meta": {
        "profile": [ "http://hl7.org/fhir/us/cqfmeasures/StructureDefinition/test-case-cqfm" ]
      },
      "contained": [ {
        "resourceType": "Parameters",
        "id": "dcc55754-8739-40e1-a2bd-bfc98e39bd04-parameters",
        "parameter": [ {
          "name": "subject",
          "valueString": "e066b98f-0c36-4f71-9b18-ad76854e27c6"
        } ]
      } ],
      "extension": [ {
        "url": "http://hl7.org/fhir/StructureDefinition/cqf-inputParameters",
        "valueReference": {
          "reference": "#dcc55754-8739-40e1-a2bd-bfc98e39bd04-parameters"
        }
      }, {
        "url": "http://hl7.org/fhir/us/cqfmeasures/StructureDefinition/cqfm-testCaseDescription",
        "valueMarkdown": "Pt had glucose <40 but it was 1 minute before hypo med administered. Must be <40 within 24 hour AFTER hypo medication to meet numerator. Numerator fail. (CMS #16)"
      } ],
      "modifierExtension": [ {
        "url": "http://hl7.org/fhir/us/cqfmeasures/StructureDefinition/cqfm-isTestCase",
        "valueBoolean": true
      } ],
      "status": "complete",
      "type": "individual",
      "measure": "https://madie.cms.gov/Measure/NHSNGlycemicControlHypoglycemiaInitialPopulation",
      "period": {
        "start": "2026-01-01",
        "end": "2026-12-31"
      },
      "group": [ {
        "id": "Group_1",
        "population": [ {
          "id": "InitialPopulation_1",
          "code": {
            "coding": [ {
              "system": "http://terminology.hl7.org/CodeSystem/measure-population",
              "code": "initial-population",
              "display": "Initial Population"
            } ]
          },
          "count": 1
        } ],
        "measureScore": {
          "value": 0.0
        }
      } ],
      "evaluatedResource": [ {
        "reference": "Encounter/7fb600c8-da24-4ccc-8853-5f81b00e7810"
      }, {
        "reference": "Encounter/a5e2044b-c609-4a86-ae2d-d418a0200472"
      }, {
        "reference": "MedicationAdministration/8e7bc115-4286-4ebe-aa35-ce2019443452"
      }, {
        "reference": "Observation/6cef6ca8-2042-402b-b8ab-fb9f73a6cac5"
      }, {
        "reference": "Patient/e066b98f-0c36-4f71-9b18-ad76854e27c6"
      } ]
    },
    "request": {
      "method": "PUT",
      "url": "MeasureReport/4f3bbe8d-68ce-4434-be84-2c02a8012b57"
    }
  } ]
}