{
  "resourceType": "Bundle",
  "id": "62a8ed517cd4224805183904",
  "type": "collection",
  "entry": [ {
    "fullUrl": "https://madie.cms.gov/Patient/f2b9b006-6580-4857-b336-f8a962bf3065",
    "resource": {
      "resourceType": "Patient",
      "id": "f2b9b006-6580-4857-b336-f8a962bf3065",
      "meta": {
        "profile": [ "http://hl7.org/fhir/us/qicore/StructureDefinition/qicore-patient" ]
      },
      "extension": [ {
        "url": "http://hl7.org/fhir/us/core/StructureDefinition/us-core-race",
        "extension": [ {
          "url": "ombCategory",
          "valueCoding": {
            "system": "urn:oid:2.16.840.1.113883.6.238",
            "code": "1002-5",
            "display": "American Indian or Alaska Native",
            "userSelected": true
          }
        }, {
          "url": "text",
          "valueString": "American Indian or Alaska Native"
        } ]
      }, {
        "url": "http://hl7.org/fhir/us/core/StructureDefinition/us-core-ethnicity",
        "extension": [ {
          "url": "ombCategory",
          "valueCoding": {
            "system": "urn:oid:2.16.840.1.113883.6.238",
            "code": "2135-2",
            "display": "Hispanic or Latino",
            "userSelected": true
          }
        }, {
          "url": "text",
          "valueString": "Hispanic or Latino"
        } ]
      } ],
      "identifier": [ {
        "type": {
          "coding": [ {
            "system": "http://terminology.hl7.org/CodeSystem/v2-0203",
            "code": "MR"
          } ]
        },
        "system": "https://bonnie-fhir.healthit.gov/",
        "value": "62a8ed517cd4224805183904"
      } ],
      "name": [ {
        "family": "DENEXCEPPass",
        "given": [ "PatientDeclinedBP" ]
      } ],
      "gender": "male",
      "birthDate": "2006-12-31"
    }
  }, {
    "fullUrl": "https://madie.cms.gov/Encounter/cc3c2b19-bc82-4cbe-93d9-0bbe225495da",
    "resource": {
      "resourceType": "Encounter",
      "id": "cc3c2b19-bc82-4cbe-93d9-0bbe225495da",
      "meta": {
        "profile": [ "http://hl7.org/fhir/us/qicore/StructureDefinition/qicore-encounter" ]
      },
      "status": "finished",
      "class": {
        "system": "http://terminology.hl7.org/CodeSystem/v3-ActCode",
        "code": "AMB",
        "display": "ambulatory"
      },
      "type": [ {
        "coding": [ {
          "system": "http://snomed.info/sct",
          "version": "2022-09",
          "code": "103705002",
          "display": "Patient status observation (procedure)",
          "userSelected": true
        } ]
      } ],
      "subject": {
        "reference": "Patient/f2b9b006-6580-4857-b336-f8a962bf3065"
      },
      "period": {
        "start": "2026-01-01T08:00:00.000Z",
        "end": "2026-01-01T09:15:00.000Z"
      }
    }
  }, {
    "fullUrl": "https://madie.cms.gov/Observation/deea384e-7b8a-438f-ba3f-c92fe5f55e4f",
    "resource": {
      "resourceType": "Observation",
      "id": "deea384e-7b8a-438f-ba3f-c92fe5f55e4f",
      "meta": {
        "profile": [ "http://hl7.org/fhir/us/qicore/StructureDefinition/qicore-observationcancelled" ]
      },
      "extension": [ {
        "url": "http://hl7.org/fhir/us/qicore/StructureDefinition/qicore-notDoneReason",
        "valueCodeableConcept": {
          "coding": [ {
            "system": "http://snomed.info/sct",
            "code": "413311005",
            "display": "Patient non-compliant - declined intervention / support (situation)",
            "userSelected": true
          } ]
        }
      } ],
      "status": "cancelled",
      "category": [ {
        "coding": [ {
          "system": "http://terminology.hl7.org/CodeSystem/observation-category",
          "code": "vital-signs",
          "display": "Vital Signs"
        } ]
      } ],
      "code": {
        "coding": [ {
          "system": "http://loinc.org",
          "code": "8480-6",
          "display": "Systolic blood pressure",
          "userSelected": true
        }, {
          "system": "http://loinc.org",
          "code": "8462-4",
          "display": "Diastolic blood pressure",
          "userSelected": true
        }, {
          "system": "http://loinc.org",
          "code": "85354-9",
          "display": "Blood pressure panel with all children optional"
        } ]
      },
      "subject": {
        "reference": "Patient/f2b9b006-6580-4857-b336-f8a962bf3065"
      },
      "effectiveDateTime": "2026-01-01T08:10:00.000Z",
      "issued": "2026-01-01T08:05:00.000Z",
      "component": [ {
        "code": {
          "coding": [ {
            "system": "http://loinc.org",
            "code": "8480-6",
            "display": "Systolic blood pressure"
          } ]
        },
        "dataAbsentReason": {
          "coding": [ {
            "system": "http://terminology.hl7.org/CodeSystem/data-absent-reason",
            "code": "not-performed",
            "display": "Not Performed"
          } ]
        }
      }, {
        "code": {
          "coding": [ {
            "system": "http://loinc.org",
            "code": "8462-4",
            "display": "Diastolic blood pressure"
          } ]
        },
        "dataAbsentReason": {
          "coding": [ {
            "system": "http://terminology.hl7.org/CodeSystem/data-absent-reason",
            "code": "not-performed",
            "display": "Not Performed"
          } ]
        }
      } ]
    }
  }, {
    "fullUrl": "https://madie.cms.gov/Coverage/b85fb593-5511-4569-8529-704a298e0a8d",
    "resource": {
      "resourceType": "Coverage",
      "id": "b85fb593-5511-4569-8529-704a298e0a8d",
      "meta": {
        "profile": [ "http://hl7.org/fhir/us/qicore/StructureDefinition/qicore-coverage" ]
      },
      "status": "active",
      "subscriberId": "584621",
      "beneficiary": {
        "reference": "Patient/f2b9b006-6580-4857-b336-f8a962bf3065"
      },
      "relationship": {
        "coding": [ {
          "system": "http://terminology.hl7.org/CodeSystem/subscriber-relationship",
          "code": "self",
          "display": "Self"
        } ]
      },
      "payor": [ {
        "reference": "Organization/9d693a85-ae30-4ab4-b670-cd198e470621"
      } ]
    }
  }, {
    "fullUrl": "https://madie.cms.gov/Organization/9d693a85-ae30-4ab4-b670-cd198e470621",
    "resource": {
      "resourceType": "Organization",
      "id": "9d693a85-ae30-4ab4-b670-cd198e470621",
      "meta": {
        "profile": [ "http://hl7.org/fhir/us/qicore/StructureDefinition/qicore-organization" ]
      },
      "identifier": [ {
        "use": "temp",
        "system": "urn:oid:2.16.840.1.113883.4.4",
        "value": "21-3259825"
      } ],
      "active": true,
      "type": [ {
        "coding": [ {
          "system": "http://terminology.hl7.org/CodeSystem/organization-type",
          "code": "pay",
          "display": "Payer"
        } ]
      } ],
      "name": "Blue Cross Blue Shield of Texas",
      "telecom": [ {
        "system": "phone",
        "value": "(+1) 972-766-6900"
      } ],
      "address": [ {
        "use": "billing",
        "type": "postal",
        "line": [ "P.O. Box 660044" ],
        "city": "Dallas",
        "state": "TX",
        "postalCode": "75266-0044",
        "country": "USA"
      } ]
    }
  }, {
    "fullUrl": "https://madie.cms.gov/Practitioner/abf16c3c-709e-424f-aba2-81d6c62efa0b",
    "resource": {
      "resourceType": "Practitioner",
      "id": "abf16c3c-709e-424f-aba2-81d6c62efa0b",
      "meta": {
        "profile": [ "http://hl7.org/fhir/us/qicore/StructureDefinition/qicore-practitioner" ]
      },
      "identifier": [ {
        "system": "http://hl7.org/fhir/sid/us-npi",
        "value": "1003802901"
      } ],
      "name": [ {
        "family": "Evil",
        "prefix": [ "Dr" ]
      } ]
    }
  }, {
    "fullUrl": "https://madie.cms.gov/MeasureReport/e3459c5c-bcc8-4551-97a1-60915f790163",
    "resource": {
      "resourceType": "MeasureReport",
      "id": "e3459c5c-bcc8-4551-97a1-60915f790163",
      "meta": {
        "profile": [ "http://hl7.org/fhir/us/cqfmeasures/StructureDefinition/test-case-cqfm" ]
      },
      "contained": [ {
        "resourceType": "Parameters",
        "id": "e1616065-fd29-47b8-9602-f403c52b6c8e-parameters",
        "parameter": [ {
          "name": "subject",
          "valueString": "f2b9b006-6580-4857-b336-f8a962bf3065"
        } ]
      } ],
      "extension": [ {
        "url": "http://hl7.org/fhir/StructureDefinition/cqf-inputParameters",
        "valueReference": {
          "reference": "#e1616065-fd29-47b8-9602-f403c52b6c8e-parameters"
        }
      }, {
        "url": "http://hl7.org/fhir/us/cqfmeasures/StructureDefinition/cqfm-testCaseDescription",
        "valueMarkdown": "Encounter first day of MP, patient refused BP measurement, "
      } ],
      "modifierExtension": [ {
        "url": "http://hl7.org/fhir/us/cqfmeasures/StructureDefinition/cqfm-isTestCase",
        "valueBoolean": true
      } ],
      "status": "complete",
      "type": "individual",
      "measure": "https://madie.cms.gov/Measure/CMS22FHIRPCSBPScreeningFollowUp",
      "period": {
        "start": "2026-01-01",
        "end": "2026-12-31"
      },
      "group": [ {
        "id": "Group_1",
        "population": [ {
          "id": "InitialPopulation_1",
          "code": {
            "coding": [ {
              "system": "http://terminology.hl7.org/CodeSystem/measure-population",
              "code": "initial-population",
              "display": "Initial Population"
            } ]
          },
          "count": 1
        }, {
          "id": "Denominator_1",
          "code": {
            "coding": [ {
              "system": "http://terminology.hl7.org/CodeSystem/measure-population",
              "code": "denominator",
              "display": "Denominator"
            } ]
          },
          "count": 1
        }, {
          "id": "DenominatorExclusion_1",
          "code": {
            "coding": [ {
              "system": "http://terminology.hl7.org/CodeSystem/measure-population",
              "code": "denominator-exclusion",
              "display": "Denominator Exclusion"
            } ]
          },
          "count": 0
        }, {
          "id": "Numerator_1",
          "code": {
            "coding": [ {
              "system": "http://terminology.hl7.org/CodeSystem/measure-population",
              "code": "numerator",
              "display": "Numerator"
            } ]
          },
          "count": 0
        }, {
          "id": "DenominatorException_1",
          "code": {
            "coding": [ {
              "system": "http://terminology.hl7.org/CodeSystem/measure-population",
              "code": "denominator-exception",
              "display": "Denominator Exception"
            } ]
          },
          "count": 1
        } ],
        "measureScore": {
          "value": 0.0
        }
      } ],
      "evaluatedResource": [ {
        "reference": "Patient/f2b9b006-6580-4857-b336-f8a962bf3065"
      }, {
        "reference": "Encounter/cc3c2b19-bc82-4cbe-93d9-0bbe225495da"
      }, {
        "reference": "Observation/deea384e-7b8a-438f-ba3f-c92fe5f55e4f"
      }, {
        "reference": "Coverage/b85fb593-5511-4569-8529-704a298e0a8d"
      }, {
        "reference": "Organization/9d693a85-ae30-4ab4-b670-cd198e470621"
      }, {
        "reference": "Practitioner/abf16c3c-709e-424f-aba2-81d6c62efa0b"
      } ]
    }
  } ]
}