{
  "resourceType": "Bundle",
  "id": "617835c74bf8e25b8f204e27",
  "type": "transaction",
  "entry": [ {
    "fullUrl": "https://madie.cms.gov/Patient/4a3a512c-b5bd-4da7-a8ed-a4cf56dfec29",
    "resource": {
      "resourceType": "Patient",
      "id": "4a3a512c-b5bd-4da7-a8ed-a4cf56dfec29",
      "meta": {
        "profile": [ "http://hl7.org/fhir/us/qicore/StructureDefinition/qicore-patient" ]
      },
      "extension": [ {
        "url": "http://hl7.org/fhir/us/core/StructureDefinition/us-core-race",
        "extension": [ {
          "url": "ombCategory",
          "valueCoding": {
            "system": "urn:oid:2.16.840.1.113883.6.238",
            "code": "2076-8",
            "display": "Native Hawaiian or Other Pacific Islander",
            "userSelected": true
          }
        }, {
          "url": "text",
          "valueString": "Native Hawaiian or Other Pacific Islander"
        } ]
      }, {
        "url": "http://hl7.org/fhir/us/core/StructureDefinition/us-core-ethnicity",
        "extension": [ {
          "url": "ombCategory",
          "valueCoding": {
            "system": "urn:oid:2.16.840.1.113883.6.238",
            "code": "2186-5",
            "display": "Not Hispanic or Latino",
            "userSelected": true
          }
        }, {
          "url": "text",
          "valueString": "Not Hispanic or Latino"
        } ]
      }, {
        "url": "http://hl7.org/fhir/us/core/StructureDefinition/us-core-sex",
        "valueCode": "248153007"
      } ],
      "identifier": [ {
        "type": {
          "coding": [ {
            "system": "http://terminology.hl7.org/CodeSystem/v2-0203",
            "code": "MR"
          } ]
        },
        "system": "https://bonnie-fhir.healthit.gov/",
        "value": "617835c74bf8e25b8f204e27"
      } ],
      "name": [ {
        "family": "NumPass",
        "given": [ "Depart45MinsFromEDStart" ]
      } ],
      "gender": "female",
      "birthDate": "1985-12-02"
    },
    "request": {
      "method": "PUT",
      "url": "Patient/4a3a512c-b5bd-4da7-a8ed-a4cf56dfec29"
    }
  }, {
    "fullUrl": "https://madie.cms.gov/Encounter/6b13a160-8ae3-448b-9787-7f02b0b5ab6a",
    "resource": {
      "resourceType": "Encounter",
      "id": "6b13a160-8ae3-448b-9787-7f02b0b5ab6a",
      "meta": {
        "profile": [ "http://hl7.org/fhir/us/qicore/StructureDefinition/qicore-encounter" ]
      },
      "status": "finished",
      "class": {
        "system": "http://terminology.hl7.org/CodeSystem/v3-ActCode",
        "code": "EMER",
        "display": "emergency",
        "userSelected": true
      },
      "type": [ {
        "coding": [ {
          "system": "http://snomed.info/sct",
          "version": "2020-09",
          "code": "4525004",
          "display": "Emergency department patient visit (procedure)",
          "userSelected": true
        } ]
      } ],
      "subject": {
        "reference": "Patient/4a3a512c-b5bd-4da7-a8ed-a4cf56dfec29"
      },
      "period": {
        "start": "2026-10-09T08:00:00.000+00:00",
        "end": "2026-10-09T08:50:00.000+00:00"
      },
      "reasonReference": [ {
        "reference": "Condition/435fbd69-dd07-4ce3-8247-1f88dfd62245"
      } ],
      "hospitalization": {
        "dischargeDisposition": {
          "coding": [ {
            "system": "http://snomed.info/sct",
            "version": "2020-09",
            "code": "306703003",
            "display": "Discharge to tertiary referral hospital (procedure)",
            "userSelected": true
          } ]
        }
      },
      "location": [ {
        "location": {
          "reference": "Location/77674961-5ba2-4ed0-a938-ae36fad5a557"
        },
        "period": {
          "start": "2026-10-09T08:05:00.000+00:00",
          "end": "2026-10-09T08:50:00.000+00:00"
        }
      } ]
    },
    "request": {
      "method": "PUT",
      "url": "Encounter/6b13a160-8ae3-448b-9787-7f02b0b5ab6a"
    }
  }, {
    "fullUrl": "https://madie.cms.gov/Location/77674961-5ba2-4ed0-a938-ae36fad5a557",
    "resource": {
      "resourceType": "Location",
      "id": "77674961-5ba2-4ed0-a938-ae36fad5a557",
      "meta": {
        "profile": [ "http://hl7.org/fhir/us/qicore/StructureDefinition/qicore-location" ]
      },
      "identifier": [ {
        "use": "usual",
        "system": "http://exampleoflocation.com",
        "value": "ED-1.R3"
      } ],
      "name": "Emergency Department, first floor",
      "type": [ {
        "coding": [ {
          "system": "http://terminology.hl7.org/CodeSystem/v3-RoleCode",
          "version": "2019",
          "code": "ER",
          "display": "Emergency room",
          "userSelected": true
        } ]
      } ]
    },
    "request": {
      "method": "PUT",
      "url": "Location/77674961-5ba2-4ed0-a938-ae36fad5a557"
    }
  }, {
    "fullUrl": "https://madie.cms.gov/Condition/435fbd69-dd07-4ce3-8247-1f88dfd62245",
    "resource": {
      "resourceType": "Condition",
      "id": "435fbd69-dd07-4ce3-8247-1f88dfd62245",
      "meta": {
        "profile": [ "http://hl7.org/fhir/us/qicore/StructureDefinition/qicore-condition-encounter-diagnosis" ]
      },
      "clinicalStatus": {
        "coding": [ {
          "system": "http://terminology.hl7.org/CodeSystem/condition-clinical",
          "code": "active",
          "display": "active",
          "userSelected": true
        } ]
      },
      "category": [ {
        "coding": [ {
          "system": "http://terminology.hl7.org/CodeSystem/condition-category",
          "code": "encounter-diagnosis",
          "display": "Encounter Diagnosis",
          "userSelected": true
        } ]
      } ],
      "code": {
        "coding": [ {
          "system": "http://hl7.org/fhir/sid/icd-10-cm",
          "code": "I21.3",
          "userSelected": true
        } ]
      },
      "subject": {
        "reference": "Patient/4a3a512c-b5bd-4da7-a8ed-a4cf56dfec29"
      },
      "onsetDateTime": "2026-10-09T08:11:00.000+00:00"
    },
    "request": {
      "method": "PUT",
      "url": "Condition/435fbd69-dd07-4ce3-8247-1f88dfd62245"
    }
  }, {
    "fullUrl": "https://madie.cms.gov/MeasureReport/679213d9-e7ab-404a-9f9f-a086dd9fdb61",
    "resource": {
      "resourceType": "MeasureReport",
      "id": "679213d9-e7ab-404a-9f9f-a086dd9fdb61",
      "meta": {
        "profile": [ "http://hl7.org/fhir/us/cqfmeasures/StructureDefinition/test-case-cqfm" ]
      },
      "contained": [ {
        "resourceType": "Parameters",
        "id": "3c8c6a2e-4b5c-466c-a647-68979e21c644-parameters",
        "parameter": [ {
          "name": "subject",
          "valueString": "4a3a512c-b5bd-4da7-a8ed-a4cf56dfec29"
        } ]
      } ],
      "extension": [ {
        "url": "http://hl7.org/fhir/StructureDefinition/cqf-inputParameters",
        "valueReference": {
          "reference": "#3c8c6a2e-4b5c-466c-a647-68979e21c644-parameters"
        }
      }, {
        "url": "http://hl7.org/fhir/us/cqfmeasures/StructureDefinition/cqfm-testCaseDescription",
        "valueMarkdown": "ED ends 45 minutes after start time to be transferred to acute care facility. Location uses \"ER\" from ServiceDeliveryLocationRoleType."
      } ],
      "modifierExtension": [ {
        "url": "http://hl7.org/fhir/us/cqfmeasures/StructureDefinition/cqfm-isTestCase",
        "valueBoolean": true
      } ],
      "status": "complete",
      "type": "individual",
      "measure": "https://madie.cms.gov/Measure/CMS996FHIRAptTxforSTEMI",
      "period": {
        "start": "2026-01-01",
        "end": "2026-12-31"
      },
      "group": [ {
        "id": "Group_1",
        "population": [ {
          "id": "InitialPopulation_1",
          "code": {
            "coding": [ {
              "system": "http://terminology.hl7.org/CodeSystem/measure-population",
              "code": "initial-population",
              "display": "Initial Population"
            } ]
          },
          "count": 1
        }, {
          "id": "Denominator_1",
          "code": {
            "coding": [ {
              "system": "http://terminology.hl7.org/CodeSystem/measure-population",
              "code": "denominator",
              "display": "Denominator"
            } ]
          },
          "count": 1
        }, {
          "id": "DenominatorExclusion_1",
          "code": {
            "coding": [ {
              "system": "http://terminology.hl7.org/CodeSystem/measure-population",
              "code": "denominator-exclusion",
              "display": "Denominator Exclusion"
            } ]
          },
          "count": 0
        }, {
          "id": "Numerator_1",
          "code": {
            "coding": [ {
              "system": "http://terminology.hl7.org/CodeSystem/measure-population",
              "code": "numerator",
              "display": "Numerator"
            } ]
          },
          "count": 1
        }, {
          "id": "DenominatorException_1",
          "code": {
            "coding": [ {
              "system": "http://terminology.hl7.org/CodeSystem/measure-population",
              "code": "denominator-exception",
              "display": "Denominator Exception"
            } ]
          },
          "count": 0
        } ],
        "measureScore": {
          "value": 0.0
        }
      } ],
      "evaluatedResource": [ {
        "reference": "Patient/4a3a512c-b5bd-4da7-a8ed-a4cf56dfec29"
      }, {
        "reference": "Encounter/6b13a160-8ae3-448b-9787-7f02b0b5ab6a"
      }, {
        "reference": "Location/77674961-5ba2-4ed0-a938-ae36fad5a557"
      }, {
        "reference": "Condition/435fbd69-dd07-4ce3-8247-1f88dfd62245"
      } ]
    },
    "request": {
      "method": "PUT",
      "url": "MeasureReport/679213d9-e7ab-404a-9f9f-a086dd9fdb61"
    }
  } ]
}