{
  "resourceType": "Bundle",
  "id": "612e6ebe02c62a011f2ef6d6",
  "type": "transaction",
  "entry": [ {
    "fullUrl": "https://madie.cms.gov/Patient/2a49e02a-3b3c-4c0c-940f-6ed02318dac3",
    "resource": {
      "resourceType": "Patient",
      "id": "2a49e02a-3b3c-4c0c-940f-6ed02318dac3",
      "meta": {
        "profile": [ "http://hl7.org/fhir/us/qicore/StructureDefinition/qicore-patient" ]
      },
      "text": {
        "status": "generated",
        "div": "<div xmlns=\"http://www.w3.org/1999/xhtml\"><div class=\"hapiHeaderText\">DxVTEEnds1MinB4Enc <b>IPPASS </b></div><table class=\"hapiPropertyTable\"><tbody><tr><td>Identifier</td><td>15831b441c89561ff164a7e768ea0c51</td></tr><tr><td>Date of birth</td><td><span>03 March 1974</span></td></tr></tbody></table></div>"
      },
      "extension": [ {
        "url": "http://hl7.org/fhir/us/core/StructureDefinition/us-core-race",
        "extension": [ {
          "url": "ombCategory",
          "valueCoding": {
            "system": "urn:oid:2.16.840.1.113883.6.238",
            "code": "1002-5",
            "display": "American Indian or Alaska Native",
            "userSelected": true
          }
        }, {
          "url": "text",
          "valueString": "American Indian or Alaska Native"
        } ]
      }, {
        "url": "http://hl7.org/fhir/us/core/StructureDefinition/us-core-ethnicity",
        "extension": [ {
          "url": "ombCategory",
          "valueCoding": {
            "system": "urn:oid:2.16.840.1.113883.6.238",
            "code": "2186-5",
            "display": "Not Hispanic or Latino",
            "userSelected": true
          }
        }, {
          "url": "text",
          "valueString": "Not Hispanic or Latino"
        } ]
      } ],
      "identifier": [ {
        "type": {
          "coding": [ {
            "system": "http://terminology.hl7.org/CodeSystem/v2-0203",
            "code": "MR"
          } ]
        },
        "system": "https://bonnie-fhir.healthit.gov/",
        "value": "612e6ebe02c62a011f2ef6d6"
      } ],
      "active": true,
      "name": [ {
        "use": "usual",
        "family": "IPPass",
        "given": [ "DxVTEEnds1MinB4Enc" ]
      } ],
      "gender": "female",
      "birthDate": "1975-03-03"
    },
    "request": {
      "method": "PUT",
      "url": "Patient/2a49e02a-3b3c-4c0c-940f-6ed02318dac3"
    }
  }, {
    "fullUrl": "https://madie.cms.gov/Encounter/126305fa-ef16-4f74-a7c0-7665e3bf0dfb",
    "resource": {
      "resourceType": "Encounter",
      "id": "126305fa-ef16-4f74-a7c0-7665e3bf0dfb",
      "meta": {
        "profile": [ "http://hl7.org/fhir/us/qicore/StructureDefinition/qicore-encounter" ]
      },
      "status": "finished",
      "class": {
        "system": "http://terminology.hl7.org/CodeSystem/v3-ActCode",
        "code": "IMP",
        "display": "inpatient encounter"
      },
      "type": [ {
        "coding": [ {
          "system": "http://snomed.info/sct",
          "code": "8715000",
          "display": "Hospital admission, elective (procedure)"
        } ]
      } ],
      "subject": {
        "reference": "Patient/2a49e02a-3b3c-4c0c-940f-6ed02318dac3"
      },
      "period": {
        "start": "2026-12-01T00:00:00.000+00:00",
        "end": "2026-12-31T23:59:00.000+00:00"
      },
      "length": {
        "value": 30,
        "unit": "days"
      }
    },
    "request": {
      "method": "PUT",
      "url": "Encounter/126305fa-ef16-4f74-a7c0-7665e3bf0dfb"
    }
  }, {
    "fullUrl": "https://madie.cms.gov/Coverage/bb05d62b-748b-4b23-a6dd-cba262ddd83c",
    "resource": {
      "resourceType": "Coverage",
      "id": "bb05d62b-748b-4b23-a6dd-cba262ddd83c",
      "status": "active",
      "beneficiary": {
        "reference": "Patient/2a49e02a-3b3c-4c0c-940f-6ed02318dac3"
      },
      "period": {
        "start": "1975-03-03T08:00:00.000+00:00"
      },
      "payor": [ {
        "reference": "Organization/b2f94ff5-24b9-4b99-a5b4-2f900d7140bf"
      } ]
    },
    "request": {
      "method": "PUT",
      "url": "Coverage/bb05d62b-748b-4b23-a6dd-cba262ddd83c"
    }
  }, {
    "fullUrl": "https://madie.cms.gov/Condition/95364aa5-b6d8-4717-b4ee-04554f788e8e",
    "resource": {
      "resourceType": "Condition",
      "id": "95364aa5-b6d8-4717-b4ee-04554f788e8e",
      "meta": {
        "profile": [ "http://hl7.org/fhir/us/qicore/StructureDefinition/qicore-condition-problems-health-concerns" ]
      },
      "clinicalStatus": {
        "coding": [ {
          "system": "http://terminology.hl7.org/CodeSystem/condition-clinical",
          "code": "active"
        } ]
      },
      "verificationStatus": {
        "coding": [ {
          "system": "http://terminology.hl7.org/CodeSystem/condition-ver-status",
          "code": "confirmed"
        } ]
      },
      "category": [ {
        "coding": [ {
          "system": "http://terminology.hl7.org/CodeSystem/condition-category",
          "code": "problem-list-item",
          "display": "Problem List Item"
        } ]
      } ],
      "code": {
        "coding": [ {
          "system": "http://snomed.info/sct",
          "code": "132251000119101"
        } ]
      },
      "subject": {
        "reference": "Patient/2a49e02a-3b3c-4c0c-940f-6ed02318dac3"
      },
      "onsetPeriod": {
        "start": "2026-11-01T00:00:00.000+00:00",
        "end": "2026-11-30T23:59:00.000+00:00"
      }
    },
    "request": {
      "method": "PUT",
      "url": "Condition/95364aa5-b6d8-4717-b4ee-04554f788e8e"
    }
  }, {
    "fullUrl": "https://madie.cms.gov/Organization/b2f94ff5-24b9-4b99-a5b4-2f900d7140bf",
    "resource": {
      "resourceType": "Organization",
      "id": "b2f94ff5-24b9-4b99-a5b4-2f900d7140bf",
      "meta": {
        "profile": [ "http://hl7.org/fhir/us/qicore/StructureDefinition/qicore-organization" ]
      },
      "identifier": [ {
        "use": "temp",
        "system": "urn:oid:2.16.840.1.113883.4.4",
        "value": "21-3259825"
      } ],
      "active": true,
      "type": [ {
        "coding": [ {
          "system": "http://terminology.hl7.org/CodeSystem/organization-type",
          "code": "pay",
          "display": "Payer"
        } ]
      } ],
      "name": "Blue Cross Blue Shield of Texas",
      "telecom": [ {
        "system": "phone",
        "value": "(+1) 972-766-6900"
      } ],
      "address": [ {
        "use": "billing",
        "type": "postal",
        "line": [ "P.O. Box 660044" ],
        "city": "Dallas",
        "state": "TX",
        "postalCode": "75266-0044",
        "country": "USA"
      } ]
    },
    "request": {
      "method": "PUT",
      "url": "Organization/b2f94ff5-24b9-4b99-a5b4-2f900d7140bf"
    }
  }, {
    "fullUrl": "https://madie.cms.gov/MeasureReport/cf6eacc0-359d-4037-9c6e-c6fc46b9dcb2",
    "resource": {
      "resourceType": "MeasureReport",
      "id": "cf6eacc0-359d-4037-9c6e-c6fc46b9dcb2",
      "meta": {
        "profile": [ "http://hl7.org/fhir/us/cqfmeasures/StructureDefinition/test-case-cqfm" ]
      },
      "contained": [ {
        "resourceType": "Parameters",
        "id": "57328d07-a1a9-4fb1-ad56-16ba73d46b15-parameters",
        "parameter": [ {
          "name": "subject",
          "valueString": "2a49e02a-3b3c-4c0c-940f-6ed02318dac3"
        } ]
      } ],
      "extension": [ {
        "url": "http://hl7.org/fhir/StructureDefinition/cqf-inputParameters",
        "valueReference": {
          "reference": "#57328d07-a1a9-4fb1-ad56-16ba73d46b15-parameters"
        }
      }, {
        "url": "http://hl7.org/fhir/us/cqfmeasures/StructureDefinition/cqfm-testCaseDescription",
        "valueMarkdown": "DxVTE ends 1 min prior to inpatient admission start"
      } ],
      "modifierExtension": [ {
        "url": "http://hl7.org/fhir/us/cqfmeasures/StructureDefinition/cqfm-isTestCase",
        "valueBoolean": true
      } ],
      "status": "complete",
      "type": "individual",
      "measure": "https://madie.cms.gov/Measure/CMS190FHIRVTEProphylaxisICU",
      "period": {
        "start": "2026-01-01",
        "end": "2026-12-31"
      },
      "group": [ {
        "id": "Group_1",
        "population": [ {
          "id": "InitialPopulation_1",
          "code": {
            "coding": [ {
              "system": "http://terminology.hl7.org/CodeSystem/measure-population",
              "code": "initial-population",
              "display": "Initial Population"
            } ]
          },
          "count": 1
        }, {
          "id": "Denominator_1",
          "code": {
            "coding": [ {
              "system": "http://terminology.hl7.org/CodeSystem/measure-population",
              "code": "denominator",
              "display": "Denominator"
            } ]
          },
          "count": 0
        }, {
          "id": "DenominatorExclusion_1",
          "code": {
            "coding": [ {
              "system": "http://terminology.hl7.org/CodeSystem/measure-population",
              "code": "denominator-exclusion",
              "display": "Denominator Exclusion"
            } ]
          },
          "count": 0
        }, {
          "id": "Numerator_1",
          "code": {
            "coding": [ {
              "system": "http://terminology.hl7.org/CodeSystem/measure-population",
              "code": "numerator",
              "display": "Numerator"
            } ]
          },
          "count": 0
        }, {
          "id": "DenominatorException_1",
          "code": {
            "coding": [ {
              "system": "http://terminology.hl7.org/CodeSystem/measure-population",
              "code": "denominator-exception",
              "display": "Denominator Exception"
            } ]
          },
          "count": 0
        } ],
        "measureScore": {
          "value": 0.0
        }
      } ],
      "evaluatedResource": [ {
        "reference": "Patient/2a49e02a-3b3c-4c0c-940f-6ed02318dac3"
      }, {
        "reference": "Encounter/126305fa-ef16-4f74-a7c0-7665e3bf0dfb"
      }, {
        "reference": "Coverage/bb05d62b-748b-4b23-a6dd-cba262ddd83c"
      }, {
        "reference": "Condition/95364aa5-b6d8-4717-b4ee-04554f788e8e"
      }, {
        "reference": "Organization/b2f94ff5-24b9-4b99-a5b4-2f900d7140bf"
      } ]
    },
    "request": {
      "method": "PUT",
      "url": "MeasureReport/cf6eacc0-359d-4037-9c6e-c6fc46b9dcb2"
    }
  } ]
}