{
  "resourceType": "Bundle",
  "id": "633b3f9e0968f80122503cd7",
  "type": "transaction",
  "entry": [ {
    "fullUrl": "https://madie.cms.gov/Patient/3c6ed429-eef2-4b6c-a962-56584468ae7c",
    "resource": {
      "resourceType": "Patient",
      "id": "3c6ed429-eef2-4b6c-a962-56584468ae7c",
      "meta": {
        "profile": [ "http://hl7.org/fhir/us/qicore/StructureDefinition/qicore-patient" ]
      },
      "text": {
        "status": "generated",
        "div": "<div xmlns=\"http://www.w3.org/1999/xhtml\"><div class=\"hapiHeaderText\">LastAssPrfEstDELRsltDtTimeMissing<b>DENOMFAIL</b></div><table class=\"hapiPropertyTable\"><tbody><tr><td>Date of birth</td><td><span>01 February 2004</span></td></tr></tbody></table></div>"
      },
      "extension": [ {
        "url": "http://hl7.org/fhir/us/core/StructureDefinition/us-core-race",
        "extension": [ {
          "url": "ombCategory",
          "valueCoding": {
            "system": "urn:oid:2.16.840.1.113883.6.238",
            "code": "1002-5",
            "display": "American Indian or Alaska Native",
            "userSelected": true
          }
        }, {
          "url": "text",
          "valueString": "American Indian or Alaska Native"
        } ]
      }, {
        "url": "http://hl7.org/fhir/us/core/StructureDefinition/us-core-ethnicity",
        "extension": [ {
          "url": "ombCategory",
          "valueCoding": {
            "system": "urn:oid:2.16.840.1.113883.6.238",
            "code": "2135-2",
            "display": "Hispanic or Latino",
            "userSelected": true
          }
        }, {
          "url": "text",
          "valueString": "Hispanic or Latino"
        } ]
      } ],
      "identifier": [ {
        "type": {
          "coding": [ {
            "system": "http://terminology.hl7.org/CodeSystem/v2-0203",
            "code": "MR"
          } ]
        },
        "system": "https://bonnie-fhir.healthit.gov/",
        "value": "633b3f9e0968f80122503cd7"
      } ],
      "active": true,
      "name": [ {
        "use": "usual",
        "family": "DENOMFail",
        "given": [ "LastAssPrfEstDELRsltDtTimeMissing" ]
      } ],
      "gender": "female",
      "birthDate": "2005-02-01"
    },
    "request": {
      "method": "PUT",
      "url": "Patient/3c6ed429-eef2-4b6c-a962-56584468ae7c"
    }
  }, {
    "fullUrl": "https://madie.cms.gov/Observation/95876f97-d874-442d-baed-5b744e488a0d",
    "resource": {
      "resourceType": "Observation",
      "id": "95876f97-d874-442d-baed-5b744e488a0d",
      "meta": {
        "profile": [ "http://hl7.org/fhir/us/qicore/StructureDefinition/qicore-simple-observation" ]
      },
      "status": "final",
      "category": [ {
        "coding": [ {
          "system": "http://terminology.hl7.org/CodeSystem/observation-category",
          "code": "exam",
          "display": "exam",
          "userSelected": true
        } ]
      } ],
      "code": {
        "coding": [ {
          "system": "http://loinc.org",
          "code": "93857-1"
        } ]
      },
      "subject": {
        "reference": "Patient/3c6ed429-eef2-4b6c-a962-56584468ae7c"
      },
      "effectiveDateTime": "2026-02-01T08:00:00.000+00:00",
      "performer": [ {
        "reference": "Organization/example1",
        "display": "Hendricks Country Hospital"
      } ],
      "valueDateTime": "2026-02-01T08:00:00.000+00:00"
    },
    "request": {
      "method": "PUT",
      "url": "Observation/95876f97-d874-442d-baed-5b744e488a0d"
    }
  }, {
    "fullUrl": "https://madie.cms.gov/Observation/537d2877-4b3c-4a23-9ed9-3e06025b43d3",
    "resource": {
      "resourceType": "Observation",
      "id": "537d2877-4b3c-4a23-9ed9-3e06025b43d3",
      "meta": {
        "profile": [ "http://hl7.org/fhir/us/qicore/StructureDefinition/qicore-simple-observation" ]
      },
      "status": "final",
      "category": [ {
        "coding": [ {
          "system": "http://terminology.hl7.org/CodeSystem/observation-category",
          "code": "exam",
          "display": "exam",
          "userSelected": true
        } ]
      } ],
      "code": {
        "coding": [ {
          "system": "http://loinc.org",
          "code": "11778-8"
        } ]
      },
      "subject": {
        "reference": "Patient/3c6ed429-eef2-4b6c-a962-56584468ae7c"
      },
      "effectiveDateTime": "2026-02-01T08:00:00.000+00:00",
      "performer": [ {
        "reference": "Organization/example1",
        "display": "Hendricks Country Hospital"
      } ]
    },
    "request": {
      "method": "PUT",
      "url": "Observation/537d2877-4b3c-4a23-9ed9-3e06025b43d3"
    }
  }, {
    "fullUrl": "https://madie.cms.gov/Encounter/1e12d22b-f69c-44d3-977d-9fd0f9e6e49e",
    "resource": {
      "resourceType": "Encounter",
      "id": "1e12d22b-f69c-44d3-977d-9fd0f9e6e49e",
      "meta": {
        "profile": [ "http://hl7.org/fhir/us/qicore/StructureDefinition/qicore-encounter" ]
      },
      "status": "finished",
      "class": {
        "system": "http://terminology.hl7.org/CodeSystem/v3-ActCode",
        "code": "IMP",
        "display": "inpatient encounter"
      },
      "type": [ {
        "coding": [ {
          "system": "http://snomed.info/sct",
          "code": "183452005"
        } ]
      } ],
      "subject": {
        "reference": "Patient/3c6ed429-eef2-4b6c-a962-56584468ae7c"
      },
      "period": {
        "start": "2026-02-01T08:00:00.000+00:00",
        "end": "2026-02-05T08:15:00.000+00:00"
      },
      "reasonCode": [ {
        "coding": [ {
          "system": "http://snomed.info/sct",
          "code": "169826009",
          "display": "Single live birth from singleton pregnancy (finding)"
        } ]
      } ]
    },
    "request": {
      "method": "PUT",
      "url": "Encounter/1e12d22b-f69c-44d3-977d-9fd0f9e6e49e"
    }
  }, {
    "fullUrl": "https://madie.cms.gov/Coverage/9b5bad65-38a7-4307-9d46-08cb9faa4af5",
    "resource": {
      "resourceType": "Coverage",
      "id": "9b5bad65-38a7-4307-9d46-08cb9faa4af5",
      "status": "active",
      "subscriberId": "523435",
      "beneficiary": {
        "reference": "Patient/3c6ed429-eef2-4b6c-a962-56584468ae7c"
      },
      "relationship": {
        "coding": [ {
          "system": "http://terminology.hl7.org/CodeSystem/subscriber-relationship",
          "code": "self"
        } ]
      },
      "period": {
        "start": "2005-02-01T08:00:00.000+00:00"
      },
      "payor": [ {
        "reference": "Organization/8c98b323-d7fc-4b59-9e58-9b8fef65afa0"
      } ]
    },
    "request": {
      "method": "PUT",
      "url": "Coverage/9b5bad65-38a7-4307-9d46-08cb9faa4af5"
    }
  }, {
    "fullUrl": "https://madie.cms.gov/Procedure/ea37e958-add3-4911-af00-e46ced0da79b",
    "resource": {
      "resourceType": "Procedure",
      "id": "ea37e958-add3-4911-af00-e46ced0da79b",
      "meta": {
        "profile": [ "http://hl7.org/fhir/us/qicore/StructureDefinition/qicore-procedure" ]
      },
      "extension": [ {
        "url": "http://hl7.org/fhir/us/qicore/StructureDefinition/qicore-recorded",
        "valueDateTime": "2014-04-05T13:35:00.000+00:00"
      } ],
      "status": "completed",
      "code": {
        "coding": [ {
          "system": "http://snomed.info/sct",
          "code": "10745001"
        } ]
      },
      "subject": {
        "reference": "Patient/3c6ed429-eef2-4b6c-a962-56584468ae7c"
      },
      "performedPeriod": {
        "start": "2026-02-01T08:00:00.000+00:00",
        "end": "2026-02-05T08:15:00.000+00:00"
      }
    },
    "request": {
      "method": "PUT",
      "url": "Procedure/ea37e958-add3-4911-af00-e46ced0da79b"
    }
  }, {
    "fullUrl": "https://madie.cms.gov/Organization/8c98b323-d7fc-4b59-9e58-9b8fef65afa0",
    "resource": {
      "resourceType": "Organization",
      "id": "8c98b323-d7fc-4b59-9e58-9b8fef65afa0",
      "meta": {
        "profile": [ "http://hl7.org/fhir/us/qicore/StructureDefinition/qicore-organization" ]
      },
      "identifier": [ {
        "use": "temp",
        "system": "urn:oid:2.16.840.1.113883.4.4",
        "value": "21-3259825"
      } ],
      "active": true,
      "type": [ {
        "coding": [ {
          "system": "http://terminology.hl7.org/CodeSystem/organization-type",
          "code": "pay",
          "display": "Payer"
        } ]
      } ],
      "name": "Blue Cross Blue Shield of Texas",
      "telecom": [ {
        "system": "phone",
        "value": "(+1) 972-766-6900"
      } ],
      "address": [ {
        "use": "billing",
        "type": "postal",
        "line": [ "P.O. Box 660044" ],
        "city": "Dallas",
        "state": "TX",
        "postalCode": "75266-0044",
        "country": "USA"
      } ]
    },
    "request": {
      "method": "PUT",
      "url": "Organization/8c98b323-d7fc-4b59-9e58-9b8fef65afa0"
    }
  }, {
    "fullUrl": "https://madie.cms.gov/Practitioner/0e50f4d9-1cab-4f85-931e-606b1da2364b",
    "resource": {
      "resourceType": "Practitioner",
      "id": "0e50f4d9-1cab-4f85-931e-606b1da2364b",
      "meta": {
        "profile": [ "http://hl7.org/fhir/us/qicore/StructureDefinition/qicore-practitioner" ]
      },
      "identifier": [ {
        "system": "http://hl7.org/fhir/sid/us-npi",
        "value": "1234567890"
      } ],
      "name": [ {
        "family": "Evil",
        "prefix": [ "Dr" ]
      } ]
    },
    "request": {
      "method": "PUT",
      "url": "Practitioner/0e50f4d9-1cab-4f85-931e-606b1da2364b"
    }
  }, {
    "fullUrl": "https://madie.cms.gov/MeasureReport/74a3b2f9-910c-4d91-ba51-e01579de9ff0",
    "resource": {
      "resourceType": "MeasureReport",
      "id": "74a3b2f9-910c-4d91-ba51-e01579de9ff0",
      "meta": {
        "profile": [ "http://hl7.org/fhir/us/cqfmeasures/StructureDefinition/test-case-cqfm" ]
      },
      "contained": [ {
        "resourceType": "Parameters",
        "id": "877f14ac-7b55-4148-8327-318595d6eae6-parameters",
        "parameter": [ {
          "name": "subject",
          "valueString": "3c6ed429-eef2-4b6c-a962-56584468ae7c"
        } ]
      } ],
      "extension": [ {
        "url": "http://hl7.org/fhir/StructureDefinition/cqf-inputParameters",
        "valueReference": {
          "reference": "#877f14ac-7b55-4148-8327-318595d6eae6-parameters"
        }
      }, {
        "url": "http://hl7.org/fhir/us/cqfmeasures/StructureDefinition/cqfm-testCaseDescription",
        "valueMarkdown": "Last assessment Performed, Estimated Delivery Date, result date/time is null.\n"
      } ],
      "modifierExtension": [ {
        "url": "http://hl7.org/fhir/us/cqfmeasures/StructureDefinition/cqfm-isTestCase",
        "valueBoolean": true
      } ],
      "status": "complete",
      "type": "individual",
      "measure": "https://madie.cms.gov/Measure/CMS1028FHIRPCSevereOBComps",
      "period": {
        "start": "2026-01-01",
        "end": "2026-12-31"
      },
      "group": [ {
        "id": "Group_1",
        "population": [ {
          "id": "InitialPopulation_1",
          "code": {
            "coding": [ {
              "system": "http://terminology.hl7.org/CodeSystem/measure-population",
              "code": "initial-population",
              "display": "Initial Population"
            } ]
          },
          "count": 1
        }, {
          "id": "Denominator_1",
          "code": {
            "coding": [ {
              "system": "http://terminology.hl7.org/CodeSystem/measure-population",
              "code": "denominator",
              "display": "Denominator"
            } ]
          },
          "count": 0
        }, {
          "id": "Numerator_1",
          "code": {
            "coding": [ {
              "system": "http://terminology.hl7.org/CodeSystem/measure-population",
              "code": "numerator",
              "display": "Numerator"
            } ]
          },
          "count": 0
        }, {
          "id": "NumeratorExclusion_1",
          "code": {
            "coding": [ {
              "system": "http://terminology.hl7.org/CodeSystem/measure-population",
              "code": "numerator-exclusion",
              "display": "Numerator Exclusion"
            } ]
          },
          "count": 0
        } ],
        "measureScore": {
          "value": 0.0
        }
      }, {
        "id": "Group_2",
        "population": [ {
          "id": "InitialPopulation_2",
          "code": {
            "coding": [ {
              "system": "http://terminology.hl7.org/CodeSystem/measure-population",
              "code": "initial-population",
              "display": "Initial Population"
            } ]
          },
          "count": 1
        }, {
          "id": "Denominator_2",
          "code": {
            "coding": [ {
              "system": "http://terminology.hl7.org/CodeSystem/measure-population",
              "code": "denominator",
              "display": "Denominator"
            } ]
          },
          "count": 0
        }, {
          "id": "Numerator_2",
          "code": {
            "coding": [ {
              "system": "http://terminology.hl7.org/CodeSystem/measure-population",
              "code": "numerator",
              "display": "Numerator"
            } ]
          },
          "count": 0
        }, {
          "id": "NumeratorExclusion_2",
          "code": {
            "coding": [ {
              "system": "http://terminology.hl7.org/CodeSystem/measure-population",
              "code": "numerator-exclusion",
              "display": "Numerator Exclusion"
            } ]
          },
          "count": 0
        } ],
        "measureScore": {
          "value": 0.0
        }
      } ],
      "evaluatedResource": [ {
        "reference": "Patient/3c6ed429-eef2-4b6c-a962-56584468ae7c"
      }, {
        "reference": "Observation/95876f97-d874-442d-baed-5b744e488a0d"
      }, {
        "reference": "Observation/537d2877-4b3c-4a23-9ed9-3e06025b43d3"
      }, {
        "reference": "Encounter/1e12d22b-f69c-44d3-977d-9fd0f9e6e49e"
      }, {
        "reference": "Coverage/9b5bad65-38a7-4307-9d46-08cb9faa4af5"
      }, {
        "reference": "Procedure/ea37e958-add3-4911-af00-e46ced0da79b"
      }, {
        "reference": "Organization/8c98b323-d7fc-4b59-9e58-9b8fef65afa0"
      }, {
        "reference": "Practitioner/0e50f4d9-1cab-4f85-931e-606b1da2364b"
      } ]
    },
    "request": {
      "method": "PUT",
      "url": "MeasureReport/74a3b2f9-910c-4d91-ba51-e01579de9ff0"
    }
  } ]
}