{
  "resourceType": "Bundle",
  "id": "62fbe41abf5132f90ee35d36",
  "type": "collection",
  "entry": [ {
    "fullUrl": "https://madie.cms.gov/Patient/7b34e64e-e7fe-402c-9a26-12da90662897",
    "resource": {
      "resourceType": "Patient",
      "id": "7b34e64e-e7fe-402c-9a26-12da90662897",
      "meta": {
        "profile": [ "http://hl7.org/fhir/us/qicore/StructureDefinition/qicore-patient" ]
      },
      "extension": [ {
        "url": "http://hl7.org/fhir/us/core/StructureDefinition/us-core-race",
        "extension": [ {
          "url": "ombCategory",
          "valueCoding": {
            "system": "urn:oid:2.16.840.1.113883.6.238",
            "code": "2054-5",
            "display": "Black or African American",
            "userSelected": true
          }
        }, {
          "url": "text",
          "valueString": "Black or African American"
        } ]
      }, {
        "url": "http://hl7.org/fhir/us/core/StructureDefinition/us-core-ethnicity",
        "extension": [ {
          "url": "ombCategory",
          "valueCoding": {
            "system": "urn:oid:2.16.840.1.113883.6.238",
            "code": "2186-5",
            "display": "Not Hispanic or Latino",
            "userSelected": true
          }
        }, {
          "url": "text",
          "valueString": "Not Hispanic or Latino"
        } ]
      } ],
      "identifier": [ {
        "type": {
          "coding": [ {
            "system": "http://terminology.hl7.org/CodeSystem/v2-0203",
            "code": "MR"
          } ]
        },
        "system": "https://bonnie-fhir.healthit.gov/",
        "value": "62fbe41abf5132f90ee35d36"
      } ],
      "name": [ {
        "family": "DENEXPass",
        "given": [ "DischargeToHospiceFacilityDuringMP" ]
      } ],
      "gender": "male",
      "birthDate": "1946-10-15"
    }
  }, {
    "fullUrl": "https://madie.cms.gov/Encounter/10c1baa2-e7c2-4ba4-8b35-9a68d7f1c324",
    "resource": {
      "resourceType": "Encounter",
      "id": "10c1baa2-e7c2-4ba4-8b35-9a68d7f1c324",
      "meta": {
        "profile": [ "http://hl7.org/fhir/us/qicore/StructureDefinition/qicore-encounter" ]
      },
      "status": "finished",
      "class": {
        "system": "http://terminology.hl7.org/CodeSystem/v3-ActCode",
        "code": "AMB",
        "display": "ambulatory"
      },
      "type": [ {
        "coding": [ {
          "system": "http://snomed.info/sct",
          "code": "10197000",
          "display": "Psychiatric interview and evaluation (procedure)",
          "userSelected": true
        } ]
      } ],
      "subject": {
        "reference": "Patient/7b34e64e-e7fe-402c-9a26-12da90662897"
      },
      "period": {
        "start": "2026-12-31T23:30:00.000+00:00",
        "end": "2026-12-31T23:59:00.000+00:00"
      }
    }
  }, {
    "fullUrl": "https://madie.cms.gov/Observation/b13e9323-0c0c-445d-a7b0-d90dad09fc88",
    "resource": {
      "resourceType": "Observation",
      "id": "b13e9323-0c0c-445d-a7b0-d90dad09fc88",
      "meta": {
        "profile": [ "http://hl7.org/fhir/us/qicore/StructureDefinition/qicore-simple-observation" ]
      },
      "status": "final",
      "category": [ {
        "coding": [ {
          "system": "http://terminology.hl7.org/CodeSystem/observation-category",
          "code": "vital-signs",
          "display": "Vital Signs"
        } ]
      } ],
      "code": {
        "coding": [ {
          "system": "http://loinc.org",
          "code": "39156-5",
          "display": "Body mass index (BMI) [Ratio]",
          "userSelected": true
        } ]
      },
      "subject": {
        "reference": "Patient/7b34e64e-e7fe-402c-9a26-12da90662897"
      },
      "effectiveDateTime": "2026-12-31T23:59:00.000+00:00",
      "valueQuantity": {
        "value": 40.0,
        "unit": "kg/m2",
        "system": "https://ucum.org",
        "code": "kg/m2"
      }
    }
  }, {
    "fullUrl": "https://madie.cms.gov/Procedure/6dfe306f-ca62-4509-bd0d-65567ed84cb2",
    "resource": {
      "resourceType": "Procedure",
      "id": "6dfe306f-ca62-4509-bd0d-65567ed84cb2",
      "meta": {
        "profile": [ "http://hl7.org/fhir/us/qicore/StructureDefinition/qicore-procedure" ]
      },
      "extension": [ {
        "url": "http://hl7.org/fhir/us/qicore/StructureDefinition/qicore-recorded",
        "valueDateTime": "2026-12-31T23:59:00.000+00:00"
      } ],
      "status": "completed",
      "code": {
        "coding": [ {
          "system": "http://snomed.info/sct",
          "code": "182922004",
          "display": "Dietary regime (regime/therapy)",
          "userSelected": true
        } ]
      },
      "subject": {
        "reference": "Patient/7b34e64e-e7fe-402c-9a26-12da90662897"
      },
      "performedDateTime": "2026-12-31T23:59:00.000+00:00",
      "reasonCode": [ {
        "coding": [ {
          "system": "http://hl7.org/fhir/sid/icd-10-cm",
          "code": "E66.01",
          "display": "Morbid (severe) obesity due to excess calories",
          "userSelected": true
        } ]
      } ]
    }
  }, {
    "fullUrl": "https://madie.cms.gov/Encounter/226053f9-45cf-41fe-b5be-69f5b70cd38f",
    "resource": {
      "resourceType": "Encounter",
      "id": "226053f9-45cf-41fe-b5be-69f5b70cd38f",
      "meta": {
        "profile": [ "http://hl7.org/fhir/us/qicore/StructureDefinition/qicore-encounter" ]
      },
      "status": "finished",
      "class": {
        "system": "http://terminology.hl7.org/CodeSystem/v3-ActCode",
        "code": "AMB",
        "display": "ambulatory"
      },
      "type": [ {
        "coding": [ {
          "system": "http://snomed.info/sct",
          "code": "183452005",
          "display": "Emergency hospital admission (procedure)",
          "userSelected": true
        } ]
      } ],
      "subject": {
        "reference": "Patient/7b34e64e-e7fe-402c-9a26-12da90662897"
      },
      "period": {
        "start": "2026-02-28T23:30:00.000+00:00",
        "end": "2026-02-28T23:59:00.000+00:00"
      },
      "hospitalization": {
        "dischargeDisposition": {
          "coding": [ {
            "system": "http://snomed.info/sct",
            "code": "428371000124100",
            "display": "Discharge to healthcare facility for hospice care (procedure)",
            "userSelected": true
          } ]
        }
      }
    }
  }, {
    "fullUrl": "https://madie.cms.gov/Coverage/008b8879-9968-468d-89d1-30f961369235",
    "resource": {
      "resourceType": "Coverage",
      "id": "008b8879-9968-468d-89d1-30f961369235",
      "meta": {
        "profile": [ "http://hl7.org/fhir/us/qicore/StructureDefinition/qicore-coverage" ]
      },
      "status": "active",
      "subscriberId": "123456",
      "beneficiary": {
        "reference": "Patient/7b34e64e-e7fe-402c-9a26-12da90662897"
      },
      "relationship": {
        "coding": [ {
          "system": "http://terminology.hl7.org/CodeSystem/subscriber-relationship",
          "code": "self",
          "display": "Self",
          "userSelected": true
        } ]
      },
      "payor": [ {
        "reference": "Organization/fa5d92da-87fd-4e40-be68-6fa1e2d9763e"
      } ]
    }
  }, {
    "fullUrl": "https://madie.cms.gov/Organization/fa5d92da-87fd-4e40-be68-6fa1e2d9763e",
    "resource": {
      "resourceType": "Organization",
      "id": "fa5d92da-87fd-4e40-be68-6fa1e2d9763e",
      "meta": {
        "profile": [ "http://hl7.org/fhir/us/qicore/StructureDefinition/qicore-organization" ]
      },
      "identifier": [ {
        "use": "temp",
        "system": "urn:oid:2.16.840.1.113883.4.4",
        "value": "21-3259825"
      } ],
      "active": true,
      "type": [ {
        "coding": [ {
          "system": "http://terminology.hl7.org/CodeSystem/organization-type",
          "code": "pay",
          "display": "Payer"
        } ]
      } ],
      "name": "Blue Cross Blue Shield of Texas",
      "telecom": [ {
        "system": "phone",
        "value": "(+1) 972-766-6900"
      } ],
      "address": [ {
        "use": "billing",
        "type": "postal",
        "line": [ "P.O. Box 660044" ],
        "city": "Dallas",
        "state": "TX",
        "postalCode": "75266-0044",
        "country": "USA"
      } ]
    }
  }, {
    "fullUrl": "https://madie.cms.gov/MeasureReport/76dee5fb-41e8-4b52-a8eb-9e8a22d7aa01",
    "resource": {
      "resourceType": "MeasureReport",
      "id": "76dee5fb-41e8-4b52-a8eb-9e8a22d7aa01",
      "meta": {
        "profile": [ "http://hl7.org/fhir/us/cqfmeasures/StructureDefinition/test-case-cqfm" ]
      },
      "contained": [ {
        "resourceType": "Parameters",
        "id": "90c90b25-f96b-4f99-9c0d-41e1895e7465-parameters",
        "parameter": [ {
          "name": "subject",
          "valueString": "7b34e64e-e7fe-402c-9a26-12da90662897"
        } ]
      } ],
      "extension": [ {
        "url": "http://hl7.org/fhir/StructureDefinition/cqf-inputParameters",
        "valueReference": {
          "reference": "#90c90b25-f96b-4f99-9c0d-41e1895e7465-parameters"
        }
      }, {
        "url": "http://hl7.org/fhir/us/cqfmeasures/StructureDefinition/cqfm-testCaseDescription",
        "valueMarkdown": "Patient age 79 and has 2 encs. during the MP.  February inpatient encounter discharge to healthcare facility for hospice care. December enc. BMI 40 kg/m2, and dietary recommend made due to dx  of \"Morbid (severe) obesity due to excess calories\" "
      } ],
      "modifierExtension": [ {
        "url": "http://hl7.org/fhir/us/cqfmeasures/StructureDefinition/cqfm-isTestCase",
        "valueBoolean": true
      } ],
      "status": "complete",
      "type": "individual",
      "measure": "https://madie.cms.gov/Measure/CMS69FHIRPCSBMIScreenAndFollowUp",
      "period": {
        "start": "2026-01-01",
        "end": "2026-12-31"
      },
      "group": [ {
        "id": "Group_1",
        "population": [ {
          "id": "InitialPopulation_1",
          "code": {
            "coding": [ {
              "system": "http://terminology.hl7.org/CodeSystem/measure-population",
              "code": "initial-population",
              "display": "Initial Population"
            } ]
          },
          "count": 1
        }, {
          "id": "Denominator_1",
          "code": {
            "coding": [ {
              "system": "http://terminology.hl7.org/CodeSystem/measure-population",
              "code": "denominator",
              "display": "Denominator"
            } ]
          },
          "count": 1
        }, {
          "id": "DenominatorExclusion_1",
          "code": {
            "coding": [ {
              "system": "http://terminology.hl7.org/CodeSystem/measure-population",
              "code": "denominator-exclusion",
              "display": "Denominator Exclusion"
            } ]
          },
          "count": 1
        }, {
          "id": "Numerator_1",
          "code": {
            "coding": [ {
              "system": "http://terminology.hl7.org/CodeSystem/measure-population",
              "code": "numerator",
              "display": "Numerator"
            } ]
          },
          "count": 0
        }, {
          "id": "DenominatorException_1",
          "code": {
            "coding": [ {
              "system": "http://terminology.hl7.org/CodeSystem/measure-population",
              "code": "denominator-exception",
              "display": "Denominator Exception"
            } ]
          },
          "count": 0
        } ],
        "measureScore": {
          "value": 1.0
        }
      } ],
      "evaluatedResource": [ {
        "reference": "Patient/7b34e64e-e7fe-402c-9a26-12da90662897"
      }, {
        "reference": "Encounter/10c1baa2-e7c2-4ba4-8b35-9a68d7f1c324"
      }, {
        "reference": "Observation/b13e9323-0c0c-445d-a7b0-d90dad09fc88"
      }, {
        "reference": "Procedure/6dfe306f-ca62-4509-bd0d-65567ed84cb2"
      }, {
        "reference": "Encounter/226053f9-45cf-41fe-b5be-69f5b70cd38f"
      }, {
        "reference": "Coverage/008b8879-9968-468d-89d1-30f961369235"
      }, {
        "reference": "Organization/fa5d92da-87fd-4e40-be68-6fa1e2d9763e"
      } ]
    }
  } ]
}