{
  "resourceType": "Bundle",
  "id": "62fd4b6a0968f8012246b2b5",
  "type": "collection",
  "entry": [ {
    "fullUrl": "https://madie.cms.gov/Patient/445106a4-1531-4830-8726-4ea6c1d27484",
    "resource": {
      "resourceType": "Patient",
      "id": "445106a4-1531-4830-8726-4ea6c1d27484",
      "meta": {
        "profile": [ "http://hl7.org/fhir/us/qicore/StructureDefinition/qicore-patient" ]
      },
      "extension": [ {
        "url": "http://hl7.org/fhir/us/core/StructureDefinition/us-core-race",
        "extension": [ {
          "url": "ombCategory",
          "valueCoding": {
            "system": "urn:oid:2.16.840.1.113883.6.238",
            "code": "1002-5",
            "display": "American Indian or Alaska Native",
            "userSelected": true
          }
        }, {
          "url": "text",
          "valueString": "American Indian or Alaska Native"
        } ]
      }, {
        "url": "http://hl7.org/fhir/us/core/StructureDefinition/us-core-ethnicity",
        "extension": [ {
          "url": "ombCategory",
          "valueCoding": {
            "system": "urn:oid:2.16.840.1.113883.6.238",
            "code": "2135-2",
            "display": "Hispanic or Latino",
            "userSelected": true
          }
        }, {
          "url": "text",
          "valueString": "Hispanic or Latino"
        } ]
      } ],
      "identifier": [ {
        "type": {
          "coding": [ {
            "system": "http://terminology.hl7.org/CodeSystem/v2-0203",
            "code": "MR"
          } ]
        },
        "system": "https://bonnie-fhir.healthit.gov/",
        "value": "62fd4b6a0968f8012246b2b5"
      } ],
      "name": [ {
        "family": "NUMERFail",
        "given": [ "Cons1MinBeforeReferral" ]
      } ],
      "gender": "female",
      "birthDate": "1990-12-31"
    }
  }, {
    "fullUrl": "https://madie.cms.gov/Task/1ca55a72-07ef-42cc-9d47-113f453c02b3",
    "resource": {
      "resourceType": "Task",
      "id": "1ca55a72-07ef-42cc-9d47-113f453c02b3",
      "meta": {
        "profile": [ "http://hl7.org/fhir/us/qicore/StructureDefinition/qicore-task" ]
      },
      "identifier": [ {
        "use": "official",
        "system": "http:/goodhealth.org/identifiers",
        "value": "20170201-002"
      } ],
      "basedOn": [ {
        "reference": "ServiceRequest/3d86c02e-d4a3-450d-9c51-3fa93e09ff85"
      } ],
      "status": "completed",
      "intent": "order",
      "priority": "routine",
      "code": {
        "coding": [ {
          "system": "http://loinc.org",
          "version": "2.72",
          "code": "11488-4",
          "display": "Consult note",
          "userSelected": true
        } ]
      },
      "for": {
        "reference": "Patient/445106a4-1531-4830-8726-4ea6c1d27484"
      },
      "executionPeriod": {
        "start": "2026-10-31T23:50:00.000+00:00",
        "end": "2026-10-31T23:58:00.000+00:00"
      }
    }
  }, {
    "fullUrl": "https://madie.cms.gov/ServiceRequest/3d86c02e-d4a3-450d-9c51-3fa93e09ff85",
    "resource": {
      "resourceType": "ServiceRequest",
      "id": "3d86c02e-d4a3-450d-9c51-3fa93e09ff85",
      "meta": {
        "profile": [ "http://hl7.org/fhir/us/qicore/StructureDefinition/qicore-servicerequest" ]
      },
      "status": "active",
      "intent": "order",
      "code": {
        "coding": [ {
          "system": "http://snomed.info/sct",
          "version": "http://snomed.info/sct/731000124108/version/20250301",
          "code": "103696004",
          "display": "Patient referral to specialist (procedure)",
          "userSelected": true
        } ]
      },
      "subject": {
        "reference": "Patient/445106a4-1531-4830-8726-4ea6c1d27484"
      },
      "authoredOn": "2026-10-31T23:59:00.000+00:00"
    }
  }, {
    "fullUrl": "https://madie.cms.gov/Encounter/bc93ec77-c082-40d1-95da-599205761654",
    "resource": {
      "resourceType": "Encounter",
      "id": "bc93ec77-c082-40d1-95da-599205761654",
      "meta": {
        "profile": [ "http://hl7.org/fhir/us/qicore/StructureDefinition/qicore-encounter" ]
      },
      "status": "finished",
      "class": {
        "system": "http://terminology.hl7.org/CodeSystem/v3-ActCode",
        "code": "AMB",
        "display": "ambulatory"
      },
      "type": [ {
        "coding": [ {
          "system": "http://snomed.info/sct",
          "version": "2022-03",
          "code": "359960003",
          "display": "Ophthalmologic examination and evaluation under general anesthesia, limited (procedure)",
          "userSelected": true
        } ]
      } ],
      "subject": {
        "reference": "Patient/445106a4-1531-4830-8726-4ea6c1d27484"
      },
      "period": {
        "start": "2026-05-27T08:00:00.000+00:00",
        "end": "2026-05-27T09:15:00.000+00:00"
      }
    }
  }, {
    "fullUrl": "https://madie.cms.gov/Coverage/e5501955-27e7-4ebc-9518-c1140e117922",
    "resource": {
      "resourceType": "Coverage",
      "id": "e5501955-27e7-4ebc-9518-c1140e117922",
      "meta": {
        "profile": [ "http://hl7.org/fhir/us/qicore/StructureDefinition/qicore-coverage" ]
      },
      "status": "active",
      "subscriberId": "123456",
      "beneficiary": {
        "reference": "Patient/445106a4-1531-4830-8726-4ea6c1d27484"
      },
      "relationship": {
        "coding": [ {
          "system": "http://terminology.hl7.org/CodeSystem/subscriber-relationship",
          "code": "self",
          "display": "Self"
        } ]
      },
      "payor": [ {
        "reference": "Organization/f015a247-aa1e-40af-a5aa-9c9c12f259f6"
      } ]
    }
  }, {
    "fullUrl": "https://madie.cms.gov/Organization/f015a247-aa1e-40af-a5aa-9c9c12f259f6",
    "resource": {
      "resourceType": "Organization",
      "id": "f015a247-aa1e-40af-a5aa-9c9c12f259f6",
      "meta": {
        "profile": [ "http://hl7.org/fhir/us/qicore/StructureDefinition/qicore-organization" ]
      },
      "identifier": [ {
        "use": "temp",
        "system": "urn:oid:2.16.840.1.113883.4.4",
        "value": "21-3259825"
      } ],
      "active": true,
      "type": [ {
        "coding": [ {
          "system": "http://terminology.hl7.org/CodeSystem/organization-type",
          "code": "pay",
          "display": "Payer"
        } ]
      } ],
      "name": "Blue Cross Blue Shield of Texas",
      "telecom": [ {
        "system": "phone",
        "value": "(+1) 972-766-6900"
      } ],
      "address": [ {
        "use": "billing",
        "type": "postal",
        "line": [ "P.O. Box 660044" ],
        "city": "Dallas",
        "state": "TX",
        "postalCode": "75266-0044",
        "country": "USA"
      } ]
    }
  }, {
    "fullUrl": "https://madie.cms.gov/Practitioner/2b7da7fa-ea7b-4e58-aa93-ccc54661a6fe",
    "resource": {
      "resourceType": "Practitioner",
      "id": "2b7da7fa-ea7b-4e58-aa93-ccc54661a6fe",
      "meta": {
        "profile": [ "http://hl7.org/fhir/us/qicore/StructureDefinition/qicore-practitioner" ]
      },
      "identifier": [ {
        "system": "http://hl7.org/fhir/sid/us-npi",
        "value": "1689411712"
      } ],
      "name": [ {
        "family": "Evil",
        "prefix": [ "Dr" ]
      } ]
    }
  }, {
    "fullUrl": "https://madie.cms.gov/MeasureReport/1c29bda2-98c5-4be5-8842-92b2258f8a1e",
    "resource": {
      "resourceType": "MeasureReport",
      "id": "1c29bda2-98c5-4be5-8842-92b2258f8a1e",
      "meta": {
        "profile": [ "http://hl7.org/fhir/us/cqfmeasures/StructureDefinition/test-case-cqfm" ]
      },
      "contained": [ {
        "resourceType": "Parameters",
        "id": "2b969eff-6107-45c6-a07a-38dd84fdf118-parameters",
        "parameter": [ {
          "name": "subject",
          "valueString": "445106a4-1531-4830-8726-4ea6c1d27484"
        } ]
      } ],
      "extension": [ {
        "url": "http://hl7.org/fhir/StructureDefinition/cqf-inputParameters",
        "valueReference": {
          "reference": "#2b969eff-6107-45c6-a07a-38dd84fdf118-parameters"
        }
      }, {
        "url": "http://hl7.org/fhir/us/cqfmeasures/StructureDefinition/cqfm-testCaseDescription",
        "valueMarkdown": "Encounter during MP status finished Referral Status Active Intent Order during Referral period.  Consult report obtained before referral date. status accepted\n"
      } ],
      "modifierExtension": [ {
        "url": "http://hl7.org/fhir/us/cqfmeasures/StructureDefinition/cqfm-isTestCase",
        "valueBoolean": true
      } ],
      "status": "complete",
      "type": "individual",
      "measure": "https://madie.cms.gov/Measure/CMS50FHIRReceiptofSpecialistReport",
      "period": {
        "start": "2026-01-01",
        "end": "2026-12-31"
      },
      "group": [ {
        "id": "Group_1",
        "population": [ {
          "id": "InitialPopulation_1",
          "code": {
            "coding": [ {
              "system": "http://terminology.hl7.org/CodeSystem/measure-population",
              "code": "initial-population",
              "display": "Initial Population"
            } ]
          },
          "count": 1
        }, {
          "id": "Denominator_1",
          "code": {
            "coding": [ {
              "system": "http://terminology.hl7.org/CodeSystem/measure-population",
              "code": "denominator",
              "display": "Denominator"
            } ]
          },
          "count": 1
        }, {
          "id": "Numerator_1",
          "code": {
            "coding": [ {
              "system": "http://terminology.hl7.org/CodeSystem/measure-population",
              "code": "numerator",
              "display": "Numerator"
            } ]
          },
          "count": 0
        } ],
        "measureScore": {
          "value": 1.0
        }
      } ],
      "evaluatedResource": [ {
        "reference": "Patient/445106a4-1531-4830-8726-4ea6c1d27484"
      }, {
        "reference": "Task/1ca55a72-07ef-42cc-9d47-113f453c02b3"
      }, {
        "reference": "ServiceRequest/3d86c02e-d4a3-450d-9c51-3fa93e09ff85"
      }, {
        "reference": "Encounter/bc93ec77-c082-40d1-95da-599205761654"
      }, {
        "reference": "Coverage/e5501955-27e7-4ebc-9518-c1140e117922"
      }, {
        "reference": "Organization/f015a247-aa1e-40af-a5aa-9c9c12f259f6"
      }, {
        "reference": "Practitioner/2b7da7fa-ea7b-4e58-aa93-ccc54661a6fe"
      } ]
    }
  } ]
}