{
  "resourceType": "Bundle",
  "id": "464613151313",
  "type": "collection",
  "entry": [ {
    "fullUrl": "https://madie.cms.gov/Patient/b487e8da-c244-4cb8-9575-48eab7d7c28d",
    "resource": {
      "resourceType": "Patient",
      "id": "b487e8da-c244-4cb8-9575-48eab7d7c28d",
      "meta": {
        "profile": [ "http://hl7.org/fhir/us/qicore/StructureDefinition/qicore-patient" ]
      },
      "extension": [ {
        "url": "http://hl7.org/fhir/us/core/StructureDefinition/us-core-race",
        "extension": [ {
          "url": "ombCategory",
          "valueCoding": {
            "system": "urn:oid:2.16.840.1.113883.6.238",
            "code": "2106-3",
            "display": "White"
          }
        }, {
          "url": "text",
          "valueString": "White"
        } ]
      }, {
        "url": "http://hl7.org/fhir/us/core/StructureDefinition/us-core-ethnicity",
        "extension": [ {
          "url": "ombCategory",
          "valueCoding": {
            "system": "urn:oid:2.16.840.1.113883.6.238",
            "code": "2135-2",
            "display": "Hispanic or Latino"
          }
        }, {
          "url": "text",
          "valueString": "Hispanic or Latino"
        } ]
      } ],
      "identifier": [ {
        "type": {
          "coding": [ {
            "system": "http://terminology.hl7.org/CodeSystem/v2-0203",
            "code": "MR"
          } ]
        },
        "system": "https://bonnie-fhir.healthit.gov/",
        "value": "1241254783asdf13215321sd"
      } ],
      "name": [ {
        "family": "DENOMPass",
        "given": [ "OV1stDayOfYearEdge" ]
      } ],
      "gender": "female",
      "birthDate": "1944-03-15"
    }
  }, {
    "fullUrl": "https://madie.cms.gov/Condition/8ca04776-d1d4-4ad2-99a6-5c76bf90d88b",
    "resource": {
      "resourceType": "Condition",
      "id": "8ca04776-d1d4-4ad2-99a6-5c76bf90d88b",
      "meta": {
        "profile": [ "http://hl7.org/fhir/us/qicore/StructureDefinition/qicore-condition-problems-health-concerns" ]
      },
      "clinicalStatus": {
        "coding": [ {
          "system": "http://terminology.hl7.org/CodeSystem/condition-clinical",
          "code": "active",
          "display": "Active"
        } ]
      },
      "verificationStatus": {
        "coding": [ {
          "system": "http://terminology.hl7.org/CodeSystem/condition-ver-status",
          "code": "confirmed",
          "display": "Confirmed"
        } ]
      },
      "category": [ {
        "coding": [ {
          "system": "http://terminology.hl7.org/CodeSystem/condition-category",
          "code": "problem-list-item",
          "display": "Problem List Item"
        } ]
      } ],
      "code": {
        "coding": [ {
          "system": "http://hl7.org/fhir/sid/icd-10-cm",
          "version": "2024",
          "code": "C67.1",
          "display": "Malignant neoplasm of dome of bladder"
        } ]
      },
      "subject": {
        "reference": "Patient/b487e8da-c244-4cb8-9575-48eab7d7c28d"
      },
      "onsetPeriod": {
        "start": "2026-01-01T08:00:00.000+00:00"
      }
    }
  }, {
    "fullUrl": "https://madie.cms.gov/Encounter/ca964a5f-d73a-4a5f-b824-903d80116d58",
    "resource": {
      "resourceType": "Encounter",
      "id": "ca964a5f-d73a-4a5f-b824-903d80116d58",
      "meta": {
        "profile": [ "http://hl7.org/fhir/us/qicore/StructureDefinition/qicore-encounter" ]
      },
      "status": "finished",
      "class": {
        "system": "http://terminology.hl7.org/CodeSystem/v3-ActCode",
        "code": "AMB",
        "display": "ambulatory"
      },
      "type": [ {
        "coding": [ {
          "system": "http://snomed.info/sct",
          "version": "http://snomed.info/sct/731000124108/version/20240301",
          "code": "185463005",
          "display": "Visit out of hours (procedure)"
        } ]
      } ],
      "subject": {
        "reference": "Patient/b487e8da-c244-4cb8-9575-48eab7d7c28d"
      },
      "period": {
        "start": "2026-01-01T08:00:00.000+00:00",
        "end": "2026-01-01T08:15:00.000+00:00"
      }
    }
  }, {
    "fullUrl": "https://madie.cms.gov/Procedure/319444b6-1ebe-456a-b84a-bcf0a49ed48b",
    "resource": {
      "resourceType": "Procedure",
      "id": "319444b6-1ebe-456a-b84a-bcf0a49ed48b",
      "meta": {
        "profile": [ "http://hl7.org/fhir/us/qicore/StructureDefinition/qicore-procedure" ]
      },
      "extension": [ {
        "url": "http://hl7.org/fhir/us/qicore/StructureDefinition/qicore-recorded",
        "valueDateTime": "2026-04-06T08:00:00.000+00:00"
      } ],
      "status": "completed",
      "code": {
        "coding": [ {
          "system": "http://snomed.info/sct",
          "version": "http://snomed.info/sct/731000124108/version/20250301",
          "code": "254292007",
          "display": "Tumor staging"
        } ]
      },
      "subject": {
        "reference": "Patient/b487e8da-c244-4cb8-9575-48eab7d7c28d"
      },
      "performedPeriod": {
        "start": "2026-01-01T08:00:00.000+00:00",
        "end": "2026-01-01T08:15:00.000+00:00"
      }
    }
  }, {
    "fullUrl": "https://madie.cms.gov/Observation/2bf42b72-dc5f-4274-861f-c4bb3bfba268",
    "resource": {
      "resourceType": "Observation",
      "id": "2bf42b72-dc5f-4274-861f-c4bb3bfba268",
      "meta": {
        "profile": [ "http://hl7.org/fhir/us/qicore/StructureDefinition/qicore-observation-lab" ]
      },
      "partOf": [ {
        "reference": "Procedure/319444b6-1ebe-456a-b84a-bcf0a49ed48b"
      } ],
      "status": "final",
      "category": [ {
        "coding": [ {
          "system": "http://terminology.hl7.org/CodeSystem/observation-category",
          "code": "procedure",
          "display": "Procedure"
        } ]
      }, {
        "coding": [ {
          "system": "http://terminology.hl7.org/CodeSystem/observation-category",
          "code": "laboratory",
          "display": "Laboratory"
        } ]
      } ],
      "code": {
        "coding": [ {
          "system": "http://loinc.org",
          "version": "2.76",
          "code": "21902-2",
          "display": "Stage group.pathology Cancer"
        } ]
      },
      "subject": {
        "reference": "Patient/b487e8da-c244-4cb8-9575-48eab7d7c28d"
      },
      "effectivePeriod": {
        "start": "2026-01-01T08:00:00.000+00:00",
        "end": "2026-01-01T08:15:00.000+00:00"
      },
      "issued": "2026-01-01T08:10:00.000+00:00",
      "valueCodeableConcept": {
        "coding": [ {
          "system": "http://hl7.org/fhir/sid/icd-10-cm",
          "version": "http://snomed.info/sct/731000124108/version/20240301",
          "code": "D09.0",
          "display": "Carcinoma in situ of bladder"
        } ]
      }
    }
  }, {
    "fullUrl": "https://madie.cms.gov/MeasureReport/4c3b3db4-3544-4ac5-8975-5d37f5bbc41e",
    "resource": {
      "resourceType": "MeasureReport",
      "id": "4c3b3db4-3544-4ac5-8975-5d37f5bbc41e",
      "meta": {
        "profile": [ "http://hl7.org/fhir/us/cqfmeasures/StructureDefinition/test-case-cqfm" ]
      },
      "contained": [ {
        "resourceType": "Parameters",
        "id": "f6e7f406-e0e0-4b87-b17e-2cb18377ad00-parameters",
        "parameter": [ {
          "name": "subject",
          "valueString": "b487e8da-c244-4cb8-9575-48eab7d7c28d"
        } ]
      } ],
      "extension": [ {
        "url": "http://hl7.org/fhir/StructureDefinition/cqf-inputParameters",
        "valueReference": {
          "reference": "#f6e7f406-e0e0-4b87-b17e-2cb18377ad00-parameters"
        }
      }, {
        "url": "http://hl7.org/fhir/us/cqfmeasures/StructureDefinition/cqfm-testCaseDescription",
        "valueMarkdown": "Patient with bladder cancer and office visit on first day of MP.  Edge testing.  Tested elements of DENOM pass."
      } ],
      "modifierExtension": [ {
        "url": "http://hl7.org/fhir/us/cqfmeasures/StructureDefinition/cqfm-isTestCase",
        "valueBoolean": true
      } ],
      "status": "complete",
      "type": "individual",
      "measure": "https://madie.cms.gov/Measure/CMS646FHIRIntravesicalBCGTherapy",
      "period": {
        "start": "2026-01-01",
        "end": "2026-12-31"
      },
      "group": [ {
        "id": "Group_1",
        "population": [ {
          "id": "InitialPopulation_1",
          "code": {
            "coding": [ {
              "system": "http://terminology.hl7.org/CodeSystem/measure-population",
              "code": "initial-population",
              "display": "Initial Population"
            } ]
          },
          "count": 1
        }, {
          "id": "Denominator_1",
          "code": {
            "coding": [ {
              "system": "http://terminology.hl7.org/CodeSystem/measure-population",
              "code": "denominator",
              "display": "Denominator"
            } ]
          },
          "count": 1
        }, {
          "id": "DenominatorExclusion_1",
          "code": {
            "coding": [ {
              "system": "http://terminology.hl7.org/CodeSystem/measure-population",
              "code": "denominator-exclusion",
              "display": "Denominator Exclusion"
            } ]
          },
          "count": 0
        }, {
          "id": "Numerator_1",
          "code": {
            "coding": [ {
              "system": "http://terminology.hl7.org/CodeSystem/measure-population",
              "code": "numerator",
              "display": "Numerator"
            } ]
          },
          "count": 0
        }, {
          "id": "DenominatorException_1",
          "code": {
            "coding": [ {
              "system": "http://terminology.hl7.org/CodeSystem/measure-population",
              "code": "denominator-exception",
              "display": "Denominator Exception"
            } ]
          },
          "count": 0
        } ],
        "measureScore": {
          "value": 1.0
        }
      } ],
      "evaluatedResource": [ {
        "reference": "Patient/b487e8da-c244-4cb8-9575-48eab7d7c28d"
      }, {
        "reference": "Condition/8ca04776-d1d4-4ad2-99a6-5c76bf90d88b"
      }, {
        "reference": "Encounter/ca964a5f-d73a-4a5f-b824-903d80116d58"
      }, {
        "reference": "Procedure/319444b6-1ebe-456a-b84a-bcf0a49ed48b"
      }, {
        "reference": "Observation/2bf42b72-dc5f-4274-861f-c4bb3bfba268"
      } ]
    }
  } ]
}