{
  "resourceType": "Bundle",
  "id": "632334c2414ba67d4e1d1c32",
  "type": "transaction",
  "entry": [ {
    "fullUrl": "https://madie.cms.gov/Patient/e93adc7d-9d31-4279-9f76-644668f4d3c9",
    "resource": {
      "resourceType": "Patient",
      "id": "e93adc7d-9d31-4279-9f76-644668f4d3c9",
      "meta": {
        "profile": [ "http://hl7.org/fhir/us/qicore/StructureDefinition/qicore-patient" ]
      },
      "extension": [ {
        "url": "http://hl7.org/fhir/us/core/StructureDefinition/us-core-sex",
        "valueCode": "asked-declined"
      }, {
        "url": "http://hl7.org/fhir/us/core/StructureDefinition/us-core-race",
        "extension": [ {
          "url": "ombCategory",
          "valueCoding": {
            "system": "urn:oid:2.16.840.1.113883.6.238",
            "code": "2076-8",
            "display": "Native Hawaiian or Other Pacific Islander",
            "userSelected": true
          }
        }, {
          "url": "text",
          "valueString": "Native Hawaiian or Other Pacific Islander"
        } ]
      }, {
        "url": "http://hl7.org/fhir/us/core/StructureDefinition/us-core-ethnicity",
        "extension": [ {
          "url": "ombCategory",
          "valueCoding": {
            "system": "urn:oid:2.16.840.1.113883.6.238",
            "code": "2135-2",
            "display": "Hispanic or Latino",
            "userSelected": true
          }
        }, {
          "url": "text",
          "valueString": "Hispanic or Latino"
        } ]
      } ],
      "identifier": [ {
        "system": "http://hospital.smarthealthit.org",
        "value": "999999999"
      } ],
      "name": [ {
        "family": "DENEXFail",
        "given": [ "HospiceCodeFromOtherVS" ]
      } ],
      "gender": "unknown",
      "birthDate": "2006-12-31"
    },
    "request": {
      "method": "PUT",
      "url": "Patient/e93adc7d-9d31-4279-9f76-644668f4d3c9"
    }
  }, {
    "fullUrl": "https://madie.cms.gov/Encounter/9c9bd311-e560-45d5-864e-878f5bcca567",
    "resource": {
      "resourceType": "Encounter",
      "id": "9c9bd311-e560-45d5-864e-878f5bcca567",
      "meta": {
        "profile": [ "http://hl7.org/fhir/us/qicore/StructureDefinition/qicore-encounter" ]
      },
      "status": "finished",
      "class": {
        "system": "http://terminology.hl7.org/CodeSystem/v3-ActCode",
        "code": "IMP",
        "display": "inpatient encounter",
        "userSelected": true
      },
      "type": [ {
        "coding": [ {
          "system": "http://snomed.info/sct",
          "code": "183452005",
          "display": "Emergency hospital admission (procedure)",
          "userSelected": true
        } ]
      } ],
      "subject": {
        "reference": "Patient/e93adc7d-9d31-4279-9f76-644668f4d3c9"
      },
      "period": {
        "start": "2026-01-01T00:01:00.000+00:00",
        "end": "2026-01-02T08:30:00.000+00:00"
      },
      "hospitalization": {
        "dischargeDisposition": {
          "coding": [ {
            "system": "http://terminology.hl7.org/CodeSystem/discharge-disposition",
            "code": "hosp",
            "display": "Hospice",
            "userSelected": true
          } ]
        }
      }
    },
    "request": {
      "method": "PUT",
      "url": "Encounter/9c9bd311-e560-45d5-864e-878f5bcca567"
    }
  }, {
    "fullUrl": "https://madie.cms.gov/MedicationRequest/aa65c443-0fc7-4228-9ae8-03229fc1b908",
    "resource": {
      "resourceType": "MedicationRequest",
      "id": "aa65c443-0fc7-4228-9ae8-03229fc1b908",
      "meta": {
        "profile": [ "http://hl7.org/fhir/us/qicore/StructureDefinition/qicore-medicationrequest" ]
      },
      "status": "active",
      "intent": "order",
      "category": [ {
        "coding": [ {
          "system": "http://terminology.hl7.org/CodeSystem/medicationrequest-category",
          "code": "discharge",
          "display": "Discharge",
          "userSelected": true
        } ]
      } ],
      "doNotPerform": false,
      "medicationCodeableConcept": {
        "coding": [ {
          "system": "http://www.nlm.nih.gov/research/umls/rxnorm",
          "code": "1014599",
          "display": "acetaminophen 300 MG / oxycodone hydrochloride 10 MG Oral Tablet",
          "userSelected": true
        } ]
      },
      "subject": {
        "reference": "Patient/e93adc7d-9d31-4279-9f76-644668f4d3c9"
      },
      "authoredOn": "2026-01-02T08:30:00.000+00:00",
      "requester": {
        "reference": "Practitioner/4c2b8506-1353-4e46-8ba3-2c4629e0dce7"
      }
    },
    "request": {
      "method": "PUT",
      "url": "MedicationRequest/aa65c443-0fc7-4228-9ae8-03229fc1b908"
    }
  }, {
    "fullUrl": "https://madie.cms.gov/Practitioner/4c2b8506-1353-4e46-8ba3-2c4629e0dce7",
    "resource": {
      "resourceType": "Practitioner",
      "id": "4c2b8506-1353-4e46-8ba3-2c4629e0dce7",
      "meta": {
        "profile": [ "http://hl7.org/fhir/us/qicore/StructureDefinition/qicore-practitioner" ]
      },
      "identifier": [ {
        "system": "http://hl7.org/fhir/sid/us-npi",
        "value": "9999999896"
      } ],
      "active": true,
      "name": [ {
        "family": "Ramires",
        "given": [ "Alma" ],
        "prefix": [ "Dr" ]
      } ],
      "address": [ {
        "use": "home",
        "line": [ "534 Erewhon St" ],
        "city": "Netherville",
        "state": "IN",
        "postalCode": "46131"
      } ],
      "qualification": [ {
        "identifier": [ {
          "system": "http://goodhealth.org/prIdentifier",
          "value": "12345"
        } ],
        "code": {
          "coding": [ {
            "system": "http://terminology.hl7.org/CodeSystem/v2-0360|2.7",
            "code": "BS",
            "display": "Bachelor of Science"
          } ],
          "text": "Bachelor of Science"
        },
        "period": {
          "start": "1995"
        },
        "issuer": {
          "display": "Example University"
        }
      } ]
    },
    "request": {
      "method": "PUT",
      "url": "Practitioner/4c2b8506-1353-4e46-8ba3-2c4629e0dce7"
    }
  }, {
    "fullUrl": "https://madie.cms.gov/Coverage/04efe3e7-5459-46ac-a301-3147d7601f09",
    "resource": {
      "resourceType": "Coverage",
      "id": "04efe3e7-5459-46ac-a301-3147d7601f09",
      "meta": {
        "profile": [ "http://hl7.org/fhir/us/qicore/StructureDefinition/qicore-coverage" ]
      },
      "status": "active",
      "subscriberId": "523435",
      "beneficiary": {
        "reference": "Patient/e93adc7d-9d31-4279-9f76-644668f4d3c9"
      },
      "relationship": {
        "coding": [ {
          "system": "http://terminology.hl7.org/CodeSystem/subscriber-relationship",
          "code": "self"
        } ]
      },
      "payor": [ {
        "reference": "Organization/ca4caf4d-089a-408c-899c-5c6c368e7f8e"
      } ]
    },
    "request": {
      "method": "PUT",
      "url": "Coverage/04efe3e7-5459-46ac-a301-3147d7601f09"
    }
  }, {
    "fullUrl": "https://madie.cms.gov/Organization/ca4caf4d-089a-408c-899c-5c6c368e7f8e",
    "resource": {
      "resourceType": "Organization",
      "id": "ca4caf4d-089a-408c-899c-5c6c368e7f8e",
      "meta": {
        "profile": [ "http://hl7.org/fhir/us/qicore/StructureDefinition/qicore-organization" ]
      },
      "identifier": [ {
        "use": "temp",
        "system": "urn:oid:2.16.840.1.113883.4.4",
        "value": "21-3259825"
      } ],
      "active": true,
      "type": [ {
        "coding": [ {
          "system": "http://terminology.hl7.org/CodeSystem/organization-type",
          "code": "pay",
          "display": "Payer"
        } ]
      } ],
      "name": "Blue Cross Blue Shield of Texas",
      "telecom": [ {
        "system": "phone",
        "value": "(+1) 972-766-6900"
      } ],
      "address": [ {
        "use": "billing",
        "type": "postal",
        "line": [ "P.O. Box 660044" ],
        "city": "Dallas",
        "state": "TX",
        "postalCode": "75266-0044",
        "country": "USA"
      } ]
    },
    "request": {
      "method": "PUT",
      "url": "Organization/ca4caf4d-089a-408c-899c-5c6c368e7f8e"
    }
  }, {
    "fullUrl": "https://madie.cms.gov/MeasureReport/51f55ef1-6c71-45fe-89f8-9a2b87386bf7",
    "resource": {
      "resourceType": "MeasureReport",
      "id": "51f55ef1-6c71-45fe-89f8-9a2b87386bf7",
      "meta": {
        "profile": [ "http://hl7.org/fhir/us/cqfmeasures/StructureDefinition/test-case-cqfm" ]
      },
      "contained": [ {
        "resourceType": "Parameters",
        "id": "f4d56fff-dd7e-4da3-8445-c2848833c399-parameters",
        "parameter": [ {
          "name": "subject",
          "valueString": "e93adc7d-9d31-4279-9f76-644668f4d3c9"
        } ]
      } ],
      "extension": [ {
        "url": "http://hl7.org/fhir/StructureDefinition/cqf-inputParameters",
        "valueReference": {
          "reference": "#f4d56fff-dd7e-4da3-8445-c2848833c399-parameters"
        }
      }, {
        "url": "http://hl7.org/fhir/us/cqfmeasures/StructureDefinition/cqfm-testCaseDescription",
        "valueMarkdown": "Encounter during MP, opioid prescribed at discharge, dischargeDisposition to hospice but terminology (hosp) used hl7, not the \"Hospice Care Referral or Admission\" value set\n\nSDE Sex null included"
      } ],
      "modifierExtension": [ {
        "url": "http://hl7.org/fhir/us/cqfmeasures/StructureDefinition/cqfm-isTestCase",
        "valueBoolean": true
      } ],
      "status": "complete",
      "type": "individual",
      "measure": "https://madie.cms.gov/Measure/CMS506FHIRSafeUseofOpioids",
      "period": {
        "start": "2026-01-01",
        "end": "2026-12-31"
      },
      "group": [ {
        "id": "Group_1",
        "population": [ {
          "id": "InitialPopulation_1",
          "code": {
            "coding": [ {
              "system": "http://terminology.hl7.org/CodeSystem/measure-population",
              "code": "initial-population",
              "display": "Initial Population"
            } ]
          },
          "count": 1
        }, {
          "id": "Denominator_1",
          "code": {
            "coding": [ {
              "system": "http://terminology.hl7.org/CodeSystem/measure-population",
              "code": "denominator",
              "display": "Denominator"
            } ]
          },
          "count": 1
        }, {
          "id": "DenominatorExclusion_1",
          "code": {
            "coding": [ {
              "system": "http://terminology.hl7.org/CodeSystem/measure-population",
              "code": "denominator-exclusion",
              "display": "Denominator Exclusion"
            } ]
          },
          "count": 0
        }, {
          "id": "Numerator_1",
          "code": {
            "coding": [ {
              "system": "http://terminology.hl7.org/CodeSystem/measure-population",
              "code": "numerator",
              "display": "Numerator"
            } ]
          },
          "count": 0
        } ],
        "measureScore": {
          "value": 0.0
        }
      } ],
      "evaluatedResource": [ {
        "reference": "Patient/e93adc7d-9d31-4279-9f76-644668f4d3c9"
      }, {
        "reference": "Encounter/9c9bd311-e560-45d5-864e-878f5bcca567"
      }, {
        "reference": "MedicationRequest/aa65c443-0fc7-4228-9ae8-03229fc1b908"
      }, {
        "reference": "Practitioner/4c2b8506-1353-4e46-8ba3-2c4629e0dce7"
      }, {
        "reference": "Coverage/04efe3e7-5459-46ac-a301-3147d7601f09"
      }, {
        "reference": "Organization/ca4caf4d-089a-408c-899c-5c6c368e7f8e"
      } ]
    },
    "request": {
      "method": "PUT",
      "url": "MeasureReport/51f55ef1-6c71-45fe-89f8-9a2b87386bf7"
    }
  } ]
}