{
  "resourceType": "Bundle",
  "id": "NUMERPass-AllAnaphylaxis",
  "type": "transaction",
  "entry": [ {
    "fullUrl": "https://madie.cms.gov/Patient/6a884f9c-67ce-4d35-9385-ab3b46dac3f2",
    "resource": {
      "resourceType": "Patient",
      "id": "6a884f9c-67ce-4d35-9385-ab3b46dac3f2",
      "meta": {
        "profile": [ "http://hl7.org/fhir/us/qicore/StructureDefinition/qicore-patient" ]
      },
      "extension": [ {
        "url": "http://hl7.org/fhir/us/core/StructureDefinition/us-core-race",
        "extension": [ {
          "url": "ombCategory",
          "valueCoding": {
            "system": "urn:oid:2.16.840.1.113883.6.238",
            "code": "2028-9",
            "display": "Asian"
          }
        }, {
          "url": "text",
          "valueString": "Asian"
        } ]
      }, {
        "url": "http://hl7.org/fhir/us/core/StructureDefinition/us-core-ethnicity",
        "extension": [ {
          "url": "ombCategory",
          "valueCoding": {
            "system": "urn:oid:2.16.840.1.113883.6.238",
            "code": "2135-2",
            "display": "Hispanic or Latino"
          }
        }, {
          "url": "text",
          "valueString": "Hispanic or Latino"
        } ]
      } ],
      "identifier": [ {
        "system": "http://hospital.smarthealthit.org",
        "value": "999999995"
      } ],
      "name": [ {
        "family": "Bertha",
        "given": [ "Betty" ]
      } ],
      "gender": "female",
      "birthDate": "2024-01-01"
    },
    "request": {
      "method": "PUT",
      "url": "Patient/6a884f9c-67ce-4d35-9385-ab3b46dac3f2"
    }
  }, {
    "fullUrl": "https://madie.cms.gov/Encounter/316d7999-7ed8-4c25-8caa-0816364deaa0",
    "resource": {
      "resourceType": "Encounter",
      "id": "316d7999-7ed8-4c25-8caa-0816364deaa0",
      "meta": {
        "profile": [ "http://hl7.org/fhir/us/qicore/StructureDefinition/qicore-encounter" ]
      },
      "status": "finished",
      "class": {
        "system": "http://terminology.hl7.org/CodeSystem/v3-ActCode",
        "code": "AMB",
        "display": "ambulatory"
      },
      "type": [ {
        "coding": [ {
          "system": "http://snomed.info/sct",
          "code": "185317003",
          "display": "Telephone encounter (procedure)"
        } ]
      } ],
      "subject": {
        "reference": "Patient/6a884f9c-67ce-4d35-9385-ab3b46dac3f2"
      },
      "period": {
        "start": "2026-01-01T01:00:00.000+00:00",
        "end": "2026-01-01T01:15:00.000+00:00"
      }
    },
    "request": {
      "method": "PUT",
      "url": "Encounter/316d7999-7ed8-4c25-8caa-0816364deaa0"
    }
  }, {
    "fullUrl": "https://madie.cms.gov/Condition/bdb9186d-90b1-4091-b5a2-b7ae78d49ced",
    "resource": {
      "resourceType": "Condition",
      "id": "bdb9186d-90b1-4091-b5a2-b7ae78d49ced",
      "meta": {
        "profile": [ "http://hl7.org/fhir/us/qicore/StructureDefinition/qicore-condition-problems-health-concerns" ]
      },
      "clinicalStatus": {
        "coding": [ {
          "system": "http://terminology.hl7.org/CodeSystem/condition-clinical",
          "code": "active"
        } ]
      },
      "category": [ {
        "coding": [ {
          "system": "http://terminology.hl7.org/CodeSystem/condition-category",
          "code": "problem-list-item",
          "display": "Problem List Item"
        } ]
      } ],
      "code": {
        "coding": [ {
          "system": "http://snomed.info/sct",
          "code": "428291000124105",
          "display": "Anaphylaxis caused by component of vaccine product containing low dose acellular Bordetella pertussis and Clostridium tetani and low dose Corynebacterium diphtheriae antigens"
        } ]
      },
      "subject": {
        "reference": "Patient/6a884f9c-67ce-4d35-9385-ab3b46dac3f2"
      },
      "onsetDateTime": "2025-01-02T00:00:00.000+00:00"
    },
    "request": {
      "method": "PUT",
      "url": "Condition/bdb9186d-90b1-4091-b5a2-b7ae78d49ced"
    }
  }, {
    "fullUrl": "https://madie.cms.gov/Condition/8b1c8e0c-6ecd-4211-8d73-ab185e6d70b8",
    "resource": {
      "resourceType": "Condition",
      "id": "8b1c8e0c-6ecd-4211-8d73-ab185e6d70b8",
      "meta": {
        "profile": [ "http://hl7.org/fhir/us/qicore/StructureDefinition/qicore-condition-problems-health-concerns" ]
      },
      "clinicalStatus": {
        "coding": [ {
          "system": "http://terminology.hl7.org/CodeSystem/condition-clinical",
          "code": "active"
        } ]
      },
      "category": [ {
        "coding": [ {
          "system": "http://terminology.hl7.org/CodeSystem/condition-category",
          "code": "problem-list-item",
          "display": "Problem List Item"
        } ]
      } ],
      "code": {
        "coding": [ {
          "system": "http://snomed.info/sct",
          "code": "471321000124106",
          "display": "Anaphylaxis caused by vaccine product containing human poliovirus antigen (disorder)"
        } ]
      },
      "subject": {
        "reference": "Patient/6a884f9c-67ce-4d35-9385-ab3b46dac3f2"
      },
      "onsetDateTime": "2025-01-02T00:00:00.000+00:00"
    },
    "request": {
      "method": "PUT",
      "url": "Condition/8b1c8e0c-6ecd-4211-8d73-ab185e6d70b8"
    }
  }, {
    "fullUrl": "https://madie.cms.gov/Condition/3d218b58-9aad-44da-8b92-bb2cf52f165d",
    "resource": {
      "resourceType": "Condition",
      "id": "3d218b58-9aad-44da-8b92-bb2cf52f165d",
      "meta": {
        "profile": [ "http://hl7.org/fhir/us/qicore/StructureDefinition/qicore-condition-problems-health-concerns" ]
      },
      "clinicalStatus": {
        "coding": [ {
          "system": "http://terminology.hl7.org/CodeSystem/condition-clinical",
          "code": "active"
        } ]
      },
      "category": [ {
        "coding": [ {
          "system": "http://terminology.hl7.org/CodeSystem/condition-category",
          "code": "problem-list-item",
          "display": "Problem List Item"
        } ]
      } ],
      "code": {
        "coding": [ {
          "system": "http://snomed.info/sct",
          "code": "471331000124109",
          "display": "Anaphylaxis caused by vaccine product containing Measles morbillivirus and Mumps orthorubulavirus and Rubella virus antigens (disorder)"
        } ]
      },
      "subject": {
        "reference": "Patient/6a884f9c-67ce-4d35-9385-ab3b46dac3f2"
      },
      "onsetDateTime": "2025-01-02T00:00:00.000+00:00"
    },
    "request": {
      "method": "PUT",
      "url": "Condition/3d218b58-9aad-44da-8b92-bb2cf52f165d"
    }
  }, {
    "fullUrl": "https://madie.cms.gov/Condition/46e92378-1a90-4c2a-b8ad-7aa91b92865e",
    "resource": {
      "resourceType": "Condition",
      "id": "46e92378-1a90-4c2a-b8ad-7aa91b92865e",
      "meta": {
        "profile": [ "http://hl7.org/fhir/us/qicore/StructureDefinition/qicore-condition-problems-health-concerns" ]
      },
      "clinicalStatus": {
        "coding": [ {
          "system": "http://terminology.hl7.org/CodeSystem/condition-clinical",
          "code": "active"
        } ]
      },
      "category": [ {
        "coding": [ {
          "system": "http://terminology.hl7.org/CodeSystem/condition-category",
          "code": "problem-list-item",
          "display": "Problem List Item"
        } ]
      } ],
      "code": {
        "coding": [ {
          "system": "http://snomed.info/sct",
          "code": "433621000124101",
          "display": "Anaphylaxis caused by vaccine product containing only Haemophilus influenzae type b antigen"
        } ]
      },
      "subject": {
        "reference": "Patient/6a884f9c-67ce-4d35-9385-ab3b46dac3f2"
      },
      "onsetDateTime": "2025-01-02T00:00:00.000+00:00"
    },
    "request": {
      "method": "PUT",
      "url": "Condition/46e92378-1a90-4c2a-b8ad-7aa91b92865e"
    }
  }, {
    "fullUrl": "https://madie.cms.gov/Condition/19d99356-1aa4-465f-9dbc-935495753269",
    "resource": {
      "resourceType": "Condition",
      "id": "19d99356-1aa4-465f-9dbc-935495753269",
      "meta": {
        "profile": [ "http://hl7.org/fhir/us/qicore/StructureDefinition/qicore-condition-problems-health-concerns" ]
      },
      "clinicalStatus": {
        "coding": [ {
          "system": "http://terminology.hl7.org/CodeSystem/condition-clinical",
          "code": "active"
        } ]
      },
      "category": [ {
        "coding": [ {
          "system": "http://terminology.hl7.org/CodeSystem/condition-category",
          "code": "problem-list-item",
          "display": "Problem List Item"
        } ]
      } ],
      "code": {
        "coding": [ {
          "system": "http://snomed.info/sct",
          "code": "428321000124101",
          "display": "Anaphylaxis due to Hepatitis B vaccine"
        } ]
      },
      "subject": {
        "reference": "Patient/6a884f9c-67ce-4d35-9385-ab3b46dac3f2"
      },
      "onsetDateTime": "2025-01-02T00:00:00.000+00:00"
    },
    "request": {
      "method": "PUT",
      "url": "Condition/19d99356-1aa4-465f-9dbc-935495753269"
    }
  }, {
    "fullUrl": "https://madie.cms.gov/Condition/6ba5bd1a-edcb-43bc-b779-79c61deef680",
    "resource": {
      "resourceType": "Condition",
      "id": "6ba5bd1a-edcb-43bc-b779-79c61deef680",
      "meta": {
        "profile": [ "http://hl7.org/fhir/us/qicore/StructureDefinition/qicore-condition-problems-health-concerns" ]
      },
      "clinicalStatus": {
        "coding": [ {
          "system": "http://terminology.hl7.org/CodeSystem/condition-clinical",
          "code": "active"
        } ]
      },
      "category": [ {
        "coding": [ {
          "system": "http://terminology.hl7.org/CodeSystem/condition-category",
          "code": "problem-list-item",
          "display": "Problem List Item"
        } ]
      } ],
      "code": {
        "coding": [ {
          "system": "http://snomed.info/sct",
          "code": "471341000124104",
          "display": "Anaphylaxis caused by vaccine containing Human alphaherpesvirus 3 antigen (disorder)"
        } ]
      },
      "subject": {
        "reference": "Patient/6a884f9c-67ce-4d35-9385-ab3b46dac3f2"
      },
      "onsetDateTime": "2025-01-02T00:00:00.000+00:00"
    },
    "request": {
      "method": "PUT",
      "url": "Condition/6ba5bd1a-edcb-43bc-b779-79c61deef680"
    }
  }, {
    "fullUrl": "https://madie.cms.gov/Condition/6168da28-dc41-49a1-92cf-28a9e359c3ce",
    "resource": {
      "resourceType": "Condition",
      "id": "6168da28-dc41-49a1-92cf-28a9e359c3ce",
      "meta": {
        "profile": [ "http://hl7.org/fhir/us/qicore/StructureDefinition/qicore-condition-problems-health-concerns" ]
      },
      "clinicalStatus": {
        "coding": [ {
          "system": "http://terminology.hl7.org/CodeSystem/condition-clinical",
          "code": "active"
        } ]
      },
      "category": [ {
        "coding": [ {
          "system": "http://terminology.hl7.org/CodeSystem/condition-category",
          "code": "problem-list-item",
          "display": "Problem List Item"
        } ]
      } ],
      "code": {
        "coding": [ {
          "system": "http://snomed.info/sct",
          "code": "471141000124102",
          "display": "Anaphylaxis caused by vaccine product containing Streptococcus pneumoniae antigen (disorder)"
        } ]
      },
      "subject": {
        "reference": "Patient/6a884f9c-67ce-4d35-9385-ab3b46dac3f2"
      },
      "onsetDateTime": "2025-01-12T00:00:00.000+00:00"
    },
    "request": {
      "method": "PUT",
      "url": "Condition/6168da28-dc41-49a1-92cf-28a9e359c3ce"
    }
  }, {
    "fullUrl": "https://madie.cms.gov/Condition/682001eb-8779-4031-a9e9-31ed71ba43b8",
    "resource": {
      "resourceType": "Condition",
      "id": "682001eb-8779-4031-a9e9-31ed71ba43b8",
      "meta": {
        "profile": [ "http://hl7.org/fhir/us/qicore/StructureDefinition/qicore-condition-problems-health-concerns" ]
      },
      "clinicalStatus": {
        "coding": [ {
          "system": "http://terminology.hl7.org/CodeSystem/condition-clinical",
          "code": "active"
        } ]
      },
      "category": [ {
        "coding": [ {
          "system": "http://terminology.hl7.org/CodeSystem/condition-category",
          "code": "problem-list-item",
          "display": "Problem List Item"
        } ]
      } ],
      "code": {
        "coding": [ {
          "system": "http://snomed.info/sct",
          "code": "471311000124103",
          "display": "Anaphylaxis caused by vaccine product containing Hepatitis A virus antigen (disorder)"
        } ]
      },
      "subject": {
        "reference": "Patient/6a884f9c-67ce-4d35-9385-ab3b46dac3f2"
      },
      "onsetDateTime": "2025-01-02T00:00:00.000+00:00"
    },
    "request": {
      "method": "PUT",
      "url": "Condition/682001eb-8779-4031-a9e9-31ed71ba43b8"
    }
  }, {
    "fullUrl": "https://madie.cms.gov/Condition/7ffadd3c-6471-47fa-a761-989d9a8796c8",
    "resource": {
      "resourceType": "Condition",
      "id": "7ffadd3c-6471-47fa-a761-989d9a8796c8",
      "meta": {
        "profile": [ "http://hl7.org/fhir/us/qicore/StructureDefinition/qicore-condition-problems-health-concerns" ]
      },
      "clinicalStatus": {
        "coding": [ {
          "system": "http://terminology.hl7.org/CodeSystem/condition-clinical",
          "code": "active"
        } ]
      },
      "category": [ {
        "coding": [ {
          "system": "http://terminology.hl7.org/CodeSystem/condition-category",
          "code": "problem-list-item",
          "display": "Problem List Item"
        } ]
      } ],
      "code": {
        "coding": [ {
          "system": "http://snomed.info/sct",
          "code": "428331000124103",
          "display": "Anaphylaxis caused by rotavirus vaccine (disorder)"
        } ]
      },
      "subject": {
        "reference": "Patient/6a884f9c-67ce-4d35-9385-ab3b46dac3f2"
      },
      "onsetDateTime": "2025-01-02T00:00:00.000+00:00"
    },
    "request": {
      "method": "PUT",
      "url": "Condition/7ffadd3c-6471-47fa-a761-989d9a8796c8"
    }
  }, {
    "fullUrl": "https://madie.cms.gov/Condition/bdb9186d-90b1-4091-b5a2-b7ae78d49ced0",
    "resource": {
      "resourceType": "Condition",
      "id": "bdb9186d-90b1-4091-b5a2-b7ae78d49ced0",
      "meta": {
        "profile": [ "http://hl7.org/fhir/us/qicore/StructureDefinition/qicore-condition-problems-health-concerns" ]
      },
      "clinicalStatus": {
        "coding": [ {
          "system": "http://terminology.hl7.org/CodeSystem/condition-clinical",
          "code": "active"
        } ]
      },
      "category": [ {
        "coding": [ {
          "system": "http://terminology.hl7.org/CodeSystem/condition-category",
          "code": "problem-list-item",
          "display": "Problem List Item"
        } ]
      } ],
      "code": {
        "coding": [ {
          "system": "http://snomed.info/sct",
          "code": "471361000124100",
          "display": "Anaphylaxis caused by vaccine product containing Influenza virus antigen (disorder)"
        } ]
      },
      "subject": {
        "reference": "Patient/6a884f9c-67ce-4d35-9385-ab3b46dac3f2"
      },
      "onsetDateTime": "2025-01-02T00:00:00.000+00:00"
    },
    "request": {
      "method": "PUT",
      "url": "Condition/bdb9186d-90b1-4091-b5a2-b7ae78d49ced0"
    }
  }, {
    "fullUrl": "https://madie.cms.gov/MeasureReport/f9863f30-82ef-4916-b4a8-69d2df4f63c1",
    "resource": {
      "resourceType": "MeasureReport",
      "id": "f9863f30-82ef-4916-b4a8-69d2df4f63c1",
      "meta": {
        "profile": [ "http://hl7.org/fhir/us/cqfmeasures/StructureDefinition/test-case-cqfm" ]
      },
      "contained": [ {
        "resourceType": "Parameters",
        "id": "e3010b5b-af21-41c4-82aa-0ee1a486ddf3-parameters",
        "parameter": [ {
          "name": "subject",
          "valueString": "6a884f9c-67ce-4d35-9385-ab3b46dac3f2"
        } ]
      } ],
      "extension": [ {
        "url": "http://hl7.org/fhir/StructureDefinition/cqf-inputParameters",
        "valueReference": {
          "reference": "#e3010b5b-af21-41c4-82aa-0ee1a486ddf3-parameters"
        }
      }, {
        "url": "http://hl7.org/fhir/us/cqfmeasures/StructureDefinition/cqfm-testCaseDescription",
        "valueMarkdown": "All anaphylaxis"
      } ],
      "modifierExtension": [ {
        "url": "http://hl7.org/fhir/us/cqfmeasures/StructureDefinition/cqfm-isTestCase",
        "valueBoolean": true
      } ],
      "status": "complete",
      "type": "individual",
      "measure": "https://madie.cms.gov/Measure/CMS117FHIRChildImmunStatus",
      "period": {
        "start": "2026-01-01",
        "end": "2026-12-31"
      },
      "group": [ {
        "id": "Group_1",
        "population": [ {
          "id": "InitialPopulation_1",
          "code": {
            "coding": [ {
              "system": "http://terminology.hl7.org/CodeSystem/measure-population",
              "code": "initial-population",
              "display": "Initial Population"
            } ]
          },
          "count": 1
        }, {
          "id": "Denominator_1",
          "code": {
            "coding": [ {
              "system": "http://terminology.hl7.org/CodeSystem/measure-population",
              "code": "denominator",
              "display": "Denominator"
            } ]
          },
          "count": 1
        }, {
          "id": "DenominatorExclusion_1",
          "code": {
            "coding": [ {
              "system": "http://terminology.hl7.org/CodeSystem/measure-population",
              "code": "denominator-exclusion",
              "display": "Denominator Exclusion"
            } ]
          },
          "count": 0
        }, {
          "id": "Numerator_1",
          "code": {
            "coding": [ {
              "system": "http://terminology.hl7.org/CodeSystem/measure-population",
              "code": "numerator",
              "display": "Numerator"
            } ]
          },
          "count": 1
        } ],
        "measureScore": {
          "value": 1.0
        }
      } ],
      "evaluatedResource": [ {
        "reference": "Patient/6a884f9c-67ce-4d35-9385-ab3b46dac3f2"
      }, {
        "reference": "Encounter/316d7999-7ed8-4c25-8caa-0816364deaa0"
      }, {
        "reference": "Condition/bdb9186d-90b1-4091-b5a2-b7ae78d49ced"
      }, {
        "reference": "Condition/8b1c8e0c-6ecd-4211-8d73-ab185e6d70b8"
      }, {
        "reference": "Condition/3d218b58-9aad-44da-8b92-bb2cf52f165d"
      }, {
        "reference": "Condition/46e92378-1a90-4c2a-b8ad-7aa91b92865e"
      }, {
        "reference": "Condition/19d99356-1aa4-465f-9dbc-935495753269"
      }, {
        "reference": "Condition/6ba5bd1a-edcb-43bc-b779-79c61deef680"
      }, {
        "reference": "Condition/6168da28-dc41-49a1-92cf-28a9e359c3ce"
      }, {
        "reference": "Condition/682001eb-8779-4031-a9e9-31ed71ba43b8"
      }, {
        "reference": "Condition/7ffadd3c-6471-47fa-a761-989d9a8796c8"
      }, {
        "reference": "Condition/bdb9186d-90b1-4091-b5a2-b7ae78d49ced0"
      } ]
    },
    "request": {
      "method": "PUT",
      "url": "MeasureReport/f9863f30-82ef-4916-b4a8-69d2df4f63c1"
    }
  } ]
}