{
  "resourceType": "Bundle",
  "id": "62fd2c9e32e2f917c3627d87",
  "type": "collection",
  "entry": [ {
    "fullUrl": "https://madie.cms.gov/Patient/8fabf398-d258-4613-b8d8-12bcbc273dc8",
    "resource": {
      "resourceType": "Patient",
      "id": "8fabf398-d258-4613-b8d8-12bcbc273dc8",
      "meta": {
        "profile": [ "http://hl7.org/fhir/us/qicore/StructureDefinition/qicore-patient" ]
      },
      "extension": [ {
        "url": "http://hl7.org/fhir/us/core/StructureDefinition/us-core-race",
        "extension": [ {
          "url": "ombCategory",
          "valueCoding": {
            "system": "urn:oid:2.16.840.1.113883.6.238",
            "code": "1002-5",
            "display": "American Indian or Alaska Native",
            "userSelected": true
          }
        }, {
          "url": "text",
          "valueString": "American Indian or Alaska Native"
        } ]
      }, {
        "url": "http://hl7.org/fhir/us/core/StructureDefinition/us-core-ethnicity",
        "extension": [ {
          "url": "ombCategory",
          "valueCoding": {
            "system": "urn:oid:2.16.840.1.113883.6.238",
            "code": "2135-2",
            "display": "Hispanic or Latino",
            "userSelected": true
          }
        }, {
          "url": "text",
          "valueString": "Hispanic or Latino"
        } ]
      } ],
      "identifier": [ {
        "type": {
          "coding": [ {
            "system": "http://terminology.hl7.org/CodeSystem/v2-0203",
            "code": "MR"
          } ]
        },
        "system": "https://bonnie-fhir.healthit.gov/",
        "value": "62fd2c9e32e2f917c3627d87"
      } ],
      "name": [ {
        "family": "NUMERPass",
        "given": [ "BoneScanBeforeMP" ]
      } ],
      "gender": "male",
      "birthDate": "1987-02-27"
    }
  }, {
    "fullUrl": "https://madie.cms.gov/Condition/ae072ca3-cdff-49bd-bdd5-b85515c1d2e3",
    "resource": {
      "resourceType": "Condition",
      "id": "ae072ca3-cdff-49bd-bdd5-b85515c1d2e3",
      "meta": {
        "profile": [ "http://hl7.org/fhir/us/qicore/StructureDefinition/qicore-condition-problems-health-concerns" ]
      },
      "clinicalStatus": {
        "coding": [ {
          "system": "http://terminology.hl7.org/CodeSystem/condition-clinical",
          "code": "active",
          "display": "active",
          "userSelected": true
        } ]
      },
      "category": [ {
        "coding": [ {
          "system": "http://terminology.hl7.org/CodeSystem/condition-category",
          "code": "problem-list-item",
          "display": "Problem List Item"
        }, {
          "system": "http://snomed.info/sct",
          "code": "439401001",
          "display": "Diagnosis"
        } ]
      } ],
      "code": {
        "coding": [ {
          "system": "http://snomed.info/sct",
          "code": "254900004",
          "display": "Carcinoma of prostate (disorder)",
          "userSelected": true
        } ]
      },
      "subject": {
        "reference": "Patient/8fabf398-d258-4613-b8d8-12bcbc273dc8"
      },
      "onsetDateTime": "2026-01-07T08:00:00.000+00:00",
      "recordedDate": "2026-06-02T08:00:00.000+00:00"
    }
  }, {
    "fullUrl": "https://madie.cms.gov/Condition/f122153c-8132-4b3b-bfc6-7cd73aa00748",
    "resource": {
      "resourceType": "Condition",
      "id": "f122153c-8132-4b3b-bfc6-7cd73aa00748",
      "meta": {
        "profile": [ "http://hl7.org/fhir/us/qicore/StructureDefinition/qicore-condition-encounter-diagnosis" ]
      },
      "clinicalStatus": {
        "coding": [ {
          "system": "http://terminology.hl7.org/CodeSystem/condition-clinical",
          "code": "active",
          "display": "active",
          "userSelected": true
        } ]
      },
      "category": [ {
        "coding": [ {
          "system": "http://terminology.hl7.org/CodeSystem/condition-category",
          "code": "encounter-diagnosis",
          "display": "Encounter Diagnosis"
        }, {
          "system": "http://snomed.info/sct",
          "code": "439401001",
          "display": "Diagnosis"
        } ]
      } ],
      "code": {
        "coding": [ {
          "system": "http://snomed.info/sct",
          "code": "254900004",
          "display": "Carcinoma of prostate (disorder)",
          "userSelected": true
        } ]
      },
      "subject": {
        "reference": "Patient/8fabf398-d258-4613-b8d8-12bcbc273dc8"
      },
      "onsetDateTime": "2026-01-07T08:00:00.000+00:00",
      "recordedDate": "2026-06-02T08:00:00.000+00:00"
    }
  }, {
    "fullUrl": "https://madie.cms.gov/Procedure/365893c3-0be5-4edb-a0a9-53be6efacd79",
    "resource": {
      "resourceType": "Procedure",
      "id": "365893c3-0be5-4edb-a0a9-53be6efacd79",
      "meta": {
        "profile": [ "http://hl7.org/fhir/us/qicore/StructureDefinition/qicore-procedure" ]
      },
      "extension": [ {
        "url": "http://hl7.org/fhir/us/qicore/StructureDefinition/qicore-recorded",
        "valueDateTime": "2026-02-01T09:00:00.000+00:00"
      } ],
      "status": "completed",
      "code": {
        "coding": [ {
          "system": "http://snomed.info/sct",
          "code": "38915000",
          "display": "Radionuclide therapy for gland ablation (procedure)",
          "userSelected": true
        } ]
      },
      "subject": {
        "reference": "Patient/8fabf398-d258-4613-b8d8-12bcbc273dc8"
      },
      "performedDateTime": "2026-06-02T08:00:00.000+00:00"
    }
  }, {
    "fullUrl": "https://madie.cms.gov/Observation/8058ce59-57d3-46f9-82e0-581e7a484f30",
    "resource": {
      "resourceType": "Observation",
      "id": "8058ce59-57d3-46f9-82e0-581e7a484f30",
      "meta": {
        "profile": [ "http://hl7.org/fhir/us/qicore/StructureDefinition/qicore-observation-lab" ]
      },
      "status": "final",
      "category": [ {
        "coding": [ {
          "system": "http://terminology.hl7.org/CodeSystem/observation-category",
          "code": "laboratory",
          "display": "Laboratory"
        } ]
      } ],
      "code": {
        "coding": [ {
          "system": "http://loinc.org",
          "version": "2.72",
          "code": "2857-1",
          "display": "Prostate specific Ag [Mass/volume] in Serum or Plasma",
          "userSelected": true
        } ]
      },
      "subject": {
        "reference": "Patient/8fabf398-d258-4613-b8d8-12bcbc273dc8"
      },
      "effectiveDateTime": "2026-01-07T08:00:00.000+00:00",
      "issued": "2026-04-02T08:00:00.000+00:00",
      "valueQuantity": {
        "value": 8,
        "system": "http://unitsofmeasure.org",
        "code": "ng/mL"
      }
    }
  }, {
    "fullUrl": "https://madie.cms.gov/Observation/e299d73b-64f1-491d-8014-5edd8950365b",
    "resource": {
      "resourceType": "Observation",
      "id": "e299d73b-64f1-491d-8014-5edd8950365b",
      "meta": {
        "profile": [ "http://hl7.org/fhir/us/qicore/StructureDefinition/qicore-observation-clinical-result" ]
      },
      "status": "final",
      "category": [ {
        "coding": [ {
          "system": "http://terminology.hl7.org/CodeSystem/observation-category",
          "code": "procedure",
          "display": "Procedure"
        } ]
      } ],
      "code": {
        "coding": [ {
          "system": "http://loinc.org",
          "code": "35266-6",
          "display": "Gleason score in Specimen Qualitative",
          "userSelected": true
        } ]
      },
      "subject": {
        "reference": "Patient/8fabf398-d258-4613-b8d8-12bcbc273dc8"
      },
      "effectivePeriod": {
        "start": "2026-04-02T08:00:00.000+00:00"
      },
      "issued": "2026-04-02T08:00:00.000+00:00",
      "valueInteger": 5
    }
  }, {
    "fullUrl": "https://madie.cms.gov/Observation/0994416f-4825-404c-9e40-f01dc65ab59c",
    "resource": {
      "resourceType": "Observation",
      "id": "0994416f-4825-404c-9e40-f01dc65ab59c",
      "meta": {
        "profile": [ "http://hl7.org/fhir/us/qicore/StructureDefinition/qicore-observation-clinical-result" ]
      },
      "status": "final",
      "category": [ {
        "coding": [ {
          "system": "http://terminology.hl7.org/CodeSystem/observation-category",
          "code": "procedure",
          "display": "Procedure"
        } ]
      } ],
      "code": {
        "coding": [ {
          "system": "http://snomed.info/sct",
          "code": "254292007",
          "display": "Tumor staging (tumor staging)",
          "userSelected": true
        } ]
      },
      "subject": {
        "reference": "Patient/8fabf398-d258-4613-b8d8-12bcbc273dc8"
      },
      "focus": [ {
        "reference": "Condition/ae072ca3-cdff-49bd-bdd5-b85515c1d2e3"
      } ],
      "effectivePeriod": {
        "start": "2026-02-07T08:00:00.000+00:00"
      },
      "issued": "2026-02-02T08:00:00.000+00:00",
      "valueCodeableConcept": {
        "coding": [ {
          "system": "http://snomed.info/sct",
          "code": "1228892002",
          "display": "American Joint Committee on Cancer cT1a (qualifier value)",
          "userSelected": true
        } ]
      }
    }
  }, {
    "fullUrl": "https://madie.cms.gov/Observation/fb82c352-e057-4f23-b78c-6bd855a9ef80",
    "resource": {
      "resourceType": "Observation",
      "id": "fb82c352-e057-4f23-b78c-6bd855a9ef80",
      "meta": {
        "profile": [ "http://hl7.org/fhir/us/qicore/StructureDefinition/qicore-observation-clinical-result" ]
      },
      "status": "final",
      "category": [ {
        "coding": [ {
          "system": "http://terminology.hl7.org/CodeSystem/observation-category",
          "code": "procedure",
          "display": "Procedure"
        } ]
      } ],
      "code": {
        "coding": [ {
          "system": "http://loinc.org",
          "version": "2.72",
          "code": "25031-6",
          "display": "NM Bone Views",
          "userSelected": true
        } ]
      },
      "subject": {
        "reference": "Patient/8fabf398-d258-4613-b8d8-12bcbc273dc8"
      },
      "effectiveDateTime": "2025-12-31T08:00:00.000+00:00",
      "issued": "2026-02-02T08:00:00.000+00:00",
      "valueString": "Normal results found"
    }
  }, {
    "fullUrl": "https://madie.cms.gov/Coverage/c10c0892-32c2-42ba-b7ed-59dc07196a6f",
    "resource": {
      "resourceType": "Coverage",
      "id": "c10c0892-32c2-42ba-b7ed-59dc07196a6f",
      "meta": {
        "profile": [ "http://hl7.org/fhir/us/qicore/StructureDefinition/qicore-coverage" ]
      },
      "status": "active",
      "subscriberId": "123456789",
      "beneficiary": {
        "reference": "Patient/8fabf398-d258-4613-b8d8-12bcbc273dc8"
      },
      "relationship": {
        "coding": [ {
          "system": "http://terminology.hl7.org/CodeSystem/subscriber-relationship",
          "code": "self",
          "display": "Self",
          "userSelected": true
        } ]
      },
      "payor": [ {
        "reference": "Organization/7b1fd82f-5f20-4311-acd9-54291b4fd2e2"
      } ]
    }
  }, {
    "fullUrl": "https://madie.cms.gov/Organization/7b1fd82f-5f20-4311-acd9-54291b4fd2e2",
    "resource": {
      "resourceType": "Organization",
      "id": "7b1fd82f-5f20-4311-acd9-54291b4fd2e2",
      "meta": {
        "profile": [ "http://hl7.org/fhir/us/qicore/StructureDefinition/qicore-organization" ]
      },
      "identifier": [ {
        "use": "temp",
        "system": "urn:oid:2.16.840.1.113883.4.4",
        "value": "21-3259825"
      } ],
      "active": true,
      "type": [ {
        "coding": [ {
          "system": "http://terminology.hl7.org/CodeSystem/organization-type",
          "code": "pay",
          "display": "Payer"
        } ]
      } ],
      "name": "Blue Cross Blue Shield of Texas",
      "telecom": [ {
        "system": "phone",
        "value": "(+1) 972-766-6900"
      } ],
      "address": [ {
        "use": "billing",
        "type": "postal",
        "line": [ "P.O. Box 660044" ],
        "city": "Dallas",
        "state": "TX",
        "postalCode": "75266-0044",
        "country": "USA"
      } ]
    }
  }, {
    "fullUrl": "https://madie.cms.gov/Practitioner/a5486219-5e44-490b-b9c2-c6de02e8469c",
    "resource": {
      "resourceType": "Practitioner",
      "id": "a5486219-5e44-490b-b9c2-c6de02e8469c",
      "meta": {
        "profile": [ "http://hl7.org/fhir/us/qicore/StructureDefinition/qicore-practitioner" ]
      },
      "identifier": [ {
        "system": "http://hl7.org/fhir/sid/us-npi",
        "value": "1234567893"
      } ],
      "name": [ {
        "family": "Evil",
        "prefix": [ "Dr" ]
      } ]
    }
  }, {
    "fullUrl": "https://madie.cms.gov/MeasureReport/e421ddfc-f648-4e3e-b216-1ec67e20ac44",
    "resource": {
      "resourceType": "MeasureReport",
      "id": "e421ddfc-f648-4e3e-b216-1ec67e20ac44",
      "meta": {
        "profile": [ "http://hl7.org/fhir/us/cqfmeasures/StructureDefinition/test-case-cqfm" ]
      },
      "contained": [ {
        "resourceType": "Parameters",
        "id": "6e3e8b21-ee53-4b6e-9527-bc1af210836e-parameters",
        "parameter": [ {
          "name": "subject",
          "valueString": "8fabf398-d258-4613-b8d8-12bcbc273dc8"
        } ]
      } ],
      "extension": [ {
        "url": "http://hl7.org/fhir/StructureDefinition/cqf-inputParameters",
        "valueReference": {
          "reference": "#6e3e8b21-ee53-4b6e-9527-bc1af210836e-parameters"
        }
      }, {
        "url": "http://hl7.org/fhir/us/cqfmeasures/StructureDefinition/cqfm-testCaseDescription",
        "valueMarkdown": "Bone scan occurs before Measurement Period. "
      } ],
      "modifierExtension": [ {
        "url": "http://hl7.org/fhir/us/cqfmeasures/StructureDefinition/cqfm-isTestCase",
        "valueBoolean": true
      } ],
      "status": "complete",
      "type": "individual",
      "measure": "https://madie.cms.gov/Measure/CMS129FHIRProstCaBoneScanUse",
      "period": {
        "start": "2026-01-01",
        "end": "2026-12-31"
      },
      "group": [ {
        "id": "Group_1",
        "population": [ {
          "id": "InitialPopulation_1",
          "code": {
            "coding": [ {
              "system": "http://terminology.hl7.org/CodeSystem/measure-population",
              "code": "initial-population",
              "display": "Initial Population"
            } ]
          },
          "count": 1
        }, {
          "id": "Denominator_1",
          "code": {
            "coding": [ {
              "system": "http://terminology.hl7.org/CodeSystem/measure-population",
              "code": "denominator",
              "display": "Denominator"
            } ]
          },
          "count": 1
        }, {
          "id": "Numerator_1",
          "code": {
            "coding": [ {
              "system": "http://terminology.hl7.org/CodeSystem/measure-population",
              "code": "numerator",
              "display": "Numerator"
            } ]
          },
          "count": 1
        }, {
          "id": "DenominatorException_1",
          "code": {
            "coding": [ {
              "system": "http://terminology.hl7.org/CodeSystem/measure-population",
              "code": "denominator-exception",
              "display": "Denominator Exception"
            } ]
          },
          "count": 0
        } ],
        "measureScore": {
          "value": 1.0
        }
      } ],
      "evaluatedResource": [ {
        "reference": "Patient/8fabf398-d258-4613-b8d8-12bcbc273dc8"
      }, {
        "reference": "Condition/ae072ca3-cdff-49bd-bdd5-b85515c1d2e3"
      }, {
        "reference": "Condition/f122153c-8132-4b3b-bfc6-7cd73aa00748"
      }, {
        "reference": "Procedure/365893c3-0be5-4edb-a0a9-53be6efacd79"
      }, {
        "reference": "Observation/8058ce59-57d3-46f9-82e0-581e7a484f30"
      }, {
        "reference": "Observation/e299d73b-64f1-491d-8014-5edd8950365b"
      }, {
        "reference": "Observation/0994416f-4825-404c-9e40-f01dc65ab59c"
      }, {
        "reference": "Observation/fb82c352-e057-4f23-b78c-6bd855a9ef80"
      }, {
        "reference": "Coverage/c10c0892-32c2-42ba-b7ed-59dc07196a6f"
      }, {
        "reference": "Organization/7b1fd82f-5f20-4311-acd9-54291b4fd2e2"
      }, {
        "reference": "Practitioner/a5486219-5e44-490b-b9c2-c6de02e8469c"
      } ]
    }
  } ]
}