{
  "resourceType": "Bundle",
  "id": "tests-NumexFail-HighGlucoseMoreThan1HourPriorToEncStart-bundle",
  "type": "transaction",
  "entry": [ {
    "fullUrl": "https://madie.cms.gov/Condition/62733998-246b-411b-924a-106a5c4061fa",
    "resource": {
      "resourceType": "Condition",
      "id": "62733998-246b-411b-924a-106a5c4061fa",
      "meta": {
        "profile": [ "http://hl7.org/fhir/us/qicore/StructureDefinition/qicore-condition-encounter-diagnosis" ]
      },
      "clinicalStatus": {
        "coding": [ {
          "system": "http://terminology.hl7.org/CodeSystem/condition-clinical",
          "code": "active"
        } ]
      },
      "verificationStatus": {
        "coding": [ {
          "system": "http://terminology.hl7.org/CodeSystem/condition-ver-status",
          "code": "confirmed"
        } ]
      },
      "category": [ {
        "coding": [ {
          "system": "http://terminology.hl7.org/CodeSystem/condition-category",
          "code": "encounter-diagnosis",
          "display": "Encounter Diagnosis"
        } ]
      } ],
      "code": {
        "coding": [ {
          "system": "http://snomed.info/sct",
          "code": "102781000119107",
          "display": "Diabetes"
        } ]
      },
      "subject": {
        "reference": "Patient/76dc2b63-710c-4ac5-afef-f76c2ef07dcd"
      },
      "encounter": {
        "reference": "Encounter/bc2561ab-24b6-42e5-aaf3-b813ac49b81a"
      },
      "onsetDateTime": "2026-10-14T08:00:00.000+00:00"
    },
    "request": {
      "method": "PUT",
      "url": "Condition/62733998-246b-411b-924a-106a5c4061fa"
    }
  }, {
    "fullUrl": "https://madie.cms.gov/Encounter/bc2561ab-24b6-42e5-aaf3-b813ac49b81a",
    "resource": {
      "resourceType": "Encounter",
      "id": "bc2561ab-24b6-42e5-aaf3-b813ac49b81a",
      "meta": {
        "profile": [ "http://hl7.org/fhir/us/qicore/StructureDefinition/qicore-encounter" ]
      },
      "status": "finished",
      "class": {
        "system": "http://terminology.hl7.org/CodeSystem/v3-ActCode",
        "code": "IMP",
        "display": "inpatient encounter"
      },
      "type": [ {
        "coding": [ {
          "system": "http://snomed.info/sct",
          "code": "183452005",
          "display": "Inpatient encounter"
        } ]
      } ],
      "subject": {
        "reference": "Patient/76dc2b63-710c-4ac5-afef-f76c2ef07dcd"
      },
      "period": {
        "start": "2026-10-14T08:00:00.000+00:00",
        "end": "2026-10-21T08:15:00.000+00:00"
      }
    },
    "request": {
      "method": "PUT",
      "url": "Encounter/bc2561ab-24b6-42e5-aaf3-b813ac49b81a"
    }
  }, {
    "fullUrl": "https://madie.cms.gov/Patient/76dc2b63-710c-4ac5-afef-f76c2ef07dcd",
    "resource": {
      "resourceType": "Patient",
      "id": "76dc2b63-710c-4ac5-afef-f76c2ef07dcd",
      "meta": {
        "profile": [ "http://hl7.org/fhir/us/qicore/StructureDefinition/qicore-patient" ]
      },
      "extension": [ {
        "url": "http://hl7.org/fhir/us/core/StructureDefinition/us-core-race",
        "extension": [ {
          "url": "ombCategory",
          "valueCoding": {
            "system": "urn:oid:2.16.840.1.113883.6.238",
            "code": "2106-3",
            "display": "White"
          }
        }, {
          "url": "text",
          "valueString": "White"
        } ]
      }, {
        "url": "http://hl7.org/fhir/us/core/StructureDefinition/us-core-ethnicity",
        "extension": [ {
          "url": "ombCategory",
          "valueCoding": {
            "system": "urn:oid:2.16.840.1.113883.6.238",
            "code": "2135-2",
            "display": "Hispanic or Latino"
          }
        }, {
          "url": "text",
          "valueString": "Hispanic or Latino"
        } ]
      }, {
        "url": "http://hl7.org/fhir/us/core/StructureDefinition/us-core-sex",
        "valueCode": "248153007"
      } ],
      "identifier": [ {
        "system": "http://hospital.smarthealthit.org",
        "value": "999999999"
      } ],
      "name": [ {
        "family": "Example",
        "given": [ "Patient" ]
      } ],
      "gender": "female",
      "birthDate": "1956-01-01"
    },
    "request": {
      "method": "PUT",
      "url": "Patient/76dc2b63-710c-4ac5-afef-f76c2ef07dcd"
    }
  }, {
    "fullUrl": "https://madie.cms.gov/Observation/a1a0e9ab-abb7-438a-b0ee-2d3cb64589d7",
    "resource": {
      "resourceType": "Observation",
      "id": "a1a0e9ab-abb7-438a-b0ee-2d3cb64589d7",
      "meta": {
        "profile": [ "http://hl7.org/fhir/us/qicore/StructureDefinition/qicore-observation-lab" ]
      },
      "status": "final",
      "category": [ {
        "coding": [ {
          "system": "http://terminology.hl7.org/CodeSystem/observation-category",
          "code": "laboratory",
          "display": "Laboratory"
        } ]
      } ],
      "code": {
        "coding": [ {
          "system": "http://loinc.org",
          "version": "2.72",
          "code": "1547-9",
          "display": "Glucose Lab Test Mass Per Volume"
        } ]
      },
      "subject": {
        "reference": "Patient/76dc2b63-710c-4ac5-afef-f76c2ef07dcd"
      },
      "effectiveDateTime": "2026-10-14T06:59:00.000+00:00",
      "valueQuantity": {
        "value": 1001,
        "unit": "mg/dL"
      }
    },
    "request": {
      "method": "PUT",
      "url": "Observation/a1a0e9ab-abb7-438a-b0ee-2d3cb64589d7"
    }
  }, {
    "fullUrl": "https://madie.cms.gov/Observation/547ece2a-8935-4599-8b94-67c4a7862bb5",
    "resource": {
      "resourceType": "Observation",
      "id": "547ece2a-8935-4599-8b94-67c4a7862bb5",
      "meta": {
        "profile": [ "http://hl7.org/fhir/us/qicore/StructureDefinition/qicore-observation-lab" ]
      },
      "status": "final",
      "category": [ {
        "coding": [ {
          "system": "http://terminology.hl7.org/CodeSystem/observation-category",
          "code": "laboratory",
          "display": "Laboratory"
        } ]
      } ],
      "code": {
        "coding": [ {
          "system": "http://loinc.org",
          "version": "2.72",
          "code": "1556-0",
          "display": "Fasting glucose [Mass/volume] in Capillary blood"
        } ]
      },
      "subject": {
        "reference": "Patient/76dc2b63-710c-4ac5-afef-f76c2ef07dcd"
      },
      "effectiveDateTime": "2026-10-16T09:00:00.000+00:00",
      "valueQuantity": {
        "value": 350,
        "unit": "mg/dL"
      }
    },
    "request": {
      "method": "PUT",
      "url": "Observation/547ece2a-8935-4599-8b94-67c4a7862bb5"
    }
  }, {
    "fullUrl": "https://madie.cms.gov/Observation/0af29181-1a28-467d-9d4b-b77de0b3028c",
    "resource": {
      "resourceType": "Observation",
      "id": "0af29181-1a28-467d-9d4b-b77de0b3028c",
      "meta": {
        "profile": [ "http://hl7.org/fhir/us/qicore/StructureDefinition/qicore-observation-lab" ]
      },
      "status": "final",
      "category": [ {
        "coding": [ {
          "system": "http://terminology.hl7.org/CodeSystem/observation-category",
          "code": "laboratory",
          "display": "Laboratory"
        } ]
      } ],
      "code": {
        "coding": [ {
          "system": "http://loinc.org",
          "version": "2.72",
          "code": "1556-0",
          "display": "Fasting glucose [Mass/volume] in Capillary blood"
        } ]
      },
      "subject": {
        "reference": "Patient/76dc2b63-710c-4ac5-afef-f76c2ef07dcd"
      },
      "effectiveDateTime": "2026-10-15T09:00:00.000+00:00",
      "valueQuantity": {
        "value": 301,
        "unit": "mg/dL"
      }
    },
    "request": {
      "method": "PUT",
      "url": "Observation/0af29181-1a28-467d-9d4b-b77de0b3028c"
    }
  }, {
    "fullUrl": "https://madie.cms.gov/Observation/e5e44a95-8c38-4178-bf42-6623a36dd117",
    "resource": {
      "resourceType": "Observation",
      "id": "e5e44a95-8c38-4178-bf42-6623a36dd117",
      "meta": {
        "profile": [ "http://hl7.org/fhir/us/qicore/StructureDefinition/qicore-observation-lab" ]
      },
      "status": "final",
      "category": [ {
        "coding": [ {
          "system": "http://terminology.hl7.org/CodeSystem/observation-category",
          "code": "laboratory",
          "display": "Laboratory"
        } ]
      } ],
      "code": {
        "coding": [ {
          "system": "http://loinc.org",
          "version": "2.72",
          "code": "1556-0",
          "display": "Fasting glucose [Mass/volume] in Capillary blood"
        } ]
      },
      "subject": {
        "reference": "Patient/76dc2b63-710c-4ac5-afef-f76c2ef07dcd"
      },
      "effectiveDateTime": "2026-10-18T09:00:00.000+00:00",
      "valueQuantity": {
        "value": 400,
        "unit": "mg/dL"
      }
    },
    "request": {
      "method": "PUT",
      "url": "Observation/e5e44a95-8c38-4178-bf42-6623a36dd117"
    }
  }, {
    "fullUrl": "https://madie.cms.gov/MeasureReport/eaa31743-c56c-45e9-8bbd-877d956245a8",
    "resource": {
      "resourceType": "MeasureReport",
      "id": "eaa31743-c56c-45e9-8bbd-877d956245a8",
      "meta": {
        "profile": [ "http://hl7.org/fhir/us/cqfmeasures/StructureDefinition/test-case-cqfm" ]
      },
      "contained": [ {
        "resourceType": "Parameters",
        "id": "5f03d1ab-b844-411f-a604-7c16e4216ef6-parameters",
        "parameter": [ {
          "name": "subject",
          "valueString": "76dc2b63-710c-4ac5-afef-f76c2ef07dcd"
        } ]
      } ],
      "extension": [ {
        "url": "http://hl7.org/fhir/StructureDefinition/cqf-inputParameters",
        "valueReference": {
          "reference": "#5f03d1ab-b844-411f-a604-7c16e4216ef6-parameters"
        }
      }, {
        "url": "http://hl7.org/fhir/us/cqfmeasures/StructureDefinition/cqfm-testCaseDescription",
        "valueMarkdown": "Enc start 10/14 at 8am. Glucose 1001 at 6:59am, more than 1 hour prior to enc start, so does not meet denom exclusion. There are 4 hyperglycemic event days, and num is not excluded since this case is not excluded from denom. \nDenex fails\nNumex fails"
      } ],
      "modifierExtension": [ {
        "url": "http://hl7.org/fhir/us/cqfmeasures/StructureDefinition/cqfm-isTestCase",
        "valueBoolean": true
      } ],
      "status": "complete",
      "type": "individual",
      "measure": "https://madie.cms.gov/Measure/CMS871FHIRHHHyper",
      "period": {
        "start": "2026-01-01",
        "end": "2026-12-31"
      },
      "group": [ {
        "id": "Group_1",
        "population": [ {
          "id": "InitialPopulation_1",
          "code": {
            "coding": [ {
              "system": "http://terminology.hl7.org/CodeSystem/measure-population",
              "code": "initial-population",
              "display": "Initial Population"
            } ]
          },
          "count": 1
        }, {
          "id": "Denominator_1",
          "code": {
            "coding": [ {
              "system": "http://terminology.hl7.org/CodeSystem/measure-population",
              "code": "denominator",
              "display": "Denominator"
            } ]
          },
          "count": 1
        }, {
          "id": "DenominatorExclusion_1",
          "code": {
            "coding": [ {
              "system": "http://terminology.hl7.org/CodeSystem/measure-population",
              "code": "denominator-exclusion",
              "display": "Denominator Exclusion"
            } ]
          },
          "count": 0
        }, {
          "id": "Numerator_1",
          "code": {
            "coding": [ {
              "system": "http://terminology.hl7.org/CodeSystem/measure-population",
              "code": "numerator",
              "display": "Numerator"
            } ]
          },
          "count": 1
        }, {
          "id": "NumeratorExclusion_1",
          "code": {
            "coding": [ {
              "system": "http://terminology.hl7.org/CodeSystem/measure-population",
              "code": "numerator-exclusion",
              "display": "Numerator Exclusion"
            } ]
          },
          "count": 0
        }, {
          "id": "MeasureObservation_1_1_1",
          "code": {
            "coding": [ {
              "system": "http://terminology.hl7.org/CodeSystem/measure-population",
              "code": "measure-observation",
              "display": "Measure Observation"
            } ]
          },
          "count": 6
        }, {
          "id": "MeasureObservation_1_2_1",
          "code": {
            "coding": [ {
              "system": "http://terminology.hl7.org/CodeSystem/measure-population",
              "code": "measure-observation",
              "display": "Measure Observation"
            } ]
          },
          "count": 4
        } ],
        "measureScore": {
          "value": 0.0
        }
      } ],
      "evaluatedResource": [ {
        "reference": "Condition/62733998-246b-411b-924a-106a5c4061fa"
      }, {
        "reference": "Encounter/bc2561ab-24b6-42e5-aaf3-b813ac49b81a"
      }, {
        "reference": "Patient/76dc2b63-710c-4ac5-afef-f76c2ef07dcd"
      }, {
        "reference": "Observation/a1a0e9ab-abb7-438a-b0ee-2d3cb64589d7"
      }, {
        "reference": "Observation/547ece2a-8935-4599-8b94-67c4a7862bb5"
      }, {
        "reference": "Observation/0af29181-1a28-467d-9d4b-b77de0b3028c"
      }, {
        "reference": "Observation/e5e44a95-8c38-4178-bf42-6623a36dd117"
      } ]
    },
    "request": {
      "method": "PUT",
      "url": "MeasureReport/eaa31743-c56c-45e9-8bbd-877d956245a8"
    }
  } ]
}