{
  "resourceType": "Bundle",
  "id": "Patient-IPPass-MedicalNutritionTherapy3",
  "type": "transaction",
  "entry": [ {
    "fullUrl": "https://madie.cms.gov/Patient/d3ac0220-8947-489d-b7fe-a199d5365a6f",
    "resource": {
      "resourceType": "Patient",
      "id": "d3ac0220-8947-489d-b7fe-a199d5365a6f",
      "meta": {
        "profile": [ "http://hl7.org/fhir/us/qicore/StructureDefinition/qicore-patient" ]
      },
      "extension": [ {
        "url": "http://hl7.org/fhir/us/core/StructureDefinition/us-core-race",
        "extension": [ {
          "url": "ombCategory",
          "valueCoding": {
            "system": "urn:oid:2.16.840.1.113883.6.238",
            "code": "2028-9",
            "display": "Asian"
          }
        }, {
          "url": "text",
          "valueString": "Asian"
        } ]
      }, {
        "url": "http://hl7.org/fhir/us/core/StructureDefinition/us-core-ethnicity",
        "extension": [ {
          "url": "ombCategory",
          "valueCoding": {
            "system": "urn:oid:2.16.840.1.113883.6.238",
            "code": "2135-2",
            "display": "Hispanic or Latino"
          }
        }, {
          "url": "text",
          "valueString": "Hispanic or Latino"
        } ]
      } ],
      "identifier": [ {
        "system": "http://hospital.smarthealthit.org",
        "value": "999999995"
      } ],
      "name": [ {
        "family": "Bertha",
        "given": [ "Betty" ]
      } ],
      "gender": "female",
      "birthDate": "2008-01-01"
    },
    "request": {
      "method": "PUT",
      "url": "Patient/d3ac0220-8947-489d-b7fe-a199d5365a6f"
    }
  }, {
    "fullUrl": "https://madie.cms.gov/Encounter/7598bdaa-ad41-4858-9cad-2a126afaaaa5",
    "resource": {
      "resourceType": "Encounter",
      "id": "7598bdaa-ad41-4858-9cad-2a126afaaaa5",
      "meta": {
        "profile": [ "http://hl7.org/fhir/us/qicore/StructureDefinition/qicore-encounter" ]
      },
      "status": "finished",
      "class": {
        "system": "http://terminology.hl7.org/CodeSystem/v3-ActCode",
        "code": "AMB",
        "display": "ambulatory"
      },
      "type": [ {
        "coding": [ {
          "system": "http://www.ama-assn.org/go/cpt",
          "code": "97802",
          "display": "Medical nutrition therapy; initial assessment and intervention, individual, face-to-face with the patient, each 15 minutes"
        } ]
      } ],
      "subject": {
        "reference": "Patient/d3ac0220-8947-489d-b7fe-a199d5365a6f"
      },
      "period": {
        "start": "2026-01-01T00:00:00.000+00:00",
        "end": "2026-01-01T00:15:00.000+00:00"
      }
    },
    "request": {
      "method": "PUT",
      "url": "Encounter/7598bdaa-ad41-4858-9cad-2a126afaaaa5"
    }
  }, {
    "fullUrl": "https://madie.cms.gov/Condition/4682114d-2ab6-480a-8e60-e2d0daeff69f",
    "resource": {
      "resourceType": "Condition",
      "id": "4682114d-2ab6-480a-8e60-e2d0daeff69f",
      "meta": {
        "profile": [ "http://hl7.org/fhir/us/qicore/StructureDefinition/qicore-condition-encounter-diagnosis" ]
      },
      "clinicalStatus": {
        "coding": [ {
          "system": "http://terminology.hl7.org/CodeSystem/condition-clinical",
          "code": "active"
        } ]
      },
      "category": [ {
        "coding": [ {
          "system": "http://terminology.hl7.org/CodeSystem/condition-category",
          "code": "encounter-diagnosis",
          "display": "Encounter Diagnosis"
        } ]
      } ],
      "code": {
        "coding": [ {
          "system": "http://snomed.info/sct",
          "code": "102781000119107",
          "display": "Sensory neuropathy due to type 1 diabetes mellitus (disorder)"
        } ]
      },
      "subject": {
        "reference": "Patient/d3ac0220-8947-489d-b7fe-a199d5365a6f"
      },
      "onsetDateTime": "2026-01-01T23:59:00.000+00:00"
    },
    "request": {
      "method": "PUT",
      "url": "Condition/4682114d-2ab6-480a-8e60-e2d0daeff69f"
    }
  }, {
    "fullUrl": "https://madie.cms.gov/MeasureReport/b77c8374-03bb-4521-9e0f-f57281ca4da8",
    "resource": {
      "resourceType": "MeasureReport",
      "id": "b77c8374-03bb-4521-9e0f-f57281ca4da8",
      "meta": {
        "profile": [ "http://hl7.org/fhir/us/cqfmeasures/StructureDefinition/test-case-cqfm" ]
      },
      "contained": [ {
        "resourceType": "Parameters",
        "id": "4b90536d-62e9-4345-a7dd-770f37236d59-parameters",
        "parameter": [ {
          "name": "subject",
          "valueString": "d3ac0220-8947-489d-b7fe-a199d5365a6f"
        } ]
      } ],
      "extension": [ {
        "url": "http://hl7.org/fhir/StructureDefinition/cqf-inputParameters",
        "valueReference": {
          "reference": "#4b90536d-62e9-4345-a7dd-770f37236d59-parameters"
        }
      }, {
        "url": "http://hl7.org/fhir/us/cqfmeasures/StructureDefinition/cqfm-testCaseDescription",
        "valueMarkdown": "Encounter is medical nutrition therapy; initial assessment and intervention, individual, face-to-face with the patient, each 15 minutes"
      } ],
      "modifierExtension": [ {
        "url": "http://hl7.org/fhir/us/cqfmeasures/StructureDefinition/cqfm-isTestCase",
        "valueBoolean": true
      } ],
      "status": "complete",
      "type": "individual",
      "measure": "https://madie.cms.gov/Measure/CMS122FHIRDiabetesAssessGT9Pct",
      "period": {
        "start": "2026-01-01",
        "end": "2026-12-31"
      },
      "group": [ {
        "id": "Group_1",
        "population": [ {
          "id": "InitialPopulation_1",
          "code": {
            "coding": [ {
              "system": "http://terminology.hl7.org/CodeSystem/measure-population",
              "code": "initial-population",
              "display": "Initial Population"
            } ]
          },
          "count": 1
        }, {
          "id": "Denominator_1",
          "code": {
            "coding": [ {
              "system": "http://terminology.hl7.org/CodeSystem/measure-population",
              "code": "denominator",
              "display": "Denominator"
            } ]
          },
          "count": 1
        }, {
          "id": "DenominatorExclusion_1",
          "code": {
            "coding": [ {
              "system": "http://terminology.hl7.org/CodeSystem/measure-population",
              "code": "denominator-exclusion",
              "display": "Denominator Exclusion"
            } ]
          },
          "count": 0
        }, {
          "id": "Numerator_1",
          "code": {
            "coding": [ {
              "system": "http://terminology.hl7.org/CodeSystem/measure-population",
              "code": "numerator",
              "display": "Numerator"
            } ]
          },
          "count": 1
        } ],
        "measureScore": {
          "value": 1.0
        }
      } ],
      "evaluatedResource": [ {
        "reference": "Patient/d3ac0220-8947-489d-b7fe-a199d5365a6f"
      }, {
        "reference": "Encounter/7598bdaa-ad41-4858-9cad-2a126afaaaa5"
      }, {
        "reference": "Condition/4682114d-2ab6-480a-8e60-e2d0daeff69f"
      } ]
    },
    "request": {
      "method": "PUT",
      "url": "MeasureReport/b77c8374-03bb-4521-9e0f-f57281ca4da8"
    }
  } ]
}