{
  "resourceType": "Bundle",
  "id": "63487c2f0968f801225401ae",
  "type": "transaction",
  "entry": [ {
    "fullUrl": "https://madie.cms.gov/Patient/014b44f2-2119-4009-8ef2-4b6a62d6dd7a",
    "resource": {
      "resourceType": "Patient",
      "id": "014b44f2-2119-4009-8ef2-4b6a62d6dd7a",
      "meta": {
        "profile": [ "http://hl7.org/fhir/us/qicore/StructureDefinition/qicore-patient" ]
      },
      "text": {
        "status": "generated",
        "div": "<div xmlns=\"http://www.w3.org/1999/xhtml\"><div class=\"hapiHeaderText\">AssessEDDRelDtTimeAfterTimeOfDeliv <b>DENFAIL </b></div><table class=\"hapiPropertyTable\"><tbody><tr><td>Identifier</td><td>b00b06f67015bda652373741cca10f65466d828e3a674df9528f73ec417ce0bb</td></tr><tr><td>Date of birth</td><td><span>14 February 1985</span></td></tr></tbody></table></div>"
      },
      "extension": [ {
        "url": "http://hl7.org/fhir/us/core/StructureDefinition/us-core-race",
        "extension": [ {
          "url": "ombCategory",
          "valueCoding": {
            "system": "urn:oid:2.16.840.1.113883.6.238",
            "code": "1002-5",
            "display": "American Indian or Alaska Native",
            "userSelected": true
          }
        }, {
          "url": "text",
          "valueString": "American Indian or Alaska Native"
        } ]
      }, {
        "url": "http://hl7.org/fhir/us/core/StructureDefinition/us-core-ethnicity",
        "extension": [ {
          "url": "ombCategory",
          "valueCoding": {
            "system": "urn:oid:2.16.840.1.113883.6.238",
            "code": "2135-2",
            "display": "Hispanic or Latino",
            "userSelected": true
          }
        }, {
          "url": "text",
          "valueString": "Hispanic or Latino"
        } ]
      } ],
      "identifier": [ {
        "type": {
          "coding": [ {
            "system": "http://terminology.hl7.org/CodeSystem/v2-0203",
            "code": "MR"
          } ]
        },
        "system": "https://bonnie-fhir.healthit.gov/",
        "value": "63487c2f0968f801225401ae"
      } ],
      "active": true,
      "name": [ {
        "use": "usual",
        "family": "DENFail",
        "given": [ "AssessEDDRelDtTimeAfterTimeOfDeliv" ]
      } ],
      "gender": "female",
      "birthDate": "1998-02-14"
    },
    "request": {
      "method": "PUT",
      "url": "Patient/014b44f2-2119-4009-8ef2-4b6a62d6dd7a"
    }
  }, {
    "fullUrl": "https://madie.cms.gov/Observation/17642b52-d9dd-414e-ba8f-a27a8e9a6282",
    "resource": {
      "resourceType": "Observation",
      "id": "17642b52-d9dd-414e-ba8f-a27a8e9a6282",
      "meta": {
        "profile": [ "http://hl7.org/fhir/us/qicore/StructureDefinition/qicore-simple-observation" ]
      },
      "status": "final",
      "category": [ {
        "coding": [ {
          "system": "http://terminology.hl7.org/CodeSystem/observation-category",
          "code": "exam",
          "display": "exam",
          "userSelected": true
        } ]
      } ],
      "code": {
        "coding": [ {
          "system": "http://loinc.org",
          "code": "93857-1"
        } ]
      },
      "subject": {
        "reference": "Patient/014b44f2-2119-4009-8ef2-4b6a62d6dd7a"
      },
      "effectiveDateTime": "2026-01-15T08:00:00.000+00:00",
      "valueDateTime": "2026-01-15T08:00:00.000+00:00"
    },
    "request": {
      "method": "PUT",
      "url": "Observation/17642b52-d9dd-414e-ba8f-a27a8e9a6282"
    }
  }, {
    "fullUrl": "https://madie.cms.gov/Observation/659be299-ac79-44c2-8087-b76cc1d97efe",
    "resource": {
      "resourceType": "Observation",
      "id": "659be299-ac79-44c2-8087-b76cc1d97efe",
      "meta": {
        "profile": [ "http://hl7.org/fhir/us/qicore/StructureDefinition/qicore-simple-observation" ]
      },
      "status": "final",
      "category": [ {
        "coding": [ {
          "system": "http://terminology.hl7.org/CodeSystem/observation-category",
          "code": "exam",
          "display": "exam",
          "userSelected": true
        } ]
      } ],
      "code": {
        "coding": [ {
          "system": "http://loinc.org",
          "code": "11778-8"
        } ]
      },
      "subject": {
        "reference": "Patient/014b44f2-2119-4009-8ef2-4b6a62d6dd7a"
      },
      "effectiveDateTime": "2026-01-15T08:01:00.000+00:00",
      "valueDateTime": "2026-02-04T08:00:00.000+00:00"
    },
    "request": {
      "method": "PUT",
      "url": "Observation/659be299-ac79-44c2-8087-b76cc1d97efe"
    }
  }, {
    "fullUrl": "https://madie.cms.gov/Observation/2f1d0d5d-f8f5-4240-bfd5-203f84ead853",
    "resource": {
      "resourceType": "Observation",
      "id": "2f1d0d5d-f8f5-4240-bfd5-203f84ead853",
      "meta": {
        "profile": [ "http://hl7.org/fhir/us/qicore/StructureDefinition/qicore-simple-observation" ]
      },
      "status": "final",
      "category": [ {
        "coding": [ {
          "system": "http://terminology.hl7.org/CodeSystem/observation-category",
          "code": "exam",
          "display": "exam",
          "userSelected": true
        } ]
      } ],
      "code": {
        "coding": [ {
          "system": "http://loinc.org",
          "code": "11996-6"
        } ]
      },
      "subject": {
        "reference": "Patient/014b44f2-2119-4009-8ef2-4b6a62d6dd7a"
      },
      "effectiveDateTime": "2026-01-15T07:59:00.000+00:00",
      "valueInteger": 1
    },
    "request": {
      "method": "PUT",
      "url": "Observation/2f1d0d5d-f8f5-4240-bfd5-203f84ead853"
    }
  }, {
    "fullUrl": "https://madie.cms.gov/Encounter/725eb42f-6d57-47dc-a8d1-4bc27af95447",
    "resource": {
      "resourceType": "Encounter",
      "id": "725eb42f-6d57-47dc-a8d1-4bc27af95447",
      "meta": {
        "profile": [ "http://hl7.org/fhir/us/qicore/StructureDefinition/qicore-encounter" ]
      },
      "status": "finished",
      "class": {
        "system": "http://terminology.hl7.org/CodeSystem/v3-ActCode",
        "code": "IMP",
        "display": "inpatient encounter"
      },
      "type": [ {
        "coding": [ {
          "system": "http://snomed.info/sct",
          "code": "183452005"
        } ]
      } ],
      "subject": {
        "reference": "Patient/014b44f2-2119-4009-8ef2-4b6a62d6dd7a"
      },
      "period": {
        "start": "2026-01-15T08:00:00.000+00:00",
        "end": "2026-01-20T08:15:00.000+00:00"
      },
      "reasonReference": [ {
        "reference": "Condition/fe292e1c-3991-4628-8f00-291aadc5c071"
      } ]
    },
    "request": {
      "method": "PUT",
      "url": "Encounter/725eb42f-6d57-47dc-a8d1-4bc27af95447"
    }
  }, {
    "fullUrl": "https://madie.cms.gov/Procedure/f55a7821-6b64-4f07-876f-d6bc6d02053e",
    "resource": {
      "resourceType": "Procedure",
      "id": "f55a7821-6b64-4f07-876f-d6bc6d02053e",
      "meta": {
        "profile": [ "http://hl7.org/fhir/us/qicore/StructureDefinition/qicore-procedure" ]
      },
      "extension": [ {
        "url": "http://hl7.org/fhir/us/qicore/StructureDefinition/qicore-recorded",
        "valueDateTime": "2014-04-05T13:35:00.000+00:00"
      } ],
      "status": "completed",
      "code": {
        "coding": [ {
          "system": "http://www.cms.gov/Medicare/Coding/ICD10",
          "code": "10D07Z3"
        }, {
          "system": "http://www.icd10data.com/icd10pcs",
          "code": "10D07Z3",
          "userSelected": true
        } ]
      },
      "subject": {
        "reference": "Patient/014b44f2-2119-4009-8ef2-4b6a62d6dd7a"
      },
      "performedPeriod": {
        "start": "2026-01-15T08:10:00.000+00:00",
        "end": "2026-01-15T09:14:00.000+00:00"
      }
    },
    "request": {
      "method": "PUT",
      "url": "Procedure/f55a7821-6b64-4f07-876f-d6bc6d02053e"
    }
  }, {
    "fullUrl": "https://madie.cms.gov/Condition/fe292e1c-3991-4628-8f00-291aadc5c071",
    "resource": {
      "resourceType": "Condition",
      "id": "fe292e1c-3991-4628-8f00-291aadc5c071",
      "meta": {
        "profile": [ "http://hl7.org/fhir/us/qicore/StructureDefinition/qicore-condition-encounter-diagnosis" ]
      },
      "category": [ {
        "coding": [ {
          "system": "http://terminology.hl7.org/CodeSystem/condition-category",
          "code": "encounter-diagnosis",
          "display": "Encounter Diagnosis"
        } ]
      } ],
      "code": {
        "coding": [ {
          "system": "http://snomed.info/sct",
          "version": "2022-09",
          "code": "169826009",
          "display": "Single live birth from singleton pregnancy (finding)",
          "userSelected": true
        } ]
      },
      "subject": {
        "reference": "Patient/014b44f2-2119-4009-8ef2-4b6a62d6dd7a"
      },
      "recordedDate": "2026-10-21T08:00:00.000+00:00"
    },
    "request": {
      "method": "PUT",
      "url": "Condition/fe292e1c-3991-4628-8f00-291aadc5c071"
    }
  }, {
    "fullUrl": "https://madie.cms.gov/Coverage/8b67a8ca-7a25-4821-8cf9-eb8b86422f5d",
    "resource": {
      "resourceType": "Coverage",
      "id": "8b67a8ca-7a25-4821-8cf9-eb8b86422f5d",
      "meta": {
        "profile": [ "http://hl7.org/fhir/us/qicore/StructureDefinition/qicore-coverage" ]
      },
      "status": "active",
      "subscriberId": "523435",
      "beneficiary": {
        "reference": "Patient/014b44f2-2119-4009-8ef2-4b6a62d6dd7a"
      },
      "relationship": {
        "coding": [ {
          "system": "http://terminology.hl7.org/CodeSystem/subscriber-relationship",
          "code": "self"
        } ]
      },
      "payor": [ {
        "reference": "Organization/63a4aa50-0307-43b9-b7b7-a2113db96634"
      } ]
    },
    "request": {
      "method": "PUT",
      "url": "Coverage/8b67a8ca-7a25-4821-8cf9-eb8b86422f5d"
    }
  }, {
    "fullUrl": "https://madie.cms.gov/Organization/63a4aa50-0307-43b9-b7b7-a2113db96634",
    "resource": {
      "resourceType": "Organization",
      "id": "63a4aa50-0307-43b9-b7b7-a2113db96634",
      "meta": {
        "profile": [ "http://hl7.org/fhir/us/qicore/StructureDefinition/qicore-organization" ]
      },
      "identifier": [ {
        "use": "temp",
        "system": "urn:oid:2.16.840.1.113883.4.4",
        "value": "21-3259825"
      } ],
      "active": true,
      "type": [ {
        "coding": [ {
          "system": "http://terminology.hl7.org/CodeSystem/organization-type",
          "code": "pay",
          "display": "Payer"
        } ]
      } ],
      "name": "Blue Cross Blue Shield of Texas",
      "telecom": [ {
        "system": "phone",
        "value": "(+1) 972-766-6900"
      } ],
      "address": [ {
        "use": "billing",
        "type": "postal",
        "line": [ "P.O. Box 660044" ],
        "city": "Dallas",
        "state": "TX",
        "postalCode": "75266-0044",
        "country": "USA"
      } ]
    },
    "request": {
      "method": "PUT",
      "url": "Organization/63a4aa50-0307-43b9-b7b7-a2113db96634"
    }
  }, {
    "fullUrl": "https://madie.cms.gov/Practitioner/fcb2d7bd-7845-4272-a14c-aeb3f12ee180",
    "resource": {
      "resourceType": "Practitioner",
      "id": "fcb2d7bd-7845-4272-a14c-aeb3f12ee180",
      "meta": {
        "profile": [ "http://hl7.org/fhir/us/qicore/StructureDefinition/qicore-practitioner" ]
      },
      "identifier": [ {
        "system": "http://hl7.org/fhir/sid/us-npi",
        "value": "1234567890"
      } ],
      "name": [ {
        "family": "Evil",
        "prefix": [ "Dr" ]
      } ]
    },
    "request": {
      "method": "PUT",
      "url": "Practitioner/fcb2d7bd-7845-4272-a14c-aeb3f12ee180"
    }
  }, {
    "fullUrl": "https://madie.cms.gov/MeasureReport/4f6a2df3-47ce-4928-b255-14a9b7a14ae6",
    "resource": {
      "resourceType": "MeasureReport",
      "id": "4f6a2df3-47ce-4928-b255-14a9b7a14ae6",
      "meta": {
        "profile": [ "http://hl7.org/fhir/us/cqfmeasures/StructureDefinition/test-case-cqfm" ]
      },
      "contained": [ {
        "resourceType": "Parameters",
        "id": "40d95fb3-d6e6-424f-ae03-38aaf545efdc-parameters",
        "parameter": [ {
          "name": "subject",
          "valueString": "014b44f2-2119-4009-8ef2-4b6a62d6dd7a"
        } ]
      } ],
      "extension": [ {
        "url": "http://hl7.org/fhir/StructureDefinition/cqf-inputParameters",
        "valueReference": {
          "reference": "#40d95fb3-d6e6-424f-ae03-38aaf545efdc-parameters"
        }
      }, {
        "url": "http://hl7.org/fhir/us/cqfmeasures/StructureDefinition/cqfm-testCaseDescription",
        "valueMarkdown": "Passes: IP, Fails DENOM, Pt is 27 years of age,  encounter dx delivery of singleton, gravida=1authored less than 42 weeks prior to delivery, Delivery date Estimated Relevant DateTime AFTER the Time of Delivery\n"
      } ],
      "modifierExtension": [ {
        "url": "http://hl7.org/fhir/us/cqfmeasures/StructureDefinition/cqfm-isTestCase",
        "valueBoolean": true
      } ],
      "status": "complete",
      "type": "individual",
      "measure": "https://madie.cms.gov/Measure/CMS0334FHIRPCCesareanBirth",
      "period": {
        "start": "2026-01-01",
        "end": "2026-12-31"
      },
      "group": [ {
        "id": "Group_1",
        "population": [ {
          "id": "InitialPopulation_1",
          "code": {
            "coding": [ {
              "system": "http://terminology.hl7.org/CodeSystem/measure-population",
              "code": "initial-population",
              "display": "Initial Population"
            } ]
          },
          "count": 1
        }, {
          "id": "Denominator_1",
          "code": {
            "coding": [ {
              "system": "http://terminology.hl7.org/CodeSystem/measure-population",
              "code": "denominator",
              "display": "Denominator"
            } ]
          },
          "count": 0
        }, {
          "id": "DenominatorExclusion_1",
          "code": {
            "coding": [ {
              "system": "http://terminology.hl7.org/CodeSystem/measure-population",
              "code": "denominator-exclusion",
              "display": "Denominator Exclusion"
            } ]
          },
          "count": 0
        }, {
          "id": "Numerator_1",
          "code": {
            "coding": [ {
              "system": "http://terminology.hl7.org/CodeSystem/measure-population",
              "code": "numerator",
              "display": "Numerator"
            } ]
          },
          "count": 0
        } ],
        "measureScore": {
          "value": 0.0
        }
      } ],
      "evaluatedResource": [ {
        "reference": "Patient/014b44f2-2119-4009-8ef2-4b6a62d6dd7a"
      }, {
        "reference": "Observation/17642b52-d9dd-414e-ba8f-a27a8e9a6282"
      }, {
        "reference": "Observation/659be299-ac79-44c2-8087-b76cc1d97efe"
      }, {
        "reference": "Observation/2f1d0d5d-f8f5-4240-bfd5-203f84ead853"
      }, {
        "reference": "Encounter/725eb42f-6d57-47dc-a8d1-4bc27af95447"
      }, {
        "reference": "Procedure/f55a7821-6b64-4f07-876f-d6bc6d02053e"
      }, {
        "reference": "Condition/fe292e1c-3991-4628-8f00-291aadc5c071"
      }, {
        "reference": "Coverage/8b67a8ca-7a25-4821-8cf9-eb8b86422f5d"
      }, {
        "reference": "Organization/63a4aa50-0307-43b9-b7b7-a2113db96634"
      }, {
        "reference": "Practitioner/fcb2d7bd-7845-4272-a14c-aeb3f12ee180"
      } ]
    },
    "request": {
      "method": "PUT",
      "url": "MeasureReport/4f6a2df3-47ce-4928-b255-14a9b7a14ae6"
    }
  } ]
}