{
  "resourceType": "Bundle",
  "id": "612e6a9002c62a011f2ea5f6",
  "type": "transaction",
  "entry": [ {
    "fullUrl": "https://madie.cms.gov/Patient/9b105e54-ec6c-4235-a051-ee4da0ee4a40",
    "resource": {
      "resourceType": "Patient",
      "id": "9b105e54-ec6c-4235-a051-ee4da0ee4a40",
      "meta": {
        "profile": [ "http://hl7.org/fhir/us/qicore/StructureDefinition/qicore-patient" ]
      },
      "text": {
        "status": "generated",
        "div": "<div xmlns=\"http://www.w3.org/1999/xhtml\"><div class=\"hapiHeaderText\">DA_VFP_DayOfAdm_BfAdmDT <b>NUMERPASS </b></div><table class=\"hapiPropertyTable\"><tbody><tr><td>Identifier</td><td>af7fb96c408ff8f32d85ce64a563f18b</td></tr><tr><td>Date of birth</td><td><span>02 January 1974</span></td></tr></tbody></table></div>"
      },
      "extension": [ {
        "url": "http://hl7.org/fhir/us/core/StructureDefinition/us-core-race",
        "extension": [ {
          "url": "ombCategory",
          "valueCoding": {
            "system": "urn:oid:2.16.840.1.113883.6.238",
            "code": "1002-5",
            "display": "American Indian or Alaska Native",
            "userSelected": true
          }
        }, {
          "url": "text",
          "valueString": "American Indian or Alaska Native"
        } ]
      }, {
        "url": "http://hl7.org/fhir/us/core/StructureDefinition/us-core-ethnicity",
        "extension": [ {
          "url": "ombCategory",
          "valueCoding": {
            "system": "urn:oid:2.16.840.1.113883.6.238",
            "code": "2135-2",
            "display": "Hispanic or Latino",
            "userSelected": true
          }
        }, {
          "url": "text",
          "valueString": "Hispanic or Latino"
        } ]
      } ],
      "identifier": [ {
        "type": {
          "coding": [ {
            "system": "http://terminology.hl7.org/CodeSystem/v2-0203",
            "code": "MR"
          } ]
        },
        "system": "https://bonnie-fhir.healthit.gov/",
        "value": "612e6a9002c62a011f2ea5f6"
      } ],
      "active": true,
      "name": [ {
        "use": "usual",
        "family": "NUMERPass",
        "given": [ "DAVFPDayOfAdmBfAdmDT" ]
      } ],
      "gender": "male",
      "birthDate": "1975-01-02"
    },
    "request": {
      "method": "PUT",
      "url": "Patient/9b105e54-ec6c-4235-a051-ee4da0ee4a40"
    }
  }, {
    "fullUrl": "https://madie.cms.gov/Encounter/d4a684b1-4b44-498e-9d02-d89987aa909e",
    "resource": {
      "resourceType": "Encounter",
      "id": "d4a684b1-4b44-498e-9d02-d89987aa909e",
      "meta": {
        "profile": [ "http://hl7.org/fhir/us/qicore/StructureDefinition/qicore-encounter" ]
      },
      "status": "finished",
      "class": {
        "system": "http://terminology.hl7.org/CodeSystem/v3-ActCode",
        "code": "IMP",
        "display": "inpatient encounter"
      },
      "type": [ {
        "coding": [ {
          "system": "http://snomed.info/sct",
          "code": "8715000"
        } ]
      } ],
      "subject": {
        "reference": "Patient/9b105e54-ec6c-4235-a051-ee4da0ee4a40"
      },
      "period": {
        "start": "2026-11-01T08:00:00.000+00:00",
        "end": "2026-11-26T08:15:00.000+00:00"
      },
      "length": {
        "value": 25,
        "unit": "days"
      }
    },
    "request": {
      "method": "PUT",
      "url": "Encounter/d4a684b1-4b44-498e-9d02-d89987aa909e"
    }
  }, {
    "fullUrl": "https://madie.cms.gov/Coverage/3912f29c-afe3-4c5e-8a5b-75342da3878f",
    "resource": {
      "resourceType": "Coverage",
      "id": "3912f29c-afe3-4c5e-8a5b-75342da3878f",
      "status": "active",
      "beneficiary": {
        "reference": "Patient/9b105e54-ec6c-4235-a051-ee4da0ee4a40"
      },
      "period": {
        "start": "1975-01-02T08:00:00.000+00:00"
      },
      "payor": [ {
        "reference": "Organization/205f6876-a500-40fc-b22e-0fd391e4255a"
      } ]
    },
    "request": {
      "method": "PUT",
      "url": "Coverage/3912f29c-afe3-4c5e-8a5b-75342da3878f"
    }
  }, {
    "fullUrl": "https://madie.cms.gov/Procedure/08ad1d79-0f6a-4cb5-bbc9-0c67378ab24d",
    "resource": {
      "resourceType": "Procedure",
      "id": "08ad1d79-0f6a-4cb5-bbc9-0c67378ab24d",
      "meta": {
        "profile": [ "http://hl7.org/fhir/us/qicore/StructureDefinition/qicore-procedure" ]
      },
      "extension": [ {
        "url": "http://hl7.org/fhir/us/qicore/StructureDefinition/qicore-recorded",
        "valueDateTime": "2013-11-19T13:35:00.000+00:00"
      } ],
      "status": "completed",
      "code": {
        "coding": [ {
          "system": "http://snomed.info/sct",
          "code": "18946005"
        } ]
      },
      "subject": {
        "reference": "Patient/9b105e54-ec6c-4235-a051-ee4da0ee4a40"
      },
      "performedPeriod": {
        "start": "2026-11-01T09:00:00.000+00:00",
        "end": "2026-11-01T09:15:00.000+00:00"
      }
    },
    "request": {
      "method": "PUT",
      "url": "Procedure/08ad1d79-0f6a-4cb5-bbc9-0c67378ab24d"
    }
  }, {
    "fullUrl": "https://madie.cms.gov/Procedure/42f8a087-aa5d-4cb3-b6fc-5656358a1967",
    "resource": {
      "resourceType": "Procedure",
      "id": "42f8a087-aa5d-4cb3-b6fc-5656358a1967",
      "meta": {
        "profile": [ "http://hl7.org/fhir/us/qicore/StructureDefinition/qicore-procedure" ]
      },
      "extension": [ {
        "url": "http://hl7.org/fhir/us/qicore/StructureDefinition/qicore-recorded",
        "valueDateTime": "2013-11-01T13:35:00.000+00:00"
      } ],
      "status": "completed",
      "code": {
        "coding": [ {
          "system": "http://snomed.info/sct",
          "code": "442410008",
          "display": "Application of venous foot pump (procedure)"
        } ]
      },
      "subject": {
        "reference": "Patient/9b105e54-ec6c-4235-a051-ee4da0ee4a40"
      },
      "performedDateTime": "2026-11-02T07:00:00.000+00:00",
      "usedCode": [ {
        "coding": [ {
          "system": "http://snomed.info/sct",
          "code": "442023007",
          "display": "Venous foot pump, device (physical object)",
          "userSelected": true
        } ]
      } ]
    },
    "request": {
      "method": "PUT",
      "url": "Procedure/42f8a087-aa5d-4cb3-b6fc-5656358a1967"
    }
  }, {
    "fullUrl": "https://madie.cms.gov/Organization/205f6876-a500-40fc-b22e-0fd391e4255a",
    "resource": {
      "resourceType": "Organization",
      "id": "205f6876-a500-40fc-b22e-0fd391e4255a",
      "meta": {
        "profile": [ "http://hl7.org/fhir/us/qicore/StructureDefinition/qicore-organization" ]
      },
      "identifier": [ {
        "use": "temp",
        "system": "urn:oid:2.16.840.1.113883.4.4",
        "value": "21-3259825"
      } ],
      "active": true,
      "type": [ {
        "coding": [ {
          "system": "http://terminology.hl7.org/CodeSystem/organization-type",
          "code": "pay",
          "display": "Payer"
        } ]
      } ],
      "name": "Blue Cross Blue Shield of Texas",
      "telecom": [ {
        "system": "phone",
        "value": "(+1) 972-766-6900"
      } ],
      "address": [ {
        "use": "billing",
        "type": "postal",
        "line": [ "P.O. Box 660044" ],
        "city": "Dallas",
        "state": "TX",
        "postalCode": "75266-0044",
        "country": "USA"
      } ]
    },
    "request": {
      "method": "PUT",
      "url": "Organization/205f6876-a500-40fc-b22e-0fd391e4255a"
    }
  }, {
    "fullUrl": "https://madie.cms.gov/Practitioner/6437221f-784b-40e2-9d57-24793c96486b",
    "resource": {
      "resourceType": "Practitioner",
      "id": "6437221f-784b-40e2-9d57-24793c96486b",
      "identifier": [ {
        "system": "http://hl7.org/fhir/sid/us-npi",
        "value": "123456"
      } ],
      "name": [ {
        "family": "Evil",
        "prefix": [ "Dr" ]
      } ]
    },
    "request": {
      "method": "PUT",
      "url": "Practitioner/6437221f-784b-40e2-9d57-24793c96486b"
    }
  }, {
    "fullUrl": "https://madie.cms.gov/MeasureReport/9d6019b9-4a3c-4294-9797-67ff6879ccf2",
    "resource": {
      "resourceType": "MeasureReport",
      "id": "9d6019b9-4a3c-4294-9797-67ff6879ccf2",
      "meta": {
        "profile": [ "http://hl7.org/fhir/us/cqfmeasures/StructureDefinition/test-case-cqfm" ]
      },
      "contained": [ {
        "resourceType": "Parameters",
        "id": "f59e273e-b756-4ed0-9c23-6800d134c566-parameters",
        "parameter": [ {
          "name": "subject",
          "valueString": "9b105e54-ec6c-4235-a051-ee4da0ee4a40"
        } ]
      } ],
      "extension": [ {
        "url": "http://hl7.org/fhir/StructureDefinition/cqf-inputParameters",
        "valueReference": {
          "reference": "#f59e273e-b756-4ed0-9c23-6800d134c566-parameters"
        }
      }, {
        "url": "http://hl7.org/fhir/us/cqfmeasures/StructureDefinition/cqfm-testCaseDescription",
        "valueMarkdown": "vfp applied on the same day of admission date but it was before adm time"
      } ],
      "modifierExtension": [ {
        "url": "http://hl7.org/fhir/us/cqfmeasures/StructureDefinition/cqfm-isTestCase",
        "valueBoolean": true
      } ],
      "status": "complete",
      "type": "individual",
      "measure": "https://madie.cms.gov/Measure/CMS108FHIRVTEProphylaxis",
      "period": {
        "start": "2026-01-01",
        "end": "2026-12-31"
      },
      "group": [ {
        "id": "Group_1",
        "population": [ {
          "id": "InitialPopulation_1",
          "code": {
            "coding": [ {
              "system": "http://terminology.hl7.org/CodeSystem/measure-population",
              "code": "initial-population",
              "display": "Initial Population"
            } ]
          },
          "count": 1
        }, {
          "id": "Denominator_1",
          "code": {
            "coding": [ {
              "system": "http://terminology.hl7.org/CodeSystem/measure-population",
              "code": "denominator",
              "display": "Denominator"
            } ]
          },
          "count": 1
        }, {
          "id": "DenominatorExclusion_1",
          "code": {
            "coding": [ {
              "system": "http://terminology.hl7.org/CodeSystem/measure-population",
              "code": "denominator-exclusion",
              "display": "Denominator Exclusion"
            } ]
          },
          "count": 0
        }, {
          "id": "Numerator_1",
          "code": {
            "coding": [ {
              "system": "http://terminology.hl7.org/CodeSystem/measure-population",
              "code": "numerator",
              "display": "Numerator"
            } ]
          },
          "count": 1
        } ],
        "measureScore": {
          "value": 0.0
        }
      } ],
      "evaluatedResource": [ {
        "reference": "Patient/9b105e54-ec6c-4235-a051-ee4da0ee4a40"
      }, {
        "reference": "Encounter/d4a684b1-4b44-498e-9d02-d89987aa909e"
      }, {
        "reference": "Coverage/3912f29c-afe3-4c5e-8a5b-75342da3878f"
      }, {
        "reference": "Procedure/08ad1d79-0f6a-4cb5-bbc9-0c67378ab24d"
      }, {
        "reference": "Procedure/42f8a087-aa5d-4cb3-b6fc-5656358a1967"
      }, {
        "reference": "Organization/205f6876-a500-40fc-b22e-0fd391e4255a"
      }, {
        "reference": "Practitioner/6437221f-784b-40e2-9d57-24793c96486b"
      } ]
    },
    "request": {
      "method": "PUT",
      "url": "MeasureReport/9d6019b9-4a3c-4294-9797-67ff6879ccf2"
    }
  } ]
}