{
  "resourceType": "Bundle",
  "id": "612e6f6e02c62a011f2f1d44",
  "type": "transaction",
  "entry": [ {
    "fullUrl": "https://madie.cms.gov/Patient/d70dcaf9-4e69-4395-9612-ee1e156f6184",
    "resource": {
      "resourceType": "Patient",
      "id": "d70dcaf9-4e69-4395-9612-ee1e156f6184",
      "meta": {
        "profile": [ "http://hl7.org/fhir/us/qicore/StructureDefinition/qicore-patient" ]
      },
      "text": {
        "status": "generated",
        "div": "<div xmlns=\"http://www.w3.org/1999/xhtml\"><div class=\"hapiHeaderText\">TestMultipleOccur2inNum <b>NUMERPASS </b></div><table class=\"hapiPropertyTable\"><tbody><tr><td>Identifier</td><td>f9dd0d7a6a9f775928ab2c47f31bfdd50dfc6c91e6f0b0e678b3985354333a28</td></tr><tr><td>Date of birth</td><td><span>03 March 1974</span></td></tr></tbody></table></div>"
      },
      "extension": [ {
        "url": "http://hl7.org/fhir/us/core/StructureDefinition/us-core-race",
        "extension": [ {
          "url": "ombCategory",
          "valueCoding": {
            "system": "urn:oid:2.16.840.1.113883.6.238",
            "code": "1002-5",
            "display": "American Indian or Alaska Native",
            "userSelected": true
          }
        }, {
          "url": "text",
          "valueString": "American Indian or Alaska Native"
        } ]
      }, {
        "url": "http://hl7.org/fhir/us/core/StructureDefinition/us-core-ethnicity",
        "extension": [ {
          "url": "ombCategory",
          "valueCoding": {
            "system": "urn:oid:2.16.840.1.113883.6.238",
            "code": "2135-2",
            "display": "Hispanic or Latino",
            "userSelected": true
          }
        }, {
          "url": "text",
          "valueString": "Hispanic or Latino"
        } ]
      } ],
      "identifier": [ {
        "type": {
          "coding": [ {
            "system": "http://terminology.hl7.org/CodeSystem/v2-0203",
            "code": "MR"
          } ]
        },
        "system": "https://bonnie-fhir.healthit.gov/",
        "value": "612e6f6e02c62a011f2f1d44"
      } ],
      "active": true,
      "name": [ {
        "use": "usual",
        "family": "NUMERPass",
        "given": [ "TestMultipleOccur2inNum" ]
      } ],
      "gender": "female",
      "birthDate": "1975-03-03"
    },
    "request": {
      "method": "PUT",
      "url": "Patient/d70dcaf9-4e69-4395-9612-ee1e156f6184"
    }
  }, {
    "fullUrl": "https://madie.cms.gov/Encounter/21be1748-f911-4f4a-8763-1ea241868e45",
    "resource": {
      "resourceType": "Encounter",
      "id": "21be1748-f911-4f4a-8763-1ea241868e45",
      "meta": {
        "profile": [ "http://hl7.org/fhir/us/qicore/StructureDefinition/qicore-encounter" ]
      },
      "status": "finished",
      "class": {
        "system": "http://terminology.hl7.org/CodeSystem/v3-ActCode",
        "code": "IMP",
        "display": "inpatient encounter"
      },
      "type": [ {
        "coding": [ {
          "system": "http://snomed.info/sct",
          "code": "183452005"
        } ]
      } ],
      "subject": {
        "reference": "Patient/d70dcaf9-4e69-4395-9612-ee1e156f6184"
      },
      "period": {
        "start": "2026-03-22T08:00:00.000+00:00",
        "end": "2026-03-26T08:15:00.000+00:00"
      },
      "length": {
        "value": 4.0,
        "unit": "days"
      },
      "location": [ {
        "location": {
          "reference": "Location/52cfdf0d-25ac-45c0-839a-17098a12082b"
        },
        "period": {
          "start": "2026-03-22T08:15:00.000+00:00",
          "end": "2026-03-24T08:00:00.000+00:00"
        }
      } ]
    },
    "request": {
      "method": "PUT",
      "url": "Encounter/21be1748-f911-4f4a-8763-1ea241868e45"
    }
  }, {
    "fullUrl": "https://madie.cms.gov/Encounter/273eb287-c741-469e-af79-28d42ce8fb4c",
    "resource": {
      "resourceType": "Encounter",
      "id": "273eb287-c741-469e-af79-28d42ce8fb4c",
      "meta": {
        "profile": [ "http://hl7.org/fhir/us/qicore/StructureDefinition/qicore-encounter" ]
      },
      "status": "finished",
      "class": {
        "system": "http://terminology.hl7.org/CodeSystem/v3-ActCode",
        "code": "EMER",
        "display": "emergency"
      },
      "type": [ {
        "coding": [ {
          "system": "http://snomed.info/sct",
          "code": "4525004"
        } ]
      } ],
      "subject": {
        "reference": "Patient/d70dcaf9-4e69-4395-9612-ee1e156f6184"
      },
      "period": {
        "start": "2026-12-06T02:00:00.000+00:00",
        "end": "2026-12-06T08:15:00.000+00:00"
      },
      "length": {
        "value": 0.0,
        "unit": "days"
      }
    },
    "request": {
      "method": "PUT",
      "url": "Encounter/273eb287-c741-469e-af79-28d42ce8fb4c"
    }
  }, {
    "fullUrl": "https://madie.cms.gov/Encounter/cbce1119-6f95-40ec-805b-43e399eae463",
    "resource": {
      "resourceType": "Encounter",
      "id": "cbce1119-6f95-40ec-805b-43e399eae463",
      "meta": {
        "profile": [ "http://hl7.org/fhir/us/qicore/StructureDefinition/qicore-encounter" ]
      },
      "status": "finished",
      "class": {
        "system": "http://terminology.hl7.org/CodeSystem/v3-ActCode",
        "code": "IMP",
        "display": "inpatient encounter"
      },
      "type": [ {
        "coding": [ {
          "system": "http://snomed.info/sct",
          "code": "8715000"
        } ]
      } ],
      "subject": {
        "reference": "Patient/d70dcaf9-4e69-4395-9612-ee1e156f6184"
      },
      "period": {
        "start": "2026-12-06T08:45:00.000+00:00",
        "end": "2026-12-30T08:15:00.000+00:00"
      },
      "length": {
        "value": 24.0,
        "unit": "days"
      },
      "location": [ {
        "location": {
          "reference": "Location/f8d0f2bf-595d-4581-9ac9-1435bf8cd647"
        },
        "period": {
          "start": "2026-12-06T09:00:00.000+00:00",
          "end": "2026-12-12T08:15:00.000+00:00"
        }
      } ]
    },
    "request": {
      "method": "PUT",
      "url": "Encounter/cbce1119-6f95-40ec-805b-43e399eae463"
    }
  }, {
    "fullUrl": "https://madie.cms.gov/Coverage/70ea96b3-2c08-4d84-914d-cdee54c1481a",
    "resource": {
      "resourceType": "Coverage",
      "id": "70ea96b3-2c08-4d84-914d-cdee54c1481a",
      "status": "active",
      "beneficiary": {
        "reference": "Patient/d70dcaf9-4e69-4395-9612-ee1e156f6184"
      },
      "period": {
        "start": "1975-03-03T08:00:00.000+00:00"
      },
      "payor": [ {
        "reference": "Organization/541ddf74-58fc-456f-b901-30231cdda769"
      } ]
    },
    "request": {
      "method": "PUT",
      "url": "Coverage/70ea96b3-2c08-4d84-914d-cdee54c1481a"
    }
  }, {
    "fullUrl": "https://madie.cms.gov/MedicationAdministration/b70ae485-b27c-4d47-913b-f38c45d333d2",
    "resource": {
      "resourceType": "MedicationAdministration",
      "id": "b70ae485-b27c-4d47-913b-f38c45d333d2",
      "meta": {
        "profile": [ "http://hl7.org/fhir/us/qicore/StructureDefinition/qicore-medicationadministration" ]
      },
      "status": "completed",
      "medicationCodeableConcept": {
        "coding": [ {
          "system": "http://www.nlm.nih.gov/research/umls/rxnorm",
          "code": "308351"
        } ]
      },
      "subject": {
        "reference": "Patient/d70dcaf9-4e69-4395-9612-ee1e156f6184"
      },
      "effectivePeriod": {
        "start": "2026-12-07T06:30:00.000+00:00"
      }
    },
    "request": {
      "method": "PUT",
      "url": "MedicationAdministration/b70ae485-b27c-4d47-913b-f38c45d333d2"
    }
  }, {
    "fullUrl": "https://madie.cms.gov/Location/52cfdf0d-25ac-45c0-839a-17098a12082b",
    "resource": {
      "resourceType": "Location",
      "id": "52cfdf0d-25ac-45c0-839a-17098a12082b",
      "meta": {
        "profile": [ "http://hl7.org/fhir/us/qicore/StructureDefinition/qicore-location" ]
      },
      "identifier": [ {
        "use": "usual",
        "system": "http://exampleoflocation.com",
        "value": "B1-S.F2"
      } ],
      "name": "Medical Surgical East, first floor",
      "type": [ {
        "coding": [ {
          "system": "https://www.cdc.gov/nhsn/cdaportal/terminology/codesystem/hsloc.html",
          "code": "1025-6",
          "display": "Trauma Critical Care",
          "userSelected": true
        } ]
      } ]
    },
    "request": {
      "method": "PUT",
      "url": "Location/52cfdf0d-25ac-45c0-839a-17098a12082b"
    }
  }, {
    "fullUrl": "https://madie.cms.gov/Location/f8d0f2bf-595d-4581-9ac9-1435bf8cd647",
    "resource": {
      "resourceType": "Location",
      "id": "f8d0f2bf-595d-4581-9ac9-1435bf8cd647",
      "meta": {
        "profile": [ "http://hl7.org/fhir/us/qicore/StructureDefinition/qicore-location" ]
      },
      "identifier": [ {
        "use": "usual",
        "system": "http://exampleoflocation.com",
        "value": "B1-S.F2"
      } ],
      "name": "Medical Surgical East, first floor",
      "type": [ {
        "coding": [ {
          "system": "https://www.cdc.gov/nhsn/cdaportal/terminology/codesystem/hsloc.html",
          "code": "1025-6",
          "display": "Trauma Critical Care",
          "userSelected": true
        } ]
      } ]
    },
    "request": {
      "method": "PUT",
      "url": "Location/f8d0f2bf-595d-4581-9ac9-1435bf8cd647"
    }
  }, {
    "fullUrl": "https://madie.cms.gov/Procedure/dd5edfc5-f03b-4ae2-bc70-01311b424c58",
    "resource": {
      "resourceType": "Procedure",
      "id": "dd5edfc5-f03b-4ae2-bc70-01311b424c58",
      "meta": {
        "profile": [ "http://hl7.org/fhir/us/qicore/StructureDefinition/qicore-procedure" ]
      },
      "extension": [ {
        "url": "http://hl7.org/fhir/us/qicore/StructureDefinition/qicore-recorded",
        "valueDateTime": "2026-03-26T13:35:00.000+00:00"
      } ],
      "status": "completed",
      "code": {
        "coding": [ {
          "system": "http://snomed.info/sct",
          "code": "443448006",
          "display": "Application of intermittent pneumatic compression device (procedure)"
        } ]
      },
      "subject": {
        "reference": "Patient/d70dcaf9-4e69-4395-9612-ee1e156f6184"
      },
      "performedPeriod": {
        "start": "2026-03-22T08:10:00.000+00:00",
        "end": "2026-03-22T08:15:00.000+00:00"
      }
    },
    "request": {
      "method": "PUT",
      "url": "Procedure/dd5edfc5-f03b-4ae2-bc70-01311b424c58"
    }
  }, {
    "fullUrl": "https://madie.cms.gov/Organization/541ddf74-58fc-456f-b901-30231cdda769",
    "resource": {
      "resourceType": "Organization",
      "id": "541ddf74-58fc-456f-b901-30231cdda769",
      "meta": {
        "profile": [ "http://hl7.org/fhir/us/qicore/StructureDefinition/qicore-organization" ]
      },
      "identifier": [ {
        "use": "temp",
        "system": "urn:oid:2.16.840.1.113883.4.4",
        "value": "21-3259825"
      } ],
      "active": true,
      "type": [ {
        "coding": [ {
          "system": "http://terminology.hl7.org/CodeSystem/organization-type",
          "code": "pay",
          "display": "Payer"
        } ]
      } ],
      "name": "Blue Cross Blue Shield of Texas",
      "telecom": [ {
        "system": "phone",
        "value": "(+1) 972-766-6900"
      } ],
      "address": [ {
        "use": "billing",
        "type": "postal",
        "line": [ "P.O. Box 660044" ],
        "city": "Dallas",
        "state": "TX",
        "postalCode": "75266-0044",
        "country": "USA"
      } ]
    },
    "request": {
      "method": "PUT",
      "url": "Organization/541ddf74-58fc-456f-b901-30231cdda769"
    }
  }, {
    "fullUrl": "https://madie.cms.gov/Practitioner/344787ca-1f48-4c8c-8309-b9786e497cf5",
    "resource": {
      "resourceType": "Practitioner",
      "id": "344787ca-1f48-4c8c-8309-b9786e497cf5",
      "identifier": [ {
        "system": "http://hl7.org/fhir/sid/us-npi",
        "value": "123456"
      } ],
      "name": [ {
        "family": "Evil",
        "prefix": [ "Dr" ]
      } ]
    },
    "request": {
      "method": "PUT",
      "url": "Practitioner/344787ca-1f48-4c8c-8309-b9786e497cf5"
    }
  }, {
    "fullUrl": "https://madie.cms.gov/MeasureReport/6c160ef5-0684-4905-b1d7-bfc2026832bc",
    "resource": {
      "resourceType": "MeasureReport",
      "id": "6c160ef5-0684-4905-b1d7-bfc2026832bc",
      "meta": {
        "profile": [ "http://hl7.org/fhir/us/cqfmeasures/StructureDefinition/test-case-cqfm" ]
      },
      "contained": [ {
        "resourceType": "Parameters",
        "id": "4544b5a3-8621-4011-8e67-8b7c69006edf-parameters",
        "parameter": [ {
          "name": "subject",
          "valueString": "d70dcaf9-4e69-4395-9612-ee1e156f6184"
        } ]
      } ],
      "extension": [ {
        "url": "http://hl7.org/fhir/StructureDefinition/cqf-inputParameters",
        "valueReference": {
          "reference": "#4544b5a3-8621-4011-8e67-8b7c69006edf-parameters"
        }
      }, {
        "url": "http://hl7.org/fhir/us/cqfmeasures/StructureDefinition/cqfm-testCaseDescription",
        "valueMarkdown": " Patient has 2 encounters, both pass Numerator due to Device applied and medication administered.\n"
      } ],
      "modifierExtension": [ {
        "url": "http://hl7.org/fhir/us/cqfmeasures/StructureDefinition/cqfm-isTestCase",
        "valueBoolean": true
      } ],
      "status": "complete",
      "type": "individual",
      "measure": "https://madie.cms.gov/Measure/CMS190FHIRVTEProphylaxisICU",
      "period": {
        "start": "2026-01-01",
        "end": "2026-12-31"
      },
      "group": [ {
        "id": "Group_1",
        "population": [ {
          "id": "InitialPopulation_1",
          "code": {
            "coding": [ {
              "system": "http://terminology.hl7.org/CodeSystem/measure-population",
              "code": "initial-population",
              "display": "Initial Population"
            } ]
          },
          "count": 2
        }, {
          "id": "Denominator_1",
          "code": {
            "coding": [ {
              "system": "http://terminology.hl7.org/CodeSystem/measure-population",
              "code": "denominator",
              "display": "Denominator"
            } ]
          },
          "count": 2
        }, {
          "id": "DenominatorExclusion_1",
          "code": {
            "coding": [ {
              "system": "http://terminology.hl7.org/CodeSystem/measure-population",
              "code": "denominator-exclusion",
              "display": "Denominator Exclusion"
            } ]
          },
          "count": 0
        }, {
          "id": "Numerator_1",
          "code": {
            "coding": [ {
              "system": "http://terminology.hl7.org/CodeSystem/measure-population",
              "code": "numerator",
              "display": "Numerator"
            } ]
          },
          "count": 2
        }, {
          "id": "DenominatorException_1",
          "code": {
            "coding": [ {
              "system": "http://terminology.hl7.org/CodeSystem/measure-population",
              "code": "denominator-exception",
              "display": "Denominator Exception"
            } ]
          },
          "count": 0
        } ],
        "measureScore": {
          "value": 0.0
        }
      } ],
      "evaluatedResource": [ {
        "reference": "Patient/d70dcaf9-4e69-4395-9612-ee1e156f6184"
      }, {
        "reference": "Encounter/21be1748-f911-4f4a-8763-1ea241868e45"
      }, {
        "reference": "Encounter/273eb287-c741-469e-af79-28d42ce8fb4c"
      }, {
        "reference": "Encounter/cbce1119-6f95-40ec-805b-43e399eae463"
      }, {
        "reference": "Coverage/70ea96b3-2c08-4d84-914d-cdee54c1481a"
      }, {
        "reference": "MedicationAdministration/b70ae485-b27c-4d47-913b-f38c45d333d2"
      }, {
        "reference": "Location/52cfdf0d-25ac-45c0-839a-17098a12082b"
      }, {
        "reference": "Location/f8d0f2bf-595d-4581-9ac9-1435bf8cd647"
      }, {
        "reference": "Procedure/dd5edfc5-f03b-4ae2-bc70-01311b424c58"
      }, {
        "reference": "Organization/541ddf74-58fc-456f-b901-30231cdda769"
      }, {
        "reference": "Practitioner/344787ca-1f48-4c8c-8309-b9786e497cf5"
      } ]
    },
    "request": {
      "method": "PUT",
      "url": "MeasureReport/6c160ef5-0684-4905-b1d7-bfc2026832bc"
    }
  } ]
}