{
  "resourceType": "Bundle",
  "id": "612e6b2e02c62a011f2ecc92",
  "type": "transaction",
  "entry": [ {
    "fullUrl": "https://madie.cms.gov/Patient/282ae3a0-a4fd-4fed-8ce9-bff3840c7ca9",
    "resource": {
      "resourceType": "Patient",
      "id": "282ae3a0-a4fd-4fed-8ce9-bff3840c7ca9",
      "meta": {
        "profile": [ "http://hl7.org/fhir/us/qicore/StructureDefinition/qicore-patient" ]
      },
      "text": {
        "status": "generated",
        "div": "<div xmlns=\"http://www.w3.org/1999/xhtml\"><div class=\"hapiHeaderText\">PtRefMOLMWHDayAfterICU<b>NUMERPASS </b></div><table class=\"hapiPropertyTable\"><tbody><tr><td>Identifier</td><td>bec2580a47ed4bf7691b191e0654b2de</td></tr><tr><td>Date of birth</td><td><span>02 January 1974</span></td></tr></tbody></table></div>"
      },
      "extension": [ {
        "url": "http://hl7.org/fhir/us/core/StructureDefinition/us-core-race",
        "extension": [ {
          "url": "ombCategory",
          "valueCoding": {
            "system": "urn:oid:2.16.840.1.113883.6.238",
            "code": "1002-5",
            "display": "American Indian or Alaska Native",
            "userSelected": true
          }
        }, {
          "url": "text",
          "valueString": "American Indian or Alaska Native"
        } ]
      }, {
        "url": "http://hl7.org/fhir/us/core/StructureDefinition/us-core-ethnicity",
        "extension": [ {
          "url": "ombCategory",
          "valueCoding": {
            "system": "urn:oid:2.16.840.1.113883.6.238",
            "code": "2135-2",
            "display": "Hispanic or Latino",
            "userSelected": true
          }
        }, {
          "url": "text",
          "valueString": "Hispanic or Latino"
        } ]
      } ],
      "identifier": [ {
        "type": {
          "coding": [ {
            "system": "http://terminology.hl7.org/CodeSystem/v2-0203",
            "code": "MR"
          } ]
        },
        "system": "https://bonnie-fhir.healthit.gov/",
        "value": "612e6b2e02c62a011f2ecc92"
      } ],
      "active": true,
      "name": [ {
        "use": "usual",
        "family": "NUMERPass",
        "given": [ "PtRefMOInjXaTaskReject" ]
      } ],
      "gender": "male",
      "birthDate": "1975-01-02"
    },
    "request": {
      "method": "PUT",
      "url": "Patient/282ae3a0-a4fd-4fed-8ce9-bff3840c7ca9"
    }
  }, {
    "fullUrl": "https://madie.cms.gov/Encounter/575941af-1d41-45af-8767-57ffc31470b9",
    "resource": {
      "resourceType": "Encounter",
      "id": "575941af-1d41-45af-8767-57ffc31470b9",
      "meta": {
        "profile": [ "http://hl7.org/fhir/us/qicore/StructureDefinition/qicore-encounter" ]
      },
      "status": "finished",
      "class": {
        "system": "http://terminology.hl7.org/CodeSystem/v3-ActCode",
        "code": "IMP",
        "display": "inpatient encounter"
      },
      "type": [ {
        "coding": [ {
          "system": "http://snomed.info/sct",
          "code": "8715000"
        } ]
      } ],
      "subject": {
        "reference": "Patient/282ae3a0-a4fd-4fed-8ce9-bff3840c7ca9"
      },
      "period": {
        "start": "2026-11-01T08:00:00.000+00:00",
        "end": "2026-11-26T08:15:00.000+00:00"
      },
      "length": {
        "value": 25,
        "unit": "days"
      },
      "location": [ {
        "location": {
          "reference": "Location/ad1d3d4e-ed04-4a67-81df-3c4ad243d1be"
        },
        "period": {
          "start": "2026-11-04T09:00:00.000+00:00",
          "end": "2026-11-06T08:15:00.000+00:00"
        }
      } ]
    },
    "request": {
      "method": "PUT",
      "url": "Encounter/575941af-1d41-45af-8767-57ffc31470b9"
    }
  }, {
    "fullUrl": "https://madie.cms.gov/Coverage/e576a955-3609-480a-be00-0190eca46728",
    "resource": {
      "resourceType": "Coverage",
      "id": "e576a955-3609-480a-be00-0190eca46728",
      "status": "active",
      "beneficiary": {
        "reference": "Patient/282ae3a0-a4fd-4fed-8ce9-bff3840c7ca9"
      },
      "period": {
        "start": "1975-01-02T08:00:00.000+00:00"
      },
      "payor": [ {
        "reference": "Organization/22002cbd-0689-4ffc-8273-011075018b04"
      } ]
    },
    "request": {
      "method": "PUT",
      "url": "Coverage/e576a955-3609-480a-be00-0190eca46728"
    }
  }, {
    "fullUrl": "https://madie.cms.gov/MedicationRequest/9b5c77d2-ba3b-49a2-a6c2-7060b3221c1a",
    "resource": {
      "resourceType": "MedicationRequest",
      "id": "9b5c77d2-ba3b-49a2-a6c2-7060b3221c1a",
      "meta": {
        "profile": [ "http://hl7.org/fhir/us/qicore/StructureDefinition/qicore-medicationrequest" ]
      },
      "status": "active",
      "intent": "order",
      "category": [ {
        "coding": [ {
          "system": "http://terminology.hl7.org/CodeSystem/medicationrequest-category",
          "code": "inpatient"
        } ]
      } ],
      "doNotPerform": false,
      "medicationCodeableConcept": {
        "coding": [ {
          "system": "http://www.nlm.nih.gov/research/umls/rxnorm",
          "code": "855338"
        } ]
      },
      "subject": {
        "reference": "Patient/282ae3a0-a4fd-4fed-8ce9-bff3840c7ca9"
      },
      "authoredOn": "2026-11-01T08:00:00.000+00:00",
      "requester": {
        "reference": "Practitioner/123456"
      },
      "dosageInstruction": [ {
        "timing": {
          "repeat": {
            "boundsPeriod": {
              "start": "2026-11-03T09:00:00.000+00:00"
            }
          }
        }
      } ]
    },
    "request": {
      "method": "PUT",
      "url": "MedicationRequest/9b5c77d2-ba3b-49a2-a6c2-7060b3221c1a"
    }
  }, {
    "fullUrl": "https://madie.cms.gov/Task/7098895e-d49a-4ab5-8519-03c230b59976",
    "resource": {
      "resourceType": "Task",
      "id": "7098895e-d49a-4ab5-8519-03c230b59976",
      "meta": {
        "profile": [ "http://hl7.org/fhir/us/qicore/StructureDefinition/qicore-taskrejected" ]
      },
      "status": "rejected",
      "statusReason": {
        "coding": [ {
          "system": "http://snomed.info/sct",
          "code": "443390004",
          "display": "Refusal of treatment by patient (situation)",
          "userSelected": true
        } ]
      },
      "code": {
        "coding": [ {
          "system": "http://hl7.org/fhir/CodeSystem/task-code",
          "code": "fulfill"
        } ]
      },
      "focus": {
        "reference": "MedicationRequest/9b5c77d2-ba3b-49a2-a6c2-7060b3221c1a"
      },
      "executionPeriod": {
        "start": "2026-11-01T09:00:00.000+00:00",
        "end": "2026-11-03T09:00:00.000+00:00"
      }
    },
    "request": {
      "method": "PUT",
      "url": "Task/7098895e-d49a-4ab5-8519-03c230b59976"
    }
  }, {
    "fullUrl": "https://madie.cms.gov/Location/ad1d3d4e-ed04-4a67-81df-3c4ad243d1be",
    "resource": {
      "resourceType": "Location",
      "id": "ad1d3d4e-ed04-4a67-81df-3c4ad243d1be",
      "meta": {
        "profile": [ "http://hl7.org/fhir/us/qicore/StructureDefinition/qicore-location" ]
      },
      "identifier": [ {
        "use": "usual",
        "system": "http://exampleoflocation.com",
        "value": "B1-S.F2"
      } ],
      "name": "Medical Surgical East, first floor",
      "type": [ {
        "coding": [ {
          "system": "https://www.cdc.gov/nhsn/cdaportal/terminology/codesystem/hsloc.html",
          "code": "1025-6",
          "display": "Trauma Critical Care",
          "userSelected": true
        } ]
      } ]
    },
    "request": {
      "method": "PUT",
      "url": "Location/ad1d3d4e-ed04-4a67-81df-3c4ad243d1be"
    }
  }, {
    "fullUrl": "https://madie.cms.gov/Organization/22002cbd-0689-4ffc-8273-011075018b04",
    "resource": {
      "resourceType": "Organization",
      "id": "22002cbd-0689-4ffc-8273-011075018b04",
      "meta": {
        "profile": [ "http://hl7.org/fhir/us/qicore/StructureDefinition/qicore-organization" ]
      },
      "identifier": [ {
        "use": "temp",
        "system": "urn:oid:2.16.840.1.113883.4.4",
        "value": "21-3259825"
      } ],
      "active": true,
      "type": [ {
        "coding": [ {
          "system": "http://terminology.hl7.org/CodeSystem/organization-type",
          "code": "pay",
          "display": "Payer"
        } ]
      } ],
      "name": "Blue Cross Blue Shield of Texas",
      "telecom": [ {
        "system": "phone",
        "value": "(+1) 972-766-6900"
      } ],
      "address": [ {
        "use": "billing",
        "type": "postal",
        "line": [ "P.O. Box 660044" ],
        "city": "Dallas",
        "state": "TX",
        "postalCode": "75266-0044",
        "country": "USA"
      } ]
    },
    "request": {
      "method": "PUT",
      "url": "Organization/22002cbd-0689-4ffc-8273-011075018b04"
    }
  }, {
    "fullUrl": "https://madie.cms.gov/Practitioner/9de3a453-5686-4f91-b127-f9cd0556233f",
    "resource": {
      "resourceType": "Practitioner",
      "id": "9de3a453-5686-4f91-b127-f9cd0556233f",
      "identifier": [ {
        "system": "http://hl7.org/fhir/sid/us-npi",
        "value": "123456"
      } ],
      "name": [ {
        "family": "Evil",
        "prefix": [ "Dr" ]
      } ]
    },
    "request": {
      "method": "PUT",
      "url": "Practitioner/9de3a453-5686-4f91-b127-f9cd0556233f"
    }
  }, {
    "fullUrl": "https://madie.cms.gov/MeasureReport/bb0ca899-9892-4d53-a171-fa41dc45d404",
    "resource": {
      "resourceType": "MeasureReport",
      "id": "bb0ca899-9892-4d53-a171-fa41dc45d404",
      "meta": {
        "profile": [ "http://hl7.org/fhir/us/cqfmeasures/StructureDefinition/test-case-cqfm" ]
      },
      "contained": [ {
        "resourceType": "Parameters",
        "id": "7db4ad6d-f3a6-4ef0-adb2-218d796814b8-parameters",
        "parameter": [ {
          "name": "subject",
          "valueString": "282ae3a0-a4fd-4fed-8ce9-bff3840c7ca9"
        } ]
      } ],
      "extension": [ {
        "url": "http://hl7.org/fhir/StructureDefinition/cqf-inputParameters",
        "valueReference": {
          "reference": "#7db4ad6d-f3a6-4ef0-adb2-218d796814b8-parameters"
        }
      }, {
        "url": "http://hl7.org/fhir/us/cqfmeasures/StructureDefinition/cqfm-testCaseDescription",
        "valueMarkdown": "Patient refusal for warfarin with Task Rejected"
      } ],
      "modifierExtension": [ {
        "url": "http://hl7.org/fhir/us/cqfmeasures/StructureDefinition/cqfm-isTestCase",
        "valueBoolean": true
      } ],
      "status": "complete",
      "type": "individual",
      "measure": "https://madie.cms.gov/Measure/CMS190FHIRVTEProphylaxisICU",
      "period": {
        "start": "2026-01-01",
        "end": "2026-12-31"
      },
      "group": [ {
        "id": "Group_1",
        "population": [ {
          "id": "InitialPopulation_1",
          "code": {
            "coding": [ {
              "system": "http://terminology.hl7.org/CodeSystem/measure-population",
              "code": "initial-population",
              "display": "Initial Population"
            } ]
          },
          "count": 1
        }, {
          "id": "Denominator_1",
          "code": {
            "coding": [ {
              "system": "http://terminology.hl7.org/CodeSystem/measure-population",
              "code": "denominator",
              "display": "Denominator"
            } ]
          },
          "count": 1
        }, {
          "id": "DenominatorExclusion_1",
          "code": {
            "coding": [ {
              "system": "http://terminology.hl7.org/CodeSystem/measure-population",
              "code": "denominator-exclusion",
              "display": "Denominator Exclusion"
            } ]
          },
          "count": 0
        }, {
          "id": "Numerator_1",
          "code": {
            "coding": [ {
              "system": "http://terminology.hl7.org/CodeSystem/measure-population",
              "code": "numerator",
              "display": "Numerator"
            } ]
          },
          "count": 1
        }, {
          "id": "DenominatorException_1",
          "code": {
            "coding": [ {
              "system": "http://terminology.hl7.org/CodeSystem/measure-population",
              "code": "denominator-exception",
              "display": "Denominator Exception"
            } ]
          },
          "count": 0
        } ],
        "measureScore": {
          "value": 0.0
        }
      } ],
      "evaluatedResource": [ {
        "reference": "Patient/282ae3a0-a4fd-4fed-8ce9-bff3840c7ca9"
      }, {
        "reference": "Encounter/575941af-1d41-45af-8767-57ffc31470b9"
      }, {
        "reference": "Coverage/e576a955-3609-480a-be00-0190eca46728"
      }, {
        "reference": "MedicationRequest/9b5c77d2-ba3b-49a2-a6c2-7060b3221c1a"
      }, {
        "reference": "Task/7098895e-d49a-4ab5-8519-03c230b59976"
      }, {
        "reference": "Location/ad1d3d4e-ed04-4a67-81df-3c4ad243d1be"
      }, {
        "reference": "Organization/22002cbd-0689-4ffc-8273-011075018b04"
      }, {
        "reference": "Practitioner/9de3a453-5686-4f91-b127-f9cd0556233f"
      } ]
    },
    "request": {
      "method": "PUT",
      "url": "MeasureReport/bb0ca899-9892-4d53-a171-fa41dc45d404"
    }
  } ]
}