{
  "resourceType": "Bundle",
  "id": "612e6b9302c62a011f2ee63c",
  "type": "transaction",
  "entry": [ {
    "fullUrl": "https://madie.cms.gov/Patient/4724cb2f-b5bd-4c50-85cc-4a5ba25f04ca",
    "resource": {
      "resourceType": "Patient",
      "id": "4724cb2f-b5bd-4c50-85cc-4a5ba25f04ca",
      "meta": {
        "profile": [ "http://hl7.org/fhir/us/qicore/StructureDefinition/qicore-patient" ]
      },
      "text": {
        "status": "generated",
        "div": "<div xmlns=\"http://www.w3.org/1999/xhtml\"><div class=\"hapiHeaderText\">PtRefDOIPC2DayAFEncBFICU <b>NUMERPASS </b></div><table class=\"hapiPropertyTable\"><tbody><tr><td>Identifier</td><td>24fc1ce85ce14557dd4d9eba17df9f17</td></tr><tr><td>Date of birth</td><td><span>02 January 1974</span></td></tr></tbody></table></div>"
      },
      "extension": [ {
        "url": "http://hl7.org/fhir/us/core/StructureDefinition/us-core-race",
        "extension": [ {
          "url": "ombCategory",
          "valueCoding": {
            "system": "urn:oid:2.16.840.1.113883.6.238",
            "code": "1002-5",
            "display": "American Indian or Alaska Native",
            "userSelected": true
          }
        }, {
          "url": "text",
          "valueString": "American Indian or Alaska Native"
        } ]
      }, {
        "url": "http://hl7.org/fhir/us/core/StructureDefinition/us-core-ethnicity",
        "extension": [ {
          "url": "ombCategory",
          "valueCoding": {
            "system": "urn:oid:2.16.840.1.113883.6.238",
            "code": "2135-2",
            "display": "Hispanic or Latino",
            "userSelected": true
          }
        }, {
          "url": "text",
          "valueString": "Hispanic or Latino"
        } ]
      } ],
      "identifier": [ {
        "type": {
          "coding": [ {
            "system": "http://terminology.hl7.org/CodeSystem/v2-0203",
            "code": "MR"
          } ]
        },
        "system": "https://bonnie-fhir.healthit.gov/",
        "value": "612e6b9302c62a011f2ee63c"
      } ],
      "active": true,
      "name": [ {
        "use": "usual",
        "family": "NUMERPass",
        "given": [ "PtRefDOVFPTaskReject" ]
      } ],
      "gender": "male",
      "birthDate": "1975-01-02"
    },
    "request": {
      "method": "PUT",
      "url": "Patient/4724cb2f-b5bd-4c50-85cc-4a5ba25f04ca"
    }
  }, {
    "fullUrl": "https://madie.cms.gov/Encounter/30ce05e8-f326-44e1-bed2-ddc1c42eedb3",
    "resource": {
      "resourceType": "Encounter",
      "id": "30ce05e8-f326-44e1-bed2-ddc1c42eedb3",
      "meta": {
        "profile": [ "http://hl7.org/fhir/us/qicore/StructureDefinition/qicore-encounter" ]
      },
      "status": "finished",
      "class": {
        "system": "http://terminology.hl7.org/CodeSystem/v3-ActCode",
        "code": "IMP",
        "display": "inpatient encounter"
      },
      "type": [ {
        "coding": [ {
          "system": "http://snomed.info/sct",
          "code": "8715000"
        } ]
      } ],
      "subject": {
        "reference": "Patient/4724cb2f-b5bd-4c50-85cc-4a5ba25f04ca"
      },
      "period": {
        "start": "2026-11-01T08:00:00.000+00:00",
        "end": "2026-11-26T08:15:00.000+00:00"
      },
      "length": {
        "value": 25,
        "unit": "days"
      },
      "location": [ {
        "location": {
          "reference": "Location/fc5bc994-aee5-42d4-b47e-84f7847d2c6a"
        },
        "period": {
          "start": "2026-11-04T09:00:00.000+00:00",
          "end": "2026-11-06T08:15:00.000+00:00"
        }
      } ]
    },
    "request": {
      "method": "PUT",
      "url": "Encounter/30ce05e8-f326-44e1-bed2-ddc1c42eedb3"
    }
  }, {
    "fullUrl": "https://madie.cms.gov/Coverage/03efb00a-6cee-4d60-ae07-c81f7e2fe84e",
    "resource": {
      "resourceType": "Coverage",
      "id": "03efb00a-6cee-4d60-ae07-c81f7e2fe84e",
      "status": "active",
      "beneficiary": {
        "reference": "Patient/4724cb2f-b5bd-4c50-85cc-4a5ba25f04ca"
      },
      "period": {
        "start": "1975-01-02T08:00:00.000+00:00"
      },
      "payor": [ {
        "reference": "Organization/6530abaf-d9f7-475a-9068-51ca021bf4c3"
      } ]
    },
    "request": {
      "method": "PUT",
      "url": "Coverage/03efb00a-6cee-4d60-ae07-c81f7e2fe84e"
    }
  }, {
    "fullUrl": "https://madie.cms.gov/ServiceRequest/574c080f-b2c9-443e-b077-77cd27c18f10",
    "resource": {
      "resourceType": "ServiceRequest",
      "id": "574c080f-b2c9-443e-b077-77cd27c18f10",
      "meta": {
        "profile": [ "http://hl7.org/fhir/us/qicore/StructureDefinition/qicore-servicerequest" ]
      },
      "status": "active",
      "intent": "order",
      "code": {
        "coding": [ {
          "system": "http://snomed.info/sct",
          "code": "401640004",
          "display": "Compression hosiery class II thigh length stocking circular knit made to measure (physical object)",
          "userSelected": true
        } ]
      },
      "subject": {
        "reference": "Patient/4724cb2f-b5bd-4c50-85cc-4a5ba25f04ca"
      },
      "authoredOn": "2026-11-03T11:00:00.000+00:00"
    },
    "request": {
      "method": "PUT",
      "url": "ServiceRequest/574c080f-b2c9-443e-b077-77cd27c18f10"
    }
  }, {
    "fullUrl": "https://madie.cms.gov/Task/f2b49c5e-96c3-4001-9042-ae8de2016bea",
    "resource": {
      "resourceType": "Task",
      "id": "f2b49c5e-96c3-4001-9042-ae8de2016bea",
      "meta": {
        "profile": [ "http://hl7.org/fhir/us/qicore/StructureDefinition/qicore-taskrejected" ]
      },
      "status": "rejected",
      "statusReason": {
        "coding": [ {
          "system": "http://snomed.info/sct",
          "code": "443390004",
          "display": "Refusal of treatment by patient (situation)",
          "userSelected": true
        } ]
      },
      "code": {
        "coding": [ {
          "system": "http://hl7.org/fhir/CodeSystem/task-code",
          "code": "fulfill"
        } ]
      },
      "focus": {
        "reference": "ServiceRequest/574c080f-b2c9-443e-b077-77cd27c18f10"
      },
      "executionPeriod": {
        "start": "2026-11-03T19:00:00.000+00:00",
        "end": "2026-11-03T19:00:00.000+00:00"
      }
    },
    "request": {
      "method": "PUT",
      "url": "Task/f2b49c5e-96c3-4001-9042-ae8de2016bea"
    }
  }, {
    "fullUrl": "https://madie.cms.gov/Location/fc5bc994-aee5-42d4-b47e-84f7847d2c6a",
    "resource": {
      "resourceType": "Location",
      "id": "fc5bc994-aee5-42d4-b47e-84f7847d2c6a",
      "meta": {
        "profile": [ "http://hl7.org/fhir/us/qicore/StructureDefinition/qicore-location" ]
      },
      "identifier": [ {
        "use": "usual",
        "system": "http://exampleoflocation.com",
        "value": "B1-S.F2"
      } ],
      "name": "Medical Surgical East, first floor",
      "type": [ {
        "coding": [ {
          "system": "https://www.cdc.gov/nhsn/cdaportal/terminology/codesystem/hsloc.html",
          "code": "1025-6",
          "display": "Trauma Critical Care",
          "userSelected": true
        } ]
      } ]
    },
    "request": {
      "method": "PUT",
      "url": "Location/fc5bc994-aee5-42d4-b47e-84f7847d2c6a"
    }
  }, {
    "fullUrl": "https://madie.cms.gov/Organization/6530abaf-d9f7-475a-9068-51ca021bf4c3",
    "resource": {
      "resourceType": "Organization",
      "id": "6530abaf-d9f7-475a-9068-51ca021bf4c3",
      "meta": {
        "profile": [ "http://hl7.org/fhir/us/qicore/StructureDefinition/qicore-organization" ]
      },
      "identifier": [ {
        "use": "temp",
        "system": "urn:oid:2.16.840.1.113883.4.4",
        "value": "21-3259825"
      } ],
      "active": true,
      "type": [ {
        "coding": [ {
          "system": "http://terminology.hl7.org/CodeSystem/organization-type",
          "code": "pay",
          "display": "Payer"
        } ]
      } ],
      "name": "Blue Cross Blue Shield of Texas",
      "telecom": [ {
        "system": "phone",
        "value": "(+1) 972-766-6900"
      } ],
      "address": [ {
        "use": "billing",
        "type": "postal",
        "line": [ "P.O. Box 660044" ],
        "city": "Dallas",
        "state": "TX",
        "postalCode": "75266-0044",
        "country": "USA"
      } ]
    },
    "request": {
      "method": "PUT",
      "url": "Organization/6530abaf-d9f7-475a-9068-51ca021bf4c3"
    }
  }, {
    "fullUrl": "https://madie.cms.gov/Practitioner/5dc363c0-7c19-4d6f-9a1d-6feea7965165",
    "resource": {
      "resourceType": "Practitioner",
      "id": "5dc363c0-7c19-4d6f-9a1d-6feea7965165",
      "identifier": [ {
        "system": "http://hl7.org/fhir/sid/us-npi",
        "value": "123456"
      } ],
      "name": [ {
        "family": "Evil",
        "prefix": [ "Dr" ]
      } ]
    },
    "request": {
      "method": "PUT",
      "url": "Practitioner/5dc363c0-7c19-4d6f-9a1d-6feea7965165"
    }
  }, {
    "fullUrl": "https://madie.cms.gov/MeasureReport/4ca4bed8-36fa-40a9-a273-ce3f8e9f377e",
    "resource": {
      "resourceType": "MeasureReport",
      "id": "4ca4bed8-36fa-40a9-a273-ce3f8e9f377e",
      "meta": {
        "profile": [ "http://hl7.org/fhir/us/cqfmeasures/StructureDefinition/test-case-cqfm" ]
      },
      "contained": [ {
        "resourceType": "Parameters",
        "id": "8def685a-dcc7-439e-8469-9318a910039f-parameters",
        "parameter": [ {
          "name": "subject",
          "valueString": "4724cb2f-b5bd-4c50-85cc-4a5ba25f04ca"
        } ]
      } ],
      "extension": [ {
        "url": "http://hl7.org/fhir/StructureDefinition/cqf-inputParameters",
        "valueReference": {
          "reference": "#8def685a-dcc7-439e-8469-9318a910039f-parameters"
        }
      }, {
        "url": "http://hl7.org/fhir/us/cqfmeasures/StructureDefinition/cqfm-testCaseDescription",
        "valueMarkdown": "meets IPP, meets Denominator, IPC ordered not done under TaskReject\n"
      } ],
      "modifierExtension": [ {
        "url": "http://hl7.org/fhir/us/cqfmeasures/StructureDefinition/cqfm-isTestCase",
        "valueBoolean": true
      } ],
      "status": "complete",
      "type": "individual",
      "measure": "https://madie.cms.gov/Measure/CMS190FHIRVTEProphylaxisICU",
      "period": {
        "start": "2026-01-01",
        "end": "2026-12-31"
      },
      "group": [ {
        "id": "Group_1",
        "population": [ {
          "id": "InitialPopulation_1",
          "code": {
            "coding": [ {
              "system": "http://terminology.hl7.org/CodeSystem/measure-population",
              "code": "initial-population",
              "display": "Initial Population"
            } ]
          },
          "count": 1
        }, {
          "id": "Denominator_1",
          "code": {
            "coding": [ {
              "system": "http://terminology.hl7.org/CodeSystem/measure-population",
              "code": "denominator",
              "display": "Denominator"
            } ]
          },
          "count": 1
        }, {
          "id": "DenominatorExclusion_1",
          "code": {
            "coding": [ {
              "system": "http://terminology.hl7.org/CodeSystem/measure-population",
              "code": "denominator-exclusion",
              "display": "Denominator Exclusion"
            } ]
          },
          "count": 0
        }, {
          "id": "Numerator_1",
          "code": {
            "coding": [ {
              "system": "http://terminology.hl7.org/CodeSystem/measure-population",
              "code": "numerator",
              "display": "Numerator"
            } ]
          },
          "count": 1
        }, {
          "id": "DenominatorException_1",
          "code": {
            "coding": [ {
              "system": "http://terminology.hl7.org/CodeSystem/measure-population",
              "code": "denominator-exception",
              "display": "Denominator Exception"
            } ]
          },
          "count": 0
        } ],
        "measureScore": {
          "value": 0.0
        }
      } ],
      "evaluatedResource": [ {
        "reference": "Patient/4724cb2f-b5bd-4c50-85cc-4a5ba25f04ca"
      }, {
        "reference": "Encounter/30ce05e8-f326-44e1-bed2-ddc1c42eedb3"
      }, {
        "reference": "Coverage/03efb00a-6cee-4d60-ae07-c81f7e2fe84e"
      }, {
        "reference": "ServiceRequest/574c080f-b2c9-443e-b077-77cd27c18f10"
      }, {
        "reference": "Task/f2b49c5e-96c3-4001-9042-ae8de2016bea"
      }, {
        "reference": "Location/fc5bc994-aee5-42d4-b47e-84f7847d2c6a"
      }, {
        "reference": "Organization/6530abaf-d9f7-475a-9068-51ca021bf4c3"
      }, {
        "reference": "Practitioner/5dc363c0-7c19-4d6f-9a1d-6feea7965165"
      } ]
    },
    "request": {
      "method": "PUT",
      "url": "MeasureReport/4ca4bed8-36fa-40a9-a273-ce3f8e9f377e"
    }
  } ]
}