{
  "resourceType": "Bundle",
  "id": "NUMERPass-MMRConditionEncDiagnoses",
  "type": "transaction",
  "entry": [ {
    "fullUrl": "https://madie.cms.gov/Patient/019295df-da9f-4616-9600-e4a6dfe43d44",
    "resource": {
      "resourceType": "Patient",
      "id": "019295df-da9f-4616-9600-e4a6dfe43d44",
      "meta": {
        "profile": [ "http://hl7.org/fhir/us/qicore/StructureDefinition/qicore-patient" ]
      },
      "extension": [ {
        "url": "http://hl7.org/fhir/us/core/StructureDefinition/us-core-race",
        "extension": [ {
          "url": "ombCategory",
          "valueCoding": {
            "system": "urn:oid:2.16.840.1.113883.6.238",
            "code": "2028-9",
            "display": "Asian"
          }
        }, {
          "url": "text",
          "valueString": "Asian"
        } ]
      }, {
        "url": "http://hl7.org/fhir/us/core/StructureDefinition/us-core-ethnicity",
        "extension": [ {
          "url": "ombCategory",
          "valueCoding": {
            "system": "urn:oid:2.16.840.1.113883.6.238",
            "code": "2135-2",
            "display": "Hispanic or Latino"
          }
        }, {
          "url": "text",
          "valueString": "Hispanic or Latino"
        } ]
      } ],
      "identifier": [ {
        "system": "http://hospital.smarthealthit.org",
        "value": "999999995"
      } ],
      "name": [ {
        "family": "Bertha",
        "given": [ "Betty" ]
      } ],
      "gender": "female",
      "birthDate": "2024-01-01"
    },
    "request": {
      "method": "PUT",
      "url": "Patient/019295df-da9f-4616-9600-e4a6dfe43d44"
    }
  }, {
    "fullUrl": "https://madie.cms.gov/Encounter/0368c8b8-a3d3-4209-a272-9dbd6b7395b1",
    "resource": {
      "resourceType": "Encounter",
      "id": "0368c8b8-a3d3-4209-a272-9dbd6b7395b1",
      "meta": {
        "profile": [ "http://hl7.org/fhir/us/qicore/StructureDefinition/qicore-encounter" ]
      },
      "status": "finished",
      "class": {
        "system": "http://terminology.hl7.org/CodeSystem/v3-ActCode",
        "code": "AMB",
        "display": "ambulatory"
      },
      "type": [ {
        "coding": [ {
          "system": "http://snomed.info/sct",
          "code": "185317003",
          "display": "Telephone encounter (procedure)"
        } ]
      } ],
      "subject": {
        "reference": "Patient/019295df-da9f-4616-9600-e4a6dfe43d44"
      },
      "period": {
        "start": "2026-01-01T01:00:00.000+00:00",
        "end": "2026-01-01T01:15:00.000+00:00"
      }
    },
    "request": {
      "method": "PUT",
      "url": "Encounter/0368c8b8-a3d3-4209-a272-9dbd6b7395b1"
    }
  }, {
    "fullUrl": "https://madie.cms.gov/Immunization/f74c660a-dd85-4e4f-9d28-38b291396add",
    "resource": {
      "resourceType": "Immunization",
      "id": "f74c660a-dd85-4e4f-9d28-38b291396add",
      "meta": {
        "profile": [ "http://hl7.org/fhir/us/qicore/StructureDefinition/qicore-immunization" ]
      },
      "status": "completed",
      "vaccineCode": {
        "coding": [ {
          "system": "http://hl7.org/fhir/sid/cvx",
          "code": "146",
          "display": "DTaP,IPV,Hib,HepB"
        } ]
      },
      "patient": {
        "reference": "Patient/019295df-da9f-4616-9600-e4a6dfe43d44"
      },
      "occurrenceDateTime": "2025-01-02T00:00:00.000+00:00",
      "recorded": "2025-01-02T00:00:00.000+00:00",
      "primarySource": true
    },
    "request": {
      "method": "PUT",
      "url": "Immunization/f74c660a-dd85-4e4f-9d28-38b291396add"
    }
  }, {
    "fullUrl": "https://madie.cms.gov/Immunization/e6f905d0-51db-4ad7-af82-ad1b9627add5",
    "resource": {
      "resourceType": "Immunization",
      "id": "e6f905d0-51db-4ad7-af82-ad1b9627add5",
      "meta": {
        "profile": [ "http://hl7.org/fhir/us/qicore/StructureDefinition/qicore-immunization" ]
      },
      "status": "completed",
      "vaccineCode": {
        "coding": [ {
          "system": "http://hl7.org/fhir/sid/cvx",
          "code": "146",
          "display": "DTaP,IPV,Hib,HepB"
        } ]
      },
      "patient": {
        "reference": "Patient/019295df-da9f-4616-9600-e4a6dfe43d44"
      },
      "occurrenceDateTime": "2025-01-05T00:00:00.000+00:00",
      "recorded": "2025-01-02T00:00:00.000+00:00",
      "primarySource": true
    },
    "request": {
      "method": "PUT",
      "url": "Immunization/e6f905d0-51db-4ad7-af82-ad1b9627add5"
    }
  }, {
    "fullUrl": "https://madie.cms.gov/Immunization/b3bbc2a4-6579-41ed-aa4d-1e149f5211b8",
    "resource": {
      "resourceType": "Immunization",
      "id": "b3bbc2a4-6579-41ed-aa4d-1e149f5211b8",
      "meta": {
        "profile": [ "http://hl7.org/fhir/us/qicore/StructureDefinition/qicore-immunization" ]
      },
      "status": "completed",
      "vaccineCode": {
        "coding": [ {
          "system": "http://hl7.org/fhir/sid/cvx",
          "code": "146",
          "display": "DTaP,IPV,Hib,HepB"
        } ]
      },
      "patient": {
        "reference": "Patient/019295df-da9f-4616-9600-e4a6dfe43d44"
      },
      "occurrenceDateTime": "2025-01-07T00:00:00.000+00:00",
      "recorded": "2025-01-02T00:00:00.000+00:00",
      "primarySource": true
    },
    "request": {
      "method": "PUT",
      "url": "Immunization/b3bbc2a4-6579-41ed-aa4d-1e149f5211b8"
    }
  }, {
    "fullUrl": "https://madie.cms.gov/Immunization/dcf5110a-162a-4399-b975-3b976cccec9e",
    "resource": {
      "resourceType": "Immunization",
      "id": "dcf5110a-162a-4399-b975-3b976cccec9e",
      "meta": {
        "profile": [ "http://hl7.org/fhir/us/qicore/StructureDefinition/qicore-immunization" ]
      },
      "status": "completed",
      "vaccineCode": {
        "coding": [ {
          "system": "http://hl7.org/fhir/sid/cvx",
          "code": "146",
          "display": "DTaP,IPV,Hib,HepB"
        } ]
      },
      "patient": {
        "reference": "Patient/019295df-da9f-4616-9600-e4a6dfe43d44"
      },
      "occurrenceDateTime": "2025-01-10T00:00:00.000+00:00",
      "recorded": "2025-01-02T00:00:00.000+00:00",
      "primarySource": true
    },
    "request": {
      "method": "PUT",
      "url": "Immunization/dcf5110a-162a-4399-b975-3b976cccec9e"
    }
  }, {
    "fullUrl": "https://madie.cms.gov/Immunization/038a6a6f-3edf-4560-91d0-9b75c393e728",
    "resource": {
      "resourceType": "Immunization",
      "id": "038a6a6f-3edf-4560-91d0-9b75c393e728",
      "meta": {
        "profile": [ "http://hl7.org/fhir/us/qicore/StructureDefinition/qicore-immunization" ]
      },
      "status": "completed",
      "vaccineCode": {
        "coding": [ {
          "system": "http://hl7.org/fhir/sid/cvx",
          "code": "146",
          "display": "DTaP,IPV,Hib,HepB"
        } ]
      },
      "patient": {
        "reference": "Patient/019295df-da9f-4616-9600-e4a6dfe43d44"
      },
      "occurrenceDateTime": "2025-01-02T00:00:00.000+00:00",
      "recorded": "2025-01-02T00:00:00.000+00:00",
      "primarySource": true
    },
    "request": {
      "method": "PUT",
      "url": "Immunization/038a6a6f-3edf-4560-91d0-9b75c393e728"
    }
  }, {
    "fullUrl": "https://madie.cms.gov/Immunization/8e0d98af-a232-4cd2-b554-71395dc68dcb",
    "resource": {
      "resourceType": "Immunization",
      "id": "8e0d98af-a232-4cd2-b554-71395dc68dcb",
      "meta": {
        "profile": [ "http://hl7.org/fhir/us/qicore/StructureDefinition/qicore-immunization" ]
      },
      "status": "completed",
      "vaccineCode": {
        "coding": [ {
          "system": "http://hl7.org/fhir/sid/cvx",
          "code": "146",
          "display": "DTaP,IPV,Hib,HepB"
        } ]
      },
      "patient": {
        "reference": "Patient/019295df-da9f-4616-9600-e4a6dfe43d44"
      },
      "occurrenceDateTime": "2025-01-06T00:00:00.000+00:00",
      "recorded": "2025-01-02T00:00:00.000+00:00",
      "primarySource": true
    },
    "request": {
      "method": "PUT",
      "url": "Immunization/8e0d98af-a232-4cd2-b554-71395dc68dcb"
    }
  }, {
    "fullUrl": "https://madie.cms.gov/Immunization/64899e3e-c8a2-4fb3-9191-928588638c1e",
    "resource": {
      "resourceType": "Immunization",
      "id": "64899e3e-c8a2-4fb3-9191-928588638c1e",
      "meta": {
        "profile": [ "http://hl7.org/fhir/us/qicore/StructureDefinition/qicore-immunization" ]
      },
      "status": "completed",
      "vaccineCode": {
        "coding": [ {
          "system": "http://hl7.org/fhir/sid/cvx",
          "code": "146",
          "display": "DTaP,IPV,Hib,HepB"
        } ]
      },
      "patient": {
        "reference": "Patient/019295df-da9f-4616-9600-e4a6dfe43d44"
      },
      "occurrenceDateTime": "2025-01-09T00:00:00.000+00:00",
      "recorded": "2025-01-02T00:00:00.000+00:00",
      "primarySource": true
    },
    "request": {
      "method": "PUT",
      "url": "Immunization/64899e3e-c8a2-4fb3-9191-928588638c1e"
    }
  }, {
    "fullUrl": "https://madie.cms.gov/Condition/fa274a1f-7100-432a-82ab-acc6c85fc11b",
    "resource": {
      "resourceType": "Condition",
      "id": "fa274a1f-7100-432a-82ab-acc6c85fc11b",
      "meta": {
        "profile": [ "http://hl7.org/fhir/us/qicore/StructureDefinition/qicore-condition-encounter-diagnosis" ]
      },
      "clinicalStatus": {
        "coding": [ {
          "system": "http://terminology.hl7.org/CodeSystem/condition-clinical",
          "code": "active"
        } ]
      },
      "category": [ {
        "coding": [ {
          "system": "http://terminology.hl7.org/CodeSystem/condition-category",
          "code": "encounter-diagnosis",
          "display": "Encounter Diagnosis"
        } ]
      } ],
      "code": {
        "coding": [ {
          "system": "http://snomed.info/sct",
          "code": "31524007",
          "display": "Mumps polyneuropathy (disorder)"
        } ]
      },
      "subject": {
        "reference": "Patient/019295df-da9f-4616-9600-e4a6dfe43d44"
      },
      "onsetDateTime": "2025-01-02T00:00:00.000+00:00"
    },
    "request": {
      "method": "PUT",
      "url": "Condition/fa274a1f-7100-432a-82ab-acc6c85fc11b"
    }
  }, {
    "fullUrl": "https://madie.cms.gov/Condition/05eb15a0-9463-4749-969a-a784a74995b1",
    "resource": {
      "resourceType": "Condition",
      "id": "05eb15a0-9463-4749-969a-a784a74995b1",
      "meta": {
        "profile": [ "http://hl7.org/fhir/us/qicore/StructureDefinition/qicore-condition-encounter-diagnosis" ]
      },
      "clinicalStatus": {
        "coding": [ {
          "system": "http://terminology.hl7.org/CodeSystem/condition-clinical",
          "code": "active"
        } ]
      },
      "category": [ {
        "coding": [ {
          "system": "http://terminology.hl7.org/CodeSystem/condition-category",
          "code": "encounter-diagnosis",
          "display": "Encounter Diagnosis"
        } ]
      } ],
      "code": {
        "coding": [ {
          "system": "http://snomed.info/sct",
          "code": "60013002",
          "display": "Measles keratoconjunctivitis (disorder)"
        } ]
      },
      "subject": {
        "reference": "Patient/019295df-da9f-4616-9600-e4a6dfe43d44"
      },
      "onsetDateTime": "2025-01-02T00:00:00.000+00:00"
    },
    "request": {
      "method": "PUT",
      "url": "Condition/05eb15a0-9463-4749-969a-a784a74995b1"
    }
  }, {
    "fullUrl": "https://madie.cms.gov/Condition/45a3c3c9-4b42-4fe8-ba5d-a3e89444a2e5",
    "resource": {
      "resourceType": "Condition",
      "id": "45a3c3c9-4b42-4fe8-ba5d-a3e89444a2e5",
      "meta": {
        "profile": [ "http://hl7.org/fhir/us/qicore/StructureDefinition/qicore-condition-encounter-diagnosis" ]
      },
      "clinicalStatus": {
        "coding": [ {
          "system": "http://terminology.hl7.org/CodeSystem/condition-clinical",
          "code": "active"
        } ]
      },
      "category": [ {
        "coding": [ {
          "system": "http://terminology.hl7.org/CodeSystem/condition-category",
          "code": "encounter-diagnosis",
          "display": "Encounter Diagnosis"
        } ]
      } ],
      "code": {
        "coding": [ {
          "system": "http://snomed.info/sct",
          "code": "36653000",
          "display": "Rubella (disorder)"
        } ]
      },
      "subject": {
        "reference": "Patient/019295df-da9f-4616-9600-e4a6dfe43d44"
      },
      "onsetDateTime": "2025-01-02T00:00:00.000+00:00"
    },
    "request": {
      "method": "PUT",
      "url": "Condition/45a3c3c9-4b42-4fe8-ba5d-a3e89444a2e5"
    }
  }, {
    "fullUrl": "https://madie.cms.gov/Immunization/525cedcc-82e4-497e-a997-691e2e359ff7",
    "resource": {
      "resourceType": "Immunization",
      "id": "525cedcc-82e4-497e-a997-691e2e359ff7",
      "meta": {
        "profile": [ "http://hl7.org/fhir/us/qicore/StructureDefinition/qicore-immunization" ]
      },
      "status": "completed",
      "vaccineCode": {
        "coding": [ {
          "system": "http://hl7.org/fhir/sid/cvx",
          "code": "49",
          "display": "Haemophilus influenzae type b vaccine, PRP-OMP conjugate"
        } ]
      },
      "patient": {
        "reference": "Patient/019295df-da9f-4616-9600-e4a6dfe43d44"
      },
      "occurrenceDateTime": "2025-01-02T00:00:00.000+00:00",
      "recorded": "2025-01-02T00:00:00.000+00:00",
      "primarySource": true
    },
    "request": {
      "method": "PUT",
      "url": "Immunization/525cedcc-82e4-497e-a997-691e2e359ff7"
    }
  }, {
    "fullUrl": "https://madie.cms.gov/Immunization/278336ed-b0e3-4ce1-8925-e42e20d9dc69",
    "resource": {
      "resourceType": "Immunization",
      "id": "278336ed-b0e3-4ce1-8925-e42e20d9dc69",
      "meta": {
        "profile": [ "http://hl7.org/fhir/us/qicore/StructureDefinition/qicore-immunization" ]
      },
      "status": "completed",
      "vaccineCode": {
        "coding": [ {
          "system": "http://hl7.org/fhir/sid/cvx",
          "code": "49",
          "display": "Haemophilus influenzae type b vaccine, PRP-OMP conjugate"
        } ]
      },
      "patient": {
        "reference": "Patient/019295df-da9f-4616-9600-e4a6dfe43d44"
      },
      "occurrenceDateTime": "2025-01-02T00:00:00.000+00:00",
      "recorded": "2025-01-02T00:00:00.000+00:00",
      "primarySource": true
    },
    "request": {
      "method": "PUT",
      "url": "Immunization/278336ed-b0e3-4ce1-8925-e42e20d9dc69"
    }
  }, {
    "fullUrl": "https://madie.cms.gov/Immunization/09513189-1db6-4a2b-bfe4-e01474434872",
    "resource": {
      "resourceType": "Immunization",
      "id": "09513189-1db6-4a2b-bfe4-e01474434872",
      "meta": {
        "profile": [ "http://hl7.org/fhir/us/qicore/StructureDefinition/qicore-immunization" ]
      },
      "status": "completed",
      "vaccineCode": {
        "coding": [ {
          "system": "http://hl7.org/fhir/sid/cvx",
          "code": "49",
          "display": "Haemophilus influenzae type b vaccine, PRP-OMP conjugate"
        } ]
      },
      "patient": {
        "reference": "Patient/019295df-da9f-4616-9600-e4a6dfe43d44"
      },
      "occurrenceDateTime": "2025-01-02T00:00:00.000+00:00",
      "recorded": "2025-01-02T00:00:00.000+00:00",
      "primarySource": true
    },
    "request": {
      "method": "PUT",
      "url": "Immunization/09513189-1db6-4a2b-bfe4-e01474434872"
    }
  }, {
    "fullUrl": "https://madie.cms.gov/Immunization/6415938e-9a39-4e85-9748-0fc7864efc1e",
    "resource": {
      "resourceType": "Immunization",
      "id": "6415938e-9a39-4e85-9748-0fc7864efc1e",
      "meta": {
        "profile": [ "http://hl7.org/fhir/us/qicore/StructureDefinition/qicore-immunization" ]
      },
      "status": "completed",
      "vaccineCode": {
        "coding": [ {
          "system": "http://hl7.org/fhir/sid/cvx",
          "code": "51",
          "display": "Haemophilus influenzae type b conjugate and Hepatitis B vaccine"
        } ]
      },
      "patient": {
        "reference": "Patient/019295df-da9f-4616-9600-e4a6dfe43d44"
      },
      "occurrenceDateTime": "2025-01-02T00:00:00.000+00:00",
      "recorded": "2025-01-02T00:00:00.000+00:00",
      "primarySource": true
    },
    "request": {
      "method": "PUT",
      "url": "Immunization/6415938e-9a39-4e85-9748-0fc7864efc1e"
    }
  }, {
    "fullUrl": "https://madie.cms.gov/Immunization/f7a361f6-9f3a-4e66-830b-0c69eb171e89",
    "resource": {
      "resourceType": "Immunization",
      "id": "f7a361f6-9f3a-4e66-830b-0c69eb171e89",
      "meta": {
        "profile": [ "http://hl7.org/fhir/us/qicore/StructureDefinition/qicore-immunization" ]
      },
      "status": "completed",
      "vaccineCode": {
        "coding": [ {
          "system": "http://hl7.org/fhir/sid/cvx",
          "code": "51",
          "display": "Haemophilus influenzae type b conjugate and Hepatitis B vaccine"
        } ]
      },
      "patient": {
        "reference": "Patient/019295df-da9f-4616-9600-e4a6dfe43d44"
      },
      "occurrenceDateTime": "2025-01-10T00:00:00.000+00:00",
      "recorded": "2025-01-02T00:00:00.000+00:00",
      "primarySource": true
    },
    "request": {
      "method": "PUT",
      "url": "Immunization/f7a361f6-9f3a-4e66-830b-0c69eb171e89"
    }
  }, {
    "fullUrl": "https://madie.cms.gov/Immunization/2f0e3c28-228f-4661-bdd4-a7b8e6580b49",
    "resource": {
      "resourceType": "Immunization",
      "id": "2f0e3c28-228f-4661-bdd4-a7b8e6580b49",
      "meta": {
        "profile": [ "http://hl7.org/fhir/us/qicore/StructureDefinition/qicore-immunization" ]
      },
      "status": "completed",
      "vaccineCode": {
        "coding": [ {
          "system": "http://hl7.org/fhir/sid/cvx",
          "code": "51",
          "display": "Haemophilus influenzae type b conjugate and Hepatitis B vaccine"
        } ]
      },
      "patient": {
        "reference": "Patient/019295df-da9f-4616-9600-e4a6dfe43d44"
      },
      "occurrenceDateTime": "2025-01-12T00:00:00.000+00:00",
      "recorded": "2025-01-02T00:00:00.000+00:00",
      "primarySource": true
    },
    "request": {
      "method": "PUT",
      "url": "Immunization/2f0e3c28-228f-4661-bdd4-a7b8e6580b49"
    }
  }, {
    "fullUrl": "https://madie.cms.gov/Immunization/eb5ccb5c-811b-4a15-be1e-9ebb4c39d775",
    "resource": {
      "resourceType": "Immunization",
      "id": "eb5ccb5c-811b-4a15-be1e-9ebb4c39d775",
      "meta": {
        "profile": [ "http://hl7.org/fhir/us/qicore/StructureDefinition/qicore-immunization" ]
      },
      "status": "completed",
      "vaccineCode": {
        "coding": [ {
          "system": "http://hl7.org/fhir/sid/cvx",
          "code": "94",
          "display": "measles, mumps, rubella, and varicella virus vaccine"
        } ]
      },
      "patient": {
        "reference": "Patient/019295df-da9f-4616-9600-e4a6dfe43d44"
      },
      "occurrenceDateTime": "2025-01-02T00:00:00.000+00:00",
      "recorded": "2025-01-02T00:00:00.000+00:00",
      "primarySource": true
    },
    "request": {
      "method": "PUT",
      "url": "Immunization/eb5ccb5c-811b-4a15-be1e-9ebb4c39d775"
    }
  }, {
    "fullUrl": "https://madie.cms.gov/Immunization/900c6029-9606-4c30-8217-81cc38c24e85",
    "resource": {
      "resourceType": "Immunization",
      "id": "900c6029-9606-4c30-8217-81cc38c24e85",
      "meta": {
        "profile": [ "http://hl7.org/fhir/us/qicore/StructureDefinition/qicore-immunization" ]
      },
      "status": "completed",
      "vaccineCode": {
        "coding": [ {
          "system": "http://hl7.org/fhir/sid/cvx",
          "code": "215",
          "display": "Pneumococcal conjugate vaccine 15-valent (PCV15), polysaccharide CRM197 conjugate, adjuvant, preservative free"
        } ]
      },
      "patient": {
        "reference": "Patient/019295df-da9f-4616-9600-e4a6dfe43d44"
      },
      "occurrenceDateTime": "2025-01-12T00:00:00.000+00:00",
      "recorded": "2025-01-02T00:00:00.000+00:00",
      "primarySource": true
    },
    "request": {
      "method": "PUT",
      "url": "Immunization/900c6029-9606-4c30-8217-81cc38c24e85"
    }
  }, {
    "fullUrl": "https://madie.cms.gov/Immunization/2e25cf5f-28d7-45f7-8494-c0da1e2e3d93",
    "resource": {
      "resourceType": "Immunization",
      "id": "2e25cf5f-28d7-45f7-8494-c0da1e2e3d93",
      "meta": {
        "profile": [ "http://hl7.org/fhir/us/qicore/StructureDefinition/qicore-immunization" ]
      },
      "status": "completed",
      "vaccineCode": {
        "coding": [ {
          "system": "http://hl7.org/fhir/sid/cvx",
          "code": "215",
          "display": "Pneumococcal conjugate vaccine 15-valent (PCV15), polysaccharide CRM197 conjugate, adjuvant, preservative free"
        } ]
      },
      "patient": {
        "reference": "Patient/019295df-da9f-4616-9600-e4a6dfe43d44"
      },
      "occurrenceDateTime": "2025-01-14T00:00:00.000+00:00",
      "recorded": "2025-01-02T00:00:00.000+00:00",
      "primarySource": true
    },
    "request": {
      "method": "PUT",
      "url": "Immunization/2e25cf5f-28d7-45f7-8494-c0da1e2e3d93"
    }
  }, {
    "fullUrl": "https://madie.cms.gov/Immunization/b51dd260-1fb8-4071-a97f-8dfff6681953",
    "resource": {
      "resourceType": "Immunization",
      "id": "b51dd260-1fb8-4071-a97f-8dfff6681953",
      "meta": {
        "profile": [ "http://hl7.org/fhir/us/qicore/StructureDefinition/qicore-immunization" ]
      },
      "status": "completed",
      "vaccineCode": {
        "coding": [ {
          "system": "http://hl7.org/fhir/sid/cvx",
          "code": "215",
          "display": "Pneumococcal conjugate vaccine 15-valent (PCV15), polysaccharide CRM197 conjugate, adjuvant, preservative free"
        } ]
      },
      "patient": {
        "reference": "Patient/019295df-da9f-4616-9600-e4a6dfe43d44"
      },
      "occurrenceDateTime": "2025-01-20T00:00:00.000+00:00",
      "recorded": "2025-01-02T00:00:00.000+00:00",
      "primarySource": true
    },
    "request": {
      "method": "PUT",
      "url": "Immunization/b51dd260-1fb8-4071-a97f-8dfff6681953"
    }
  }, {
    "fullUrl": "https://madie.cms.gov/Immunization/09933deb-5941-4c2a-a7c5-4620cab7327e",
    "resource": {
      "resourceType": "Immunization",
      "id": "09933deb-5941-4c2a-a7c5-4620cab7327e",
      "meta": {
        "profile": [ "http://hl7.org/fhir/us/qicore/StructureDefinition/qicore-immunization" ]
      },
      "status": "completed",
      "vaccineCode": {
        "coding": [ {
          "system": "http://hl7.org/fhir/sid/cvx",
          "code": "215",
          "display": "Pneumococcal conjugate vaccine 15-valent (PCV15), polysaccharide CRM197 conjugate, adjuvant, preservative free"
        } ]
      },
      "patient": {
        "reference": "Patient/019295df-da9f-4616-9600-e4a6dfe43d44"
      },
      "occurrenceDateTime": "2025-01-22T00:00:00.000+00:00",
      "recorded": "2025-01-02T00:00:00.000+00:00",
      "primarySource": true
    },
    "request": {
      "method": "PUT",
      "url": "Immunization/09933deb-5941-4c2a-a7c5-4620cab7327e"
    }
  }, {
    "fullUrl": "https://madie.cms.gov/Immunization/0e2352fc-0153-4ced-9aae-3b8eddec63d7",
    "resource": {
      "resourceType": "Immunization",
      "id": "0e2352fc-0153-4ced-9aae-3b8eddec63d7",
      "meta": {
        "profile": [ "http://hl7.org/fhir/us/qicore/StructureDefinition/qicore-immunization" ]
      },
      "status": "completed",
      "vaccineCode": {
        "coding": [ {
          "system": "http://hl7.org/fhir/sid/cvx",
          "code": "85",
          "display": "hepatitis A vaccine, unspecified formulation"
        } ]
      },
      "patient": {
        "reference": "Patient/019295df-da9f-4616-9600-e4a6dfe43d44"
      },
      "occurrenceDateTime": "2025-01-02T00:00:00.000+00:00",
      "recorded": "2025-01-02T00:00:00.000+00:00",
      "primarySource": true
    },
    "request": {
      "method": "PUT",
      "url": "Immunization/0e2352fc-0153-4ced-9aae-3b8eddec63d7"
    }
  }, {
    "fullUrl": "https://madie.cms.gov/Immunization/2013b1d0-ee5b-4f10-b0fd-651520f725d3",
    "resource": {
      "resourceType": "Immunization",
      "id": "2013b1d0-ee5b-4f10-b0fd-651520f725d3",
      "meta": {
        "profile": [ "http://hl7.org/fhir/us/qicore/StructureDefinition/qicore-immunization" ]
      },
      "status": "completed",
      "vaccineCode": {
        "coding": [ {
          "system": "http://hl7.org/fhir/sid/cvx",
          "code": "119",
          "display": "rotavirus, live, monovalent vaccine"
        } ]
      },
      "patient": {
        "reference": "Patient/019295df-da9f-4616-9600-e4a6dfe43d44"
      },
      "occurrenceDateTime": "2025-01-02T00:00:00.000+00:00",
      "recorded": "2025-01-02T00:00:00.000+00:00",
      "primarySource": true
    },
    "request": {
      "method": "PUT",
      "url": "Immunization/2013b1d0-ee5b-4f10-b0fd-651520f725d3"
    }
  }, {
    "fullUrl": "https://madie.cms.gov/Immunization/31c21a22-46db-4856-96a7-e8b2a666a0fa",
    "resource": {
      "resourceType": "Immunization",
      "id": "31c21a22-46db-4856-96a7-e8b2a666a0fa",
      "meta": {
        "profile": [ "http://hl7.org/fhir/us/qicore/StructureDefinition/qicore-immunization" ]
      },
      "status": "completed",
      "vaccineCode": {
        "coding": [ {
          "system": "http://hl7.org/fhir/sid/cvx",
          "code": "119",
          "display": "rotavirus, live, monovalent vaccine"
        } ]
      },
      "patient": {
        "reference": "Patient/019295df-da9f-4616-9600-e4a6dfe43d44"
      },
      "occurrenceDateTime": "2025-01-07T00:00:00.000+00:00",
      "recorded": "2025-01-02T00:00:00.000+00:00",
      "primarySource": true
    },
    "request": {
      "method": "PUT",
      "url": "Immunization/31c21a22-46db-4856-96a7-e8b2a666a0fa"
    }
  }, {
    "fullUrl": "https://madie.cms.gov/Immunization/2925a127-f18c-4382-b57d-2110746d1a8d",
    "resource": {
      "resourceType": "Immunization",
      "id": "2925a127-f18c-4382-b57d-2110746d1a8d",
      "meta": {
        "profile": [ "http://hl7.org/fhir/us/qicore/StructureDefinition/qicore-immunization" ]
      },
      "status": "completed",
      "vaccineCode": {
        "coding": [ {
          "system": "http://hl7.org/fhir/sid/cvx",
          "code": "153",
          "display": "Influenza, injectable, MDCK, preservative free"
        } ]
      },
      "patient": {
        "reference": "Patient/019295df-da9f-4616-9600-e4a6dfe43d44"
      },
      "occurrenceDateTime": "2025-01-02T00:00:00.000+00:00",
      "recorded": "2025-01-02T00:00:00.000+00:00",
      "primarySource": true
    },
    "request": {
      "method": "PUT",
      "url": "Immunization/2925a127-f18c-4382-b57d-2110746d1a8d"
    }
  }, {
    "fullUrl": "https://madie.cms.gov/Immunization/033d8c82-7ff2-4460-a4cc-d552918bcea9",
    "resource": {
      "resourceType": "Immunization",
      "id": "033d8c82-7ff2-4460-a4cc-d552918bcea9",
      "meta": {
        "profile": [ "http://hl7.org/fhir/us/qicore/StructureDefinition/qicore-immunization" ]
      },
      "status": "completed",
      "vaccineCode": {
        "coding": [ {
          "system": "http://hl7.org/fhir/sid/cvx",
          "code": "153",
          "display": "Influenza, injectable, MDCK, preservative free"
        } ]
      },
      "patient": {
        "reference": "Patient/019295df-da9f-4616-9600-e4a6dfe43d44"
      },
      "occurrenceDateTime": "2025-01-10T00:00:00.000+00:00",
      "recorded": "2025-01-02T00:00:00.000+00:00",
      "primarySource": true
    },
    "request": {
      "method": "PUT",
      "url": "Immunization/033d8c82-7ff2-4460-a4cc-d552918bcea9"
    }
  }, {
    "fullUrl": "https://madie.cms.gov/MeasureReport/7a0ccc7e-8fa0-45fb-9f70-c2a04b15812a",
    "resource": {
      "resourceType": "MeasureReport",
      "id": "7a0ccc7e-8fa0-45fb-9f70-c2a04b15812a",
      "meta": {
        "profile": [ "http://hl7.org/fhir/us/cqfmeasures/StructureDefinition/test-case-cqfm" ]
      },
      "contained": [ {
        "resourceType": "Parameters",
        "id": "79f87a3a-92a0-4176-841d-6553e3d95836-parameters",
        "parameter": [ {
          "name": "subject",
          "valueString": "019295df-da9f-4616-9600-e4a6dfe43d44"
        } ]
      } ],
      "extension": [ {
        "url": "http://hl7.org/fhir/StructureDefinition/cqf-inputParameters",
        "valueReference": {
          "reference": "#79f87a3a-92a0-4176-841d-6553e3d95836-parameters"
        }
      }, {
        "url": "http://hl7.org/fhir/us/cqfmeasures/StructureDefinition/cqfm-testCaseDescription",
        "valueMarkdown": "Patient has MMR diagnoses. Testing the condition encounter diagnosis profile to meet 100% coverage."
      } ],
      "modifierExtension": [ {
        "url": "http://hl7.org/fhir/us/cqfmeasures/StructureDefinition/cqfm-isTestCase",
        "valueBoolean": true
      } ],
      "status": "complete",
      "type": "individual",
      "measure": "https://madie.cms.gov/Measure/CMS117FHIRChildImmunStatus",
      "period": {
        "start": "2026-01-01",
        "end": "2026-12-31"
      },
      "group": [ {
        "id": "Group_1",
        "population": [ {
          "id": "InitialPopulation_1",
          "code": {
            "coding": [ {
              "system": "http://terminology.hl7.org/CodeSystem/measure-population",
              "code": "initial-population",
              "display": "Initial Population"
            } ]
          },
          "count": 1
        }, {
          "id": "Denominator_1",
          "code": {
            "coding": [ {
              "system": "http://terminology.hl7.org/CodeSystem/measure-population",
              "code": "denominator",
              "display": "Denominator"
            } ]
          },
          "count": 1
        }, {
          "id": "DenominatorExclusion_1",
          "code": {
            "coding": [ {
              "system": "http://terminology.hl7.org/CodeSystem/measure-population",
              "code": "denominator-exclusion",
              "display": "Denominator Exclusion"
            } ]
          },
          "count": 0
        }, {
          "id": "Numerator_1",
          "code": {
            "coding": [ {
              "system": "http://terminology.hl7.org/CodeSystem/measure-population",
              "code": "numerator",
              "display": "Numerator"
            } ]
          },
          "count": 1
        } ],
        "measureScore": {
          "value": 1.0
        }
      } ],
      "evaluatedResource": [ {
        "reference": "Patient/019295df-da9f-4616-9600-e4a6dfe43d44"
      }, {
        "reference": "Encounter/0368c8b8-a3d3-4209-a272-9dbd6b7395b1"
      }, {
        "reference": "Immunization/f74c660a-dd85-4e4f-9d28-38b291396add"
      }, {
        "reference": "Immunization/e6f905d0-51db-4ad7-af82-ad1b9627add5"
      }, {
        "reference": "Immunization/b3bbc2a4-6579-41ed-aa4d-1e149f5211b8"
      }, {
        "reference": "Immunization/dcf5110a-162a-4399-b975-3b976cccec9e"
      }, {
        "reference": "Immunization/038a6a6f-3edf-4560-91d0-9b75c393e728"
      }, {
        "reference": "Immunization/8e0d98af-a232-4cd2-b554-71395dc68dcb"
      }, {
        "reference": "Immunization/64899e3e-c8a2-4fb3-9191-928588638c1e"
      }, {
        "reference": "Condition/fa274a1f-7100-432a-82ab-acc6c85fc11b"
      }, {
        "reference": "Condition/05eb15a0-9463-4749-969a-a784a74995b1"
      }, {
        "reference": "Condition/45a3c3c9-4b42-4fe8-ba5d-a3e89444a2e5"
      }, {
        "reference": "Immunization/525cedcc-82e4-497e-a997-691e2e359ff7"
      }, {
        "reference": "Immunization/278336ed-b0e3-4ce1-8925-e42e20d9dc69"
      }, {
        "reference": "Immunization/09513189-1db6-4a2b-bfe4-e01474434872"
      }, {
        "reference": "Immunization/6415938e-9a39-4e85-9748-0fc7864efc1e"
      }, {
        "reference": "Immunization/f7a361f6-9f3a-4e66-830b-0c69eb171e89"
      }, {
        "reference": "Immunization/2f0e3c28-228f-4661-bdd4-a7b8e6580b49"
      }, {
        "reference": "Immunization/eb5ccb5c-811b-4a15-be1e-9ebb4c39d775"
      }, {
        "reference": "Immunization/900c6029-9606-4c30-8217-81cc38c24e85"
      }, {
        "reference": "Immunization/2e25cf5f-28d7-45f7-8494-c0da1e2e3d93"
      }, {
        "reference": "Immunization/b51dd260-1fb8-4071-a97f-8dfff6681953"
      }, {
        "reference": "Immunization/09933deb-5941-4c2a-a7c5-4620cab7327e"
      }, {
        "reference": "Immunization/0e2352fc-0153-4ced-9aae-3b8eddec63d7"
      }, {
        "reference": "Immunization/2013b1d0-ee5b-4f10-b0fd-651520f725d3"
      }, {
        "reference": "Immunization/31c21a22-46db-4856-96a7-e8b2a666a0fa"
      }, {
        "reference": "Immunization/2925a127-f18c-4382-b57d-2110746d1a8d"
      }, {
        "reference": "Immunization/033d8c82-7ff2-4460-a4cc-d552918bcea9"
      } ]
    },
    "request": {
      "method": "PUT",
      "url": "MeasureReport/7a0ccc7e-8fa0-45fb-9f70-c2a04b15812a"
    }
  } ]
}