{
  "resourceType": "Bundle",
  "id": "tests-RiskVarPassFirstCarbonDioxide-bundle",
  "type": "transaction",
  "entry": [ {
    "fullUrl": "https://madie.cms.gov/Encounter/608ce557-e962-41ba-b92d-1bd5bd52c718",
    "resource": {
      "resourceType": "Encounter",
      "id": "608ce557-e962-41ba-b92d-1bd5bd52c718",
      "meta": {
        "profile": [ "http://hl7.org/fhir/us/qicore/StructureDefinition/qicore-encounter" ]
      },
      "status": "finished",
      "class": {
        "system": "http://terminology.hl7.org/CodeSystem/v3-ActCode",
        "code": "IMP",
        "display": "inpatient encounter"
      },
      "type": [ {
        "coding": [ {
          "system": "http://snomed.info/sct",
          "code": "112689000",
          "display": "Hospital admission, elective, with complete pre-admission work-up"
        } ],
        "text": "Hospital admission, elective, with complete pre-admission work-up"
      } ],
      "priority": {
        "coding": [ {
          "system": "http://snomed.info/sct",
          "code": "103390000"
        } ]
      },
      "subject": {
        "reference": "Patient/55ad84c0-3a0f-4154-9526-341b04b1a7b1"
      },
      "period": {
        "start": "2026-04-10T08:00:00.000+00:00",
        "end": "2026-04-14T08:15:00.000+00:00"
      }
    },
    "request": {
      "method": "PUT",
      "url": "Encounter/608ce557-e962-41ba-b92d-1bd5bd52c718"
    }
  }, {
    "fullUrl": "https://madie.cms.gov/Patient/55ad84c0-3a0f-4154-9526-341b04b1a7b1",
    "resource": {
      "resourceType": "Patient",
      "id": "55ad84c0-3a0f-4154-9526-341b04b1a7b1",
      "meta": {
        "profile": [ "http://hl7.org/fhir/us/qicore/StructureDefinition/qicore-patient" ]
      },
      "extension": [ {
        "url": "http://hl7.org/fhir/us/core/StructureDefinition/us-core-race",
        "extension": [ {
          "url": "ombCategory",
          "valueCoding": {
            "system": "urn:oid:2.16.840.1.113883.6.238",
            "code": "2054-5",
            "display": "Black or African American",
            "userSelected": true
          }
        }, {
          "url": "text",
          "valueString": "Black or African American"
        } ]
      }, {
        "url": "http://hl7.org/fhir/us/core/StructureDefinition/us-core-ethnicity",
        "extension": [ {
          "url": "ombCategory",
          "valueCoding": {
            "system": "urn:oid:2.16.840.1.113883.6.238",
            "code": "2186-5",
            "display": "Not Hispanic or Latino",
            "userSelected": true
          }
        }, {
          "url": "text",
          "valueString": "Not Hispanic or Latino"
        } ]
      } ],
      "identifier": [ {
        "type": {
          "coding": [ {
            "system": "http://terminology.hl7.org/CodeSystem/v2-0203",
            "code": "MR"
          } ]
        },
        "system": "https://bonnie-fhir.healthit.gov/",
        "value": "61152a3b98086b7a79cbd7c1"
      } ],
      "active": true,
      "name": [ {
        "use": "usual",
        "family": "DENOMPass",
        "given": [ "RiskVariableASAClass" ]
      } ],
      "gender": "female",
      "birthDate": "1966-07-12"
    },
    "request": {
      "method": "PUT",
      "url": "Patient/55ad84c0-3a0f-4154-9526-341b04b1a7b1"
    }
  }, {
    "fullUrl": "https://madie.cms.gov/Observation/6241ad8e-0a25-426b-8e1c-0b32f3b6bc29",
    "resource": {
      "resourceType": "Observation",
      "id": "6241ad8e-0a25-426b-8e1c-0b32f3b6bc29",
      "meta": {
        "profile": [ "http://hl7.org/fhir/us/qicore/StructureDefinition/qicore-observation-lab" ]
      },
      "status": "final",
      "category": [ {
        "coding": [ {
          "system": "http://terminology.hl7.org/CodeSystem/observation-category",
          "code": "laboratory",
          "display": "Laboratory"
        } ],
        "text": "Laboratory"
      } ],
      "code": {
        "coding": [ {
          "system": "http://loinc.org",
          "version": "2.76",
          "code": "32771-8",
          "display": "Carbon dioxide [Partial pressure] adjusted to patient's actual temperature in Arterial blood"
        } ],
        "text": "Carbon dioxide [Partial pressure] adjusted to patient's actual temperature in Arterial blood"
      },
      "subject": {
        "reference": "Patient/55ad84c0-3a0f-4154-9526-341b04b1a7b1"
      },
      "encounter": {
        "reference": "Encounter/608ce557-e962-41ba-b92d-1bd5bd52c718"
      },
      "effectiveDateTime": "2026-04-11T09:00:00.000+00:00",
      "valueQuantity": {
        "value": 25,
        "unit": "meq/L",
        "system": "http://unitsofmeasure.org",
        "code": "meq/L"
      }
    },
    "request": {
      "method": "PUT",
      "url": "Observation/6241ad8e-0a25-426b-8e1c-0b32f3b6bc29"
    }
  }, {
    "fullUrl": "https://madie.cms.gov/Observation/f181b75a-47e3-4dff-af6f-3fa49562aee2",
    "resource": {
      "resourceType": "Observation",
      "id": "f181b75a-47e3-4dff-af6f-3fa49562aee2",
      "meta": {
        "profile": [ "http://hl7.org/fhir/us/qicore/StructureDefinition/qicore-observation-lab" ]
      },
      "status": "final",
      "category": [ {
        "coding": [ {
          "system": "http://terminology.hl7.org/CodeSystem/observation-category",
          "code": "laboratory",
          "display": "Laboratory"
        } ],
        "text": "Laboratory"
      } ],
      "code": {
        "coding": [ {
          "system": "http://loinc.org",
          "version": "2.76",
          "code": "32771-8",
          "display": "Carbon dioxide [Partial pressure] adjusted to patient's actual temperature in Arterial blood"
        } ],
        "text": "Carbon dioxide [Partial pressure] adjusted to patient's actual temperature in Arterial blood"
      },
      "subject": {
        "reference": "Patient/55ad84c0-3a0f-4154-9526-341b04b1a7b1"
      },
      "encounter": {
        "reference": "Encounter/608ce557-e962-41ba-b92d-1bd5bd52c718"
      },
      "effectiveDateTime": "2026-04-11T08:00:00.000+00:00",
      "valueQuantity": {
        "value": 27,
        "unit": "meq/L",
        "system": "http://unitsofmeasure.org",
        "code": "meq/L"
      }
    },
    "request": {
      "method": "PUT",
      "url": "Observation/f181b75a-47e3-4dff-af6f-3fa49562aee2"
    }
  }, {
    "fullUrl": "https://madie.cms.gov/Procedure/0215a311-8095-4b35-910a-c272df6abb3d",
    "resource": {
      "resourceType": "Procedure",
      "id": "0215a311-8095-4b35-910a-c272df6abb3d",
      "meta": {
        "profile": [ "http://hl7.org/fhir/us/qicore/StructureDefinition/qicore-procedure" ]
      },
      "extension": [ {
        "url": "http://hl7.org/fhir/us/qicore/StructureDefinition/qicore-recorded",
        "valueDateTime": "2026-04-11T10:30:00.000+00:00"
      } ],
      "status": "completed",
      "category": {
        "coding": [ {
          "system": "http://snomed.info/sct",
          "code": "18286008",
          "display": "General or neuraxial anesthesia"
        } ]
      },
      "code": {
        "coding": [ {
          "system": "http://snomed.info/sct",
          "code": "112943005",
          "display": "Epidural injection of anesthetic substance, diagnostic, caudal, continuous"
        } ]
      },
      "subject": {
        "reference": "Patient/55ad84c0-3a0f-4154-9526-341b04b1a7b1"
      },
      "performedPeriod": {
        "start": "2026-04-11T08:00:00.000+00:00",
        "end": "2026-04-11T10:15:00.000+00:00"
      }
    },
    "request": {
      "method": "PUT",
      "url": "Procedure/0215a311-8095-4b35-910a-c272df6abb3d"
    }
  }, {
    "fullUrl": "https://madie.cms.gov/MeasureReport/b7707b8e-24c7-425c-87a9-8f4beb410180",
    "resource": {
      "resourceType": "MeasureReport",
      "id": "b7707b8e-24c7-425c-87a9-8f4beb410180",
      "meta": {
        "profile": [ "http://hl7.org/fhir/us/cqfmeasures/StructureDefinition/test-case-cqfm" ]
      },
      "contained": [ {
        "resourceType": "Parameters",
        "id": "13b81179-0679-4374-9ddb-4faf495bd15d-parameters",
        "parameter": [ {
          "name": "subject",
          "valueString": "55ad84c0-3a0f-4154-9526-341b04b1a7b1"
        } ]
      } ],
      "extension": [ {
        "url": "http://hl7.org/fhir/StructureDefinition/cqf-inputParameters",
        "valueReference": {
          "reference": "#13b81179-0679-4374-9ddb-4faf495bd15d-parameters"
        }
      }, {
        "url": "http://hl7.org/fhir/us/cqfmeasures/StructureDefinition/cqfm-testCaseDescription",
        "valueMarkdown": "DENOMPass Satisfies First Carbon Dioxide risk variable"
      } ],
      "modifierExtension": [ {
        "url": "http://hl7.org/fhir/us/cqfmeasures/StructureDefinition/cqfm-isTestCase",
        "valueBoolean": true
      } ],
      "status": "complete",
      "type": "individual",
      "measure": "https://madie.cms.gov/Measure/CMS1218FHIRHHRF",
      "period": {
        "start": "2026-01-01",
        "end": "2026-12-31"
      },
      "group": [ {
        "id": "Group_1",
        "population": [ {
          "id": "InitialPopulation_1",
          "code": {
            "coding": [ {
              "system": "http://terminology.hl7.org/CodeSystem/measure-population",
              "code": "initial-population",
              "display": "Initial Population"
            } ]
          },
          "count": 1
        }, {
          "id": "Denominator_1",
          "code": {
            "coding": [ {
              "system": "http://terminology.hl7.org/CodeSystem/measure-population",
              "code": "denominator",
              "display": "Denominator"
            } ]
          },
          "count": 1
        }, {
          "id": "DenominatorExclusion_1",
          "code": {
            "coding": [ {
              "system": "http://terminology.hl7.org/CodeSystem/measure-population",
              "code": "denominator-exclusion",
              "display": "Denominator Exclusion"
            } ]
          },
          "count": 0
        }, {
          "id": "Numerator_1",
          "code": {
            "coding": [ {
              "system": "http://terminology.hl7.org/CodeSystem/measure-population",
              "code": "numerator",
              "display": "Numerator"
            } ]
          },
          "count": 0
        } ],
        "measureScore": {
          "value": 0.0
        }
      } ],
      "evaluatedResource": [ {
        "reference": "Encounter/608ce557-e962-41ba-b92d-1bd5bd52c718"
      }, {
        "reference": "Patient/55ad84c0-3a0f-4154-9526-341b04b1a7b1"
      }, {
        "reference": "Observation/6241ad8e-0a25-426b-8e1c-0b32f3b6bc29"
      }, {
        "reference": "Observation/f181b75a-47e3-4dff-af6f-3fa49562aee2"
      }, {
        "reference": "Procedure/0215a311-8095-4b35-910a-c272df6abb3d"
      } ]
    },
    "request": {
      "method": "PUT",
      "url": "MeasureReport/b7707b8e-24c7-425c-87a9-8f4beb410180"
    }
  } ]
}