{
  "resourceType": "Bundle",
  "id": "62cc370167cd2f796b838ab4",
  "type": "collection",
  "entry": [ {
    "fullUrl": "https://madie.cms.gov/Patient/6714818f-8aa6-4673-8c39-fd35e470461c",
    "resource": {
      "resourceType": "Patient",
      "id": "6714818f-8aa6-4673-8c39-fd35e470461c",
      "meta": {
        "profile": [ "http://hl7.org/fhir/us/qicore/StructureDefinition/qicore-patient" ]
      },
      "extension": [ {
        "url": "http://hl7.org/fhir/us/core/StructureDefinition/us-core-race",
        "extension": [ {
          "url": "ombCategory",
          "valueCoding": {
            "system": "urn:oid:2.16.840.1.113883.6.238",
            "code": "2076-8",
            "display": "Native Hawaiian or Other Pacific Islander",
            "userSelected": true
          }
        }, {
          "url": "text",
          "valueString": "Native Hawaiian or Other Pacific Islander"
        } ]
      }, {
        "url": "http://hl7.org/fhir/us/core/StructureDefinition/us-core-ethnicity",
        "extension": [ {
          "url": "ombCategory",
          "valueCoding": {
            "system": "urn:oid:2.16.840.1.113883.6.238",
            "code": "2186-5",
            "display": "Not Hispanic or Latino",
            "userSelected": true
          }
        }, {
          "url": "text",
          "valueString": "Not Hispanic or Latino"
        } ]
      } ],
      "identifier": [ {
        "type": {
          "coding": [ {
            "system": "http://terminology.hl7.org/CodeSystem/v2-0203",
            "code": "MR"
          } ]
        },
        "system": "https://bonnie-fhir.healthit.gov/",
        "value": "62cc370167cd2f796b838ab4"
      } ],
      "name": [ {
        "family": "NUMERPassX2",
        "given": [ "2EncsHTNWeightActivityLab" ]
      } ],
      "gender": "female",
      "birthDate": "2006-01-31"
    }
  }, {
    "fullUrl": "https://madie.cms.gov/Encounter/1bf6cb95-8392-47e3-9b7b-001d50f29122",
    "resource": {
      "resourceType": "Encounter",
      "id": "1bf6cb95-8392-47e3-9b7b-001d50f29122",
      "meta": {
        "profile": [ "http://hl7.org/fhir/us/qicore/StructureDefinition/qicore-encounter" ]
      },
      "status": "finished",
      "class": {
        "system": "http://terminology.hl7.org/CodeSystem/v3-ActCode",
        "code": "AMB",
        "display": "ambulatory"
      },
      "type": [ {
        "coding": [ {
          "system": "http://snomed.info/sct",
          "version": "2022-03",
          "code": "103705002",
          "display": "Patient status observation (procedure)",
          "userSelected": true
        } ]
      } ],
      "subject": {
        "reference": "Patient/6714818f-8aa6-4673-8c39-fd35e470461c"
      },
      "period": {
        "start": "2026-01-01T08:00:00.000Z",
        "end": "2026-01-01T08:30:00.000Z"
      }
    }
  }, {
    "fullUrl": "https://madie.cms.gov/Observation/91d52e8b-281e-40e6-9002-284c16f2ebcb",
    "resource": {
      "resourceType": "Observation",
      "id": "91d52e8b-281e-40e6-9002-284c16f2ebcb",
      "meta": {
        "profile": [ "http://hl7.org/fhir/us/core/StructureDefinition/us-core-blood-pressure" ]
      },
      "status": "final",
      "category": [ {
        "coding": [ {
          "system": "http://terminology.hl7.org/CodeSystem/observation-category",
          "code": "vital-signs",
          "display": "Vital Signs"
        } ],
        "text": "Vital Signs"
      } ],
      "code": {
        "coding": [ {
          "system": "http://loinc.org",
          "code": "85354-9",
          "display": "Blood pressure panel with all children optional"
        } ]
      },
      "subject": {
        "reference": "Patient/6714818f-8aa6-4673-8c39-fd35e470461c"
      },
      "effectiveDateTime": "2026-01-01T08:05:00.000Z",
      "component": [ {
        "code": {
          "coding": [ {
            "system": "http://loinc.org",
            "code": "8480-6",
            "display": "Systolic blood pressure"
          } ]
        },
        "valueQuantity": {
          "value": 130,
          "unit": "mmHg",
          "system": "http://unitsofmeasure.org",
          "code": "mm[Hg]"
        }
      }, {
        "code": {
          "coding": [ {
            "system": "http://loinc.org",
            "code": "8462-4",
            "display": "Diastolic blood pressure"
          } ]
        },
        "valueQuantity": {
          "value": 80,
          "unit": "mmHg",
          "system": "http://unitsofmeasure.org",
          "code": "mm[Hg]"
        }
      } ]
    }
  }, {
    "fullUrl": "https://madie.cms.gov/ServiceRequest/ec84b20d-9fae-442e-926b-357f311ec192",
    "resource": {
      "resourceType": "ServiceRequest",
      "id": "ec84b20d-9fae-442e-926b-357f311ec192",
      "meta": {
        "profile": [ "http://hl7.org/fhir/us/qicore/StructureDefinition/qicore-servicerequest" ]
      },
      "status": "active",
      "intent": "order",
      "code": {
        "coding": [ {
          "system": "http://snomed.info/sct",
          "version": "2022-03",
          "code": "183617005",
          "display": "Follow-up 1 day (finding)",
          "userSelected": true
        } ]
      },
      "subject": {
        "reference": "Patient/6714818f-8aa6-4673-8c39-fd35e470461c"
      },
      "authoredOn": "2026-01-01T08:25:00.000Z"
    }
  }, {
    "fullUrl": "https://madie.cms.gov/ServiceRequest/6a3c91f4-4f23-419b-8aaa-2d1301375f8b",
    "resource": {
      "resourceType": "ServiceRequest",
      "id": "6a3c91f4-4f23-419b-8aaa-2d1301375f8b",
      "meta": {
        "profile": [ "http://hl7.org/fhir/us/qicore/StructureDefinition/qicore-servicerequest" ]
      },
      "status": "active",
      "intent": "order",
      "code": {
        "coding": [ {
          "system": "http://snomed.info/sct",
          "version": "2022-03",
          "code": "1181000175107",
          "display": "Recommendation to lose weight (procedure)",
          "userSelected": true
        } ]
      },
      "subject": {
        "reference": "Patient/6714818f-8aa6-4673-8c39-fd35e470461c"
      },
      "authoredOn": "2026-01-01T08:25:00.000Z"
    }
  }, {
    "fullUrl": "https://madie.cms.gov/Encounter/3943c294-0803-4709-ba00-c4481e30f130",
    "resource": {
      "resourceType": "Encounter",
      "id": "3943c294-0803-4709-ba00-c4481e30f130",
      "meta": {
        "profile": [ "http://hl7.org/fhir/us/qicore/StructureDefinition/qicore-encounter" ]
      },
      "status": "finished",
      "class": {
        "system": "http://terminology.hl7.org/CodeSystem/v3-ActCode",
        "code": "AMB",
        "display": "ambulatory"
      },
      "type": [ {
        "coding": [ {
          "system": "http://snomed.info/sct",
          "version": "2022-03",
          "code": "103705002",
          "display": "Patient status observation (procedure)",
          "userSelected": true
        } ]
      } ],
      "subject": {
        "reference": "Patient/6714818f-8aa6-4673-8c39-fd35e470461c"
      },
      "period": {
        "start": "2026-12-31T09:00:00.000Z",
        "end": "2026-12-31T09:30:00.000Z"
      }
    }
  }, {
    "fullUrl": "https://madie.cms.gov/Observation/c38055cd-00a4-4726-b29b-8a8fe8077d42",
    "resource": {
      "resourceType": "Observation",
      "id": "c38055cd-00a4-4726-b29b-8a8fe8077d42",
      "meta": {
        "profile": [ "http://hl7.org/fhir/us/core/StructureDefinition/us-core-blood-pressure" ]
      },
      "status": "final",
      "category": [ {
        "coding": [ {
          "system": "http://terminology.hl7.org/CodeSystem/observation-category",
          "code": "vital-signs",
          "display": "Vital Signs"
        } ],
        "text": "Vital Signs"
      } ],
      "code": {
        "coding": [ {
          "system": "http://loinc.org",
          "code": "85354-9",
          "display": "Blood pressure panel with all children optional"
        } ]
      },
      "subject": {
        "reference": "Patient/6714818f-8aa6-4673-8c39-fd35e470461c"
      },
      "effectiveDateTime": "2026-12-31T09:05:00.000Z",
      "component": [ {
        "code": {
          "coding": [ {
            "system": "http://loinc.org",
            "code": "8480-6",
            "display": "Systolic blood pressure"
          } ]
        },
        "valueQuantity": {
          "value": 130,
          "unit": "mmHg",
          "system": "http://unitsofmeasure.org",
          "code": "mm[Hg]"
        }
      }, {
        "code": {
          "coding": [ {
            "system": "http://loinc.org",
            "code": "8462-4",
            "display": "Diastolic blood pressure"
          } ]
        },
        "valueQuantity": {
          "value": 80,
          "unit": "mmHg",
          "system": "http://unitsofmeasure.org",
          "code": "mm[Hg]"
        }
      } ]
    }
  }, {
    "fullUrl": "https://madie.cms.gov/ServiceRequest/f50325f8-f9d2-4bee-a8cb-6b6873a21da7",
    "resource": {
      "resourceType": "ServiceRequest",
      "id": "f50325f8-f9d2-4bee-a8cb-6b6873a21da7",
      "meta": {
        "profile": [ "http://hl7.org/fhir/us/qicore/StructureDefinition/qicore-servicerequest" ]
      },
      "status": "active",
      "intent": "order",
      "code": {
        "coding": [ {
          "system": "http://snomed.info/sct",
          "code": "183624006",
          "display": "Follow-up 2-3 months (finding)",
          "userSelected": true
        } ]
      },
      "subject": {
        "reference": "Patient/6714818f-8aa6-4673-8c39-fd35e470461c"
      },
      "authoredOn": "2026-12-31T09:25:00.000Z"
    }
  }, {
    "fullUrl": "https://madie.cms.gov/ServiceRequest/ad8c2ced-b08c-418b-8ce9-57356cfa6244",
    "resource": {
      "resourceType": "ServiceRequest",
      "id": "ad8c2ced-b08c-418b-8ce9-57356cfa6244",
      "meta": {
        "profile": [ "http://hl7.org/fhir/us/qicore/StructureDefinition/qicore-servicerequest" ]
      },
      "status": "active",
      "intent": "order",
      "code": {
        "coding": [ {
          "system": "http://snomed.info/sct",
          "version": "2022-03",
          "code": "281090004",
          "display": "Recommendation to exercise (procedure)",
          "userSelected": true
        } ]
      },
      "subject": {
        "reference": "Patient/6714818f-8aa6-4673-8c39-fd35e470461c"
      },
      "authoredOn": "2026-12-31T09:25:00.000Z"
    }
  }, {
    "fullUrl": "https://madie.cms.gov/ServiceRequest/7ed9d0ae-d0a5-48ff-b06e-d72b2e4e7c97",
    "resource": {
      "resourceType": "ServiceRequest",
      "id": "7ed9d0ae-d0a5-48ff-b06e-d72b2e4e7c97",
      "meta": {
        "profile": [ "http://hl7.org/fhir/us/qicore/StructureDefinition/qicore-servicerequest" ]
      },
      "status": "active",
      "intent": "order",
      "code": {
        "coding": [ {
          "system": "http://loinc.org",
          "version": "2.72",
          "code": "24320-4",
          "display": "Basic metabolic 1998 panel - Serum or Plasma",
          "userSelected": true
        } ]
      },
      "subject": {
        "reference": "Patient/6714818f-8aa6-4673-8c39-fd35e470461c"
      },
      "authoredOn": "2026-12-31T09:25:00.000Z"
    }
  }, {
    "fullUrl": "https://madie.cms.gov/Coverage/b3d82c03-5b36-423e-bb78-9515dc4bce60",
    "resource": {
      "resourceType": "Coverage",
      "id": "b3d82c03-5b36-423e-bb78-9515dc4bce60",
      "meta": {
        "profile": [ "http://hl7.org/fhir/us/qicore/StructureDefinition/qicore-coverage" ]
      },
      "status": "active",
      "subscriberId": "2134523",
      "beneficiary": {
        "reference": "Patient/6714818f-8aa6-4673-8c39-fd35e470461c"
      },
      "relationship": {
        "coding": [ {
          "system": "http://terminology.hl7.org/CodeSystem/subscriber-relationship",
          "code": "self",
          "display": "Self"
        } ]
      },
      "payor": [ {
        "reference": "Organization/013a532c-a872-4508-b101-4c174343b3bd"
      } ]
    }
  }, {
    "fullUrl": "https://madie.cms.gov/Organization/013a532c-a872-4508-b101-4c174343b3bd",
    "resource": {
      "resourceType": "Organization",
      "id": "013a532c-a872-4508-b101-4c174343b3bd",
      "meta": {
        "profile": [ "http://hl7.org/fhir/us/qicore/StructureDefinition/qicore-organization" ]
      },
      "identifier": [ {
        "use": "temp",
        "system": "urn:oid:2.16.840.1.113883.4.4",
        "value": "21-3259825"
      } ],
      "active": true,
      "type": [ {
        "coding": [ {
          "system": "http://terminology.hl7.org/CodeSystem/organization-type",
          "code": "pay",
          "display": "Payer"
        } ]
      } ],
      "name": "Blue Cross Blue Shield of Texas",
      "telecom": [ {
        "system": "phone",
        "value": "(+1) 972-766-6900"
      } ],
      "address": [ {
        "use": "billing",
        "type": "postal",
        "line": [ "P.O. Box 660044" ],
        "city": "Dallas",
        "state": "TX",
        "postalCode": "75266-0044",
        "country": "USA"
      } ]
    }
  }, {
    "fullUrl": "https://madie.cms.gov/MeasureReport/ccdb0b54-2eb3-4fe7-8ae8-95f320430e15",
    "resource": {
      "resourceType": "MeasureReport",
      "id": "ccdb0b54-2eb3-4fe7-8ae8-95f320430e15",
      "meta": {
        "profile": [ "http://hl7.org/fhir/us/cqfmeasures/StructureDefinition/test-case-cqfm" ]
      },
      "contained": [ {
        "resourceType": "Parameters",
        "id": "687d7161-7fd7-4c3b-b839-2fff66ca7151-parameters",
        "parameter": [ {
          "name": "subject",
          "valueString": "6714818f-8aa6-4673-8c39-fd35e470461c"
        } ]
      } ],
      "extension": [ {
        "url": "http://hl7.org/fhir/StructureDefinition/cqf-inputParameters",
        "valueReference": {
          "reference": "#687d7161-7fd7-4c3b-b839-2fff66ca7151-parameters"
        }
      }, {
        "url": "http://hl7.org/fhir/us/cqfmeasures/StructureDefinition/cqfm-testCaseDescription",
        "valueMarkdown": "Age 18+, 1st enc. 01/01 0800- 0830 during MP, bp 130/80, f/u 4 wks, wt reduction recommend.\n\n2nd enc. 12/31  0900 - 0930 during MP,  BP 130/80 ref/u 2-3 wks, recommend exercise. ordered BMP, "
      } ],
      "modifierExtension": [ {
        "url": "http://hl7.org/fhir/us/cqfmeasures/StructureDefinition/cqfm-isTestCase",
        "valueBoolean": true
      } ],
      "status": "complete",
      "type": "individual",
      "measure": "https://madie.cms.gov/Measure/CMS22FHIRPCSBPScreeningFollowUp",
      "period": {
        "start": "2026-01-01",
        "end": "2026-12-31"
      },
      "group": [ {
        "id": "Group_1",
        "population": [ {
          "id": "InitialPopulation_1",
          "code": {
            "coding": [ {
              "system": "http://terminology.hl7.org/CodeSystem/measure-population",
              "code": "initial-population",
              "display": "Initial Population"
            } ]
          },
          "count": 2
        }, {
          "id": "Denominator_1",
          "code": {
            "coding": [ {
              "system": "http://terminology.hl7.org/CodeSystem/measure-population",
              "code": "denominator",
              "display": "Denominator"
            } ]
          },
          "count": 2
        }, {
          "id": "DenominatorExclusion_1",
          "code": {
            "coding": [ {
              "system": "http://terminology.hl7.org/CodeSystem/measure-population",
              "code": "denominator-exclusion",
              "display": "Denominator Exclusion"
            } ]
          },
          "count": 0
        }, {
          "id": "Numerator_1",
          "code": {
            "coding": [ {
              "system": "http://terminology.hl7.org/CodeSystem/measure-population",
              "code": "numerator",
              "display": "Numerator"
            } ]
          },
          "count": 2
        }, {
          "id": "DenominatorException_1",
          "code": {
            "coding": [ {
              "system": "http://terminology.hl7.org/CodeSystem/measure-population",
              "code": "denominator-exception",
              "display": "Denominator Exception"
            } ]
          },
          "count": 0
        } ],
        "measureScore": {
          "value": 0.0
        }
      } ],
      "evaluatedResource": [ {
        "reference": "Patient/6714818f-8aa6-4673-8c39-fd35e470461c"
      }, {
        "reference": "Encounter/1bf6cb95-8392-47e3-9b7b-001d50f29122"
      }, {
        "reference": "Observation/91d52e8b-281e-40e6-9002-284c16f2ebcb"
      }, {
        "reference": "ServiceRequest/ec84b20d-9fae-442e-926b-357f311ec192"
      }, {
        "reference": "ServiceRequest/6a3c91f4-4f23-419b-8aaa-2d1301375f8b"
      }, {
        "reference": "Encounter/3943c294-0803-4709-ba00-c4481e30f130"
      }, {
        "reference": "Observation/c38055cd-00a4-4726-b29b-8a8fe8077d42"
      }, {
        "reference": "ServiceRequest/f50325f8-f9d2-4bee-a8cb-6b6873a21da7"
      }, {
        "reference": "ServiceRequest/ad8c2ced-b08c-418b-8ce9-57356cfa6244"
      }, {
        "reference": "ServiceRequest/7ed9d0ae-d0a5-48ff-b06e-d72b2e4e7c97"
      }, {
        "reference": "Coverage/b3d82c03-5b36-423e-bb78-9515dc4bce60"
      }, {
        "reference": "Organization/013a532c-a872-4508-b101-4c174343b3bd"
      } ]
    }
  } ]
}