{
  "resourceType": "Bundle",
  "id": "642713b678c9438489949adh",
  "type": "collection",
  "entry": [ {
    "fullUrl": "https://madie.cms.gov/Patient/0405033f-c6a4-4619-93da-14c9c5613d7b",
    "resource": {
      "resourceType": "Patient",
      "id": "0405033f-c6a4-4619-93da-14c9c5613d7b",
      "meta": {
        "profile": [ "http://hl7.org/fhir/us/qicore/StructureDefinition/qicore-patient" ]
      },
      "extension": [ {
        "url": "http://hl7.org/fhir/us/core/StructureDefinition/us-core-race",
        "extension": [ {
          "url": "ombCategory",
          "valueCoding": {
            "system": "urn:oid:2.16.840.1.113883.6.238",
            "code": "1002-5",
            "display": "American Indian or Alaska Native",
            "userSelected": true
          }
        }, {
          "url": "text",
          "valueString": "American Indian or Alaska Native"
        } ]
      }, {
        "url": "http://hl7.org/fhir/us/core/StructureDefinition/us-core-ethnicity",
        "extension": [ {
          "url": "ombCategory",
          "valueCoding": {
            "system": "urn:oid:2.16.840.1.113883.6.238",
            "code": "2135-2",
            "display": "Hispanic or Latino",
            "userSelected": true
          }
        }, {
          "url": "text",
          "valueString": "Hispanic or Latino"
        } ]
      } ],
      "identifier": [ {
        "type": {
          "coding": [ {
            "system": "http://terminology.hl7.org/CodeSystem/v2-0203",
            "code": "MR"
          } ]
        },
        "system": "https://bonnie-fhir.healthit.gov/",
        "value": "642713b678c9438489949adh"
      } ],
      "name": [ {
        "family": "NUMERPass",
        "given": [ "Assessment1MinB4EncounterEdge" ]
      } ],
      "gender": "female",
      "birthDate": "1979-01-02"
    }
  }, {
    "fullUrl": "https://madie.cms.gov/Condition/5ab00d08-7b15-4752-9fa6-0649f798283f",
    "resource": {
      "resourceType": "Condition",
      "id": "5ab00d08-7b15-4752-9fa6-0649f798283f",
      "meta": {
        "profile": [ "http://hl7.org/fhir/us/qicore/StructureDefinition/qicore-condition-problems-health-concerns" ]
      },
      "clinicalStatus": {
        "coding": [ {
          "system": "http://terminology.hl7.org/CodeSystem/condition-clinical",
          "code": "active",
          "display": "Active",
          "userSelected": true
        } ]
      },
      "verificationStatus": {
        "coding": [ {
          "system": "http://terminology.hl7.org/CodeSystem/condition-ver-status",
          "code": "confirmed",
          "display": "Confirmed",
          "userSelected": true
        } ]
      },
      "category": [ {
        "coding": [ {
          "system": "http://terminology.hl7.org/CodeSystem/condition-category",
          "code": "encounter-diagnosis",
          "display": "Encounter Diagnosis",
          "userSelected": true
        } ]
      }, {
        "coding": [ {
          "system": "http://terminology.hl7.org/CodeSystem/condition-category",
          "code": "problem-list-item",
          "display": "Problem List Item"
        } ]
      } ],
      "code": {
        "coding": [ {
          "system": "http://hl7.org/fhir/sid/icd-10-cm",
          "version": "2023",
          "code": "G31.83",
          "userSelected": true
        } ]
      },
      "subject": {
        "reference": "Patient/0405033f-c6a4-4619-93da-14c9c5613d7b"
      },
      "onsetPeriod": {
        "start": "2023-03-30T08:00:00.000+00:00"
      }
    }
  }, {
    "fullUrl": "https://madie.cms.gov/Encounter/6f03bf8e-7b02-4134-8c8b-47acd21971fe",
    "resource": {
      "resourceType": "Encounter",
      "id": "6f03bf8e-7b02-4134-8c8b-47acd21971fe",
      "meta": {
        "profile": [ "http://hl7.org/fhir/us/qicore/StructureDefinition/qicore-encounter" ]
      },
      "status": "finished",
      "class": {
        "system": "http://terminology.hl7.org/CodeSystem/v3-ActCode",
        "code": "AMB",
        "display": "ambulatory",
        "userSelected": true
      },
      "type": [ {
        "coding": [ {
          "system": "http://www.ama-assn.org/go/cpt",
          "version": "2023",
          "code": "99212",
          "userSelected": true
        } ]
      } ],
      "subject": {
        "reference": "Patient/0405033f-c6a4-4619-93da-14c9c5613d7b"
      },
      "period": {
        "start": "2026-03-31T08:00:00.000+00:00",
        "end": "2026-03-31T08:35:00.000+00:00"
      }
    }
  }, {
    "fullUrl": "https://madie.cms.gov/Encounter/ed8d691c-a89e-4694-8aa6-efc0c2f875a1",
    "resource": {
      "resourceType": "Encounter",
      "id": "ed8d691c-a89e-4694-8aa6-efc0c2f875a1",
      "meta": {
        "profile": [ "http://hl7.org/fhir/us/qicore/StructureDefinition/qicore-encounter" ]
      },
      "status": "finished",
      "class": {
        "system": "http://terminology.hl7.org/CodeSystem/v3-ActCode",
        "code": "AMB",
        "display": "ambulatory",
        "userSelected": true
      },
      "type": [ {
        "coding": [ {
          "system": "http://snomed.info/sct",
          "version": "http://snomed.info/sct/731000124108/version/202303",
          "code": "185463005",
          "display": "Visit out of hours (procedure)",
          "userSelected": true
        } ]
      } ],
      "subject": {
        "reference": "Patient/0405033f-c6a4-4619-93da-14c9c5613d7b"
      },
      "period": {
        "start": "2026-08-31T08:00:00.000+00:00",
        "end": "2026-08-31T08:35:00.000+00:00"
      }
    }
  }, {
    "fullUrl": "https://madie.cms.gov/Observation/8129be3d-f7ac-4059-bcb5-8c8df35e4969",
    "resource": {
      "resourceType": "Observation",
      "id": "8129be3d-f7ac-4059-bcb5-8c8df35e4969",
      "meta": {
        "profile": [ "http://hl7.org/fhir/us/qicore/StructureDefinition/qicore-observation-screening-assessment" ]
      },
      "status": "corrected",
      "category": [ {
        "coding": [ {
          "system": "http://terminology.hl7.org/CodeSystem/observation-category",
          "code": "survey",
          "display": "Survey",
          "userSelected": true
        } ]
      } ],
      "code": {
        "coding": [ {
          "system": "http://snomed.info/sct",
          "version": "http://snomed.info/sct/731000124108/version/20250301",
          "code": "113024001",
          "display": "Assessment and interpretation of higher cerebral function, cognitive testing (procedure)",
          "userSelected": true
        } ]
      },
      "subject": {
        "reference": "Patient/0405033f-c6a4-4619-93da-14c9c5613d7b"
      },
      "effectiveDateTime": "2026-08-31T08:34:00.000+00:00",
      "issued": "2026-08-31T08:34:00.000+00:00",
      "valueInteger": 26
    }
  }, {
    "fullUrl": "https://madie.cms.gov/Coverage/c7f92f2a-1bbf-42f4-a5ea-ee9cc2b99b4b",
    "resource": {
      "resourceType": "Coverage",
      "id": "c7f92f2a-1bbf-42f4-a5ea-ee9cc2b99b4b",
      "meta": {
        "profile": [ "http://hl7.org/fhir/us/qicore/StructureDefinition/qicore-coverage" ]
      },
      "status": "active",
      "subscriberId": "123456",
      "beneficiary": {
        "reference": "Patient/0405033f-c6a4-4619-93da-14c9c5613d7b"
      },
      "relationship": {
        "coding": [ {
          "system": "http://terminology.hl7.org/CodeSystem/subscriber-relationship",
          "code": "self",
          "display": "Self"
        } ]
      },
      "payor": [ {
        "reference": "Organization/9011ca81-28c0-46a2-854a-a3fc6fa9c6d9"
      } ]
    }
  }, {
    "fullUrl": "https://madie.cms.gov/Organization/9011ca81-28c0-46a2-854a-a3fc6fa9c6d9",
    "resource": {
      "resourceType": "Organization",
      "id": "9011ca81-28c0-46a2-854a-a3fc6fa9c6d9",
      "meta": {
        "profile": [ "http://hl7.org/fhir/us/qicore/StructureDefinition/qicore-organization" ]
      },
      "identifier": [ {
        "use": "temp",
        "system": "urn:oid:2.16.840.1.113883.4.4",
        "value": "21-3259825"
      } ],
      "active": true,
      "type": [ {
        "coding": [ {
          "system": "http://terminology.hl7.org/CodeSystem/organization-type",
          "code": "pay",
          "display": "Payer"
        } ]
      } ],
      "name": "Blue Cross Blue Shield of Texas",
      "telecom": [ {
        "system": "phone",
        "value": "(+1) 972-766-6900"
      } ],
      "address": [ {
        "use": "billing",
        "type": "postal",
        "line": [ "P.O. Box 660044" ],
        "city": "Dallas",
        "state": "TX",
        "postalCode": "75266-0044",
        "country": "USA"
      } ]
    }
  }, {
    "fullUrl": "https://madie.cms.gov/Practitioner/364d9bcb-d908-4260-868f-8389b1d2505e",
    "resource": {
      "resourceType": "Practitioner",
      "id": "364d9bcb-d908-4260-868f-8389b1d2505e",
      "identifier": [ {
        "system": "http://hl7.org/fhir/sid/us-npi",
        "value": "1689411712"
      } ],
      "name": [ {
        "family": "Evil",
        "prefix": [ "Dr" ]
      } ]
    }
  }, {
    "fullUrl": "https://madie.cms.gov/MeasureReport/a5320f85-caa5-4909-bb5c-3e45fabce3f9",
    "resource": {
      "resourceType": "MeasureReport",
      "id": "a5320f85-caa5-4909-bb5c-3e45fabce3f9",
      "meta": {
        "profile": [ "http://hl7.org/fhir/us/cqfmeasures/StructureDefinition/test-case-cqfm" ]
      },
      "contained": [ {
        "resourceType": "Parameters",
        "id": "fe47d9ec-01b1-48df-8a8b-884c5e28c569-parameters",
        "parameter": [ {
          "name": "subject",
          "valueString": "0405033f-c6a4-4619-93da-14c9c5613d7b"
        } ]
      } ],
      "extension": [ {
        "url": "http://hl7.org/fhir/StructureDefinition/cqf-inputParameters",
        "valueReference": {
          "reference": "#fe47d9ec-01b1-48df-8a8b-884c5e28c569-parameters"
        }
      }, {
        "url": "http://hl7.org/fhir/us/cqfmeasures/StructureDefinition/cqfm-testCaseDescription",
        "valueMarkdown": "Cognitive Assessment is performed in last minute before end of Visit"
      } ],
      "modifierExtension": [ {
        "url": "http://hl7.org/fhir/us/cqfmeasures/StructureDefinition/cqfm-isTestCase",
        "valueBoolean": true
      } ],
      "status": "complete",
      "type": "individual",
      "measure": "https://madie.cms.gov/Measure/CMS149FHIRDementiaCognitiveAssess",
      "period": {
        "start": "2026-01-01",
        "end": "2026-12-31"
      },
      "group": [ {
        "id": "Group_1",
        "population": [ {
          "id": "InitialPopulation_1",
          "code": {
            "coding": [ {
              "system": "http://terminology.hl7.org/CodeSystem/measure-population",
              "code": "initial-population",
              "display": "Initial Population"
            } ]
          },
          "count": 1
        }, {
          "id": "Denominator_1",
          "code": {
            "coding": [ {
              "system": "http://terminology.hl7.org/CodeSystem/measure-population",
              "code": "denominator",
              "display": "Denominator"
            } ]
          },
          "count": 1
        }, {
          "id": "Numerator_1",
          "code": {
            "coding": [ {
              "system": "http://terminology.hl7.org/CodeSystem/measure-population",
              "code": "numerator",
              "display": "Numerator"
            } ]
          },
          "count": 1
        }, {
          "id": "DenominatorException_1",
          "code": {
            "coding": [ {
              "system": "http://terminology.hl7.org/CodeSystem/measure-population",
              "code": "denominator-exception",
              "display": "Denominator Exception"
            } ]
          },
          "count": 0
        } ],
        "measureScore": {
          "value": 1.0
        }
      } ],
      "evaluatedResource": [ {
        "reference": "Patient/0405033f-c6a4-4619-93da-14c9c5613d7b"
      }, {
        "reference": "Condition/5ab00d08-7b15-4752-9fa6-0649f798283f"
      }, {
        "reference": "Encounter/6f03bf8e-7b02-4134-8c8b-47acd21971fe"
      }, {
        "reference": "Encounter/ed8d691c-a89e-4694-8aa6-efc0c2f875a1"
      }, {
        "reference": "Observation/8129be3d-f7ac-4059-bcb5-8c8df35e4969"
      }, {
        "reference": "Coverage/c7f92f2a-1bbf-42f4-a5ea-ee9cc2b99b4b"
      }, {
        "reference": "Organization/9011ca81-28c0-46a2-854a-a3fc6fa9c6d9"
      }, {
        "reference": "Practitioner/364d9bcb-d908-4260-868f-8389b1d2505e"
      } ]
    }
  } ]
}