{
  "resourceType": "Bundle",
  "id": "633b3f9e0968f80122503cd3",
  "type": "transaction",
  "entry": [ {
    "fullUrl": "https://madie.cms.gov/Patient/314871b3-6925-49ec-b7c9-bc3a8992d182",
    "resource": {
      "resourceType": "Patient",
      "id": "314871b3-6925-49ec-b7c9-bc3a8992d182",
      "meta": {
        "profile": [ "http://hl7.org/fhir/us/qicore/StructureDefinition/qicore-patient" ]
      },
      "text": {
        "status": "generated",
        "div": "<div xmlns=\"http://www.w3.org/1999/xhtml\"><div class=\"hapiHeaderText\">EDDRelvTm24HrB4DELRsltDtTime<b>DENOMPASS</b></div><table class=\"hapiPropertyTable\"><tbody><tr><td>Date of birth</td><td><span>01 February 2004</span></td></tr></tbody></table></div>"
      },
      "extension": [ {
        "url": "http://hl7.org/fhir/us/core/StructureDefinition/us-core-race",
        "extension": [ {
          "url": "ombCategory",
          "valueCoding": {
            "system": "urn:oid:2.16.840.1.113883.6.238",
            "code": "1002-5",
            "display": "American Indian or Alaska Native",
            "userSelected": true
          }
        }, {
          "url": "text",
          "valueString": "American Indian or Alaska Native"
        } ]
      }, {
        "url": "http://hl7.org/fhir/us/core/StructureDefinition/us-core-ethnicity",
        "extension": [ {
          "url": "ombCategory",
          "valueCoding": {
            "system": "urn:oid:2.16.840.1.113883.6.238",
            "code": "2135-2",
            "display": "Hispanic or Latino",
            "userSelected": true
          }
        }, {
          "url": "text",
          "valueString": "Hispanic or Latino"
        } ]
      } ],
      "identifier": [ {
        "type": {
          "coding": [ {
            "system": "http://terminology.hl7.org/CodeSystem/v2-0203",
            "code": "MR"
          } ]
        },
        "system": "https://bonnie-fhir.healthit.gov/",
        "value": "633b3f9e0968f80122503cd3"
      } ],
      "active": true,
      "name": [ {
        "use": "usual",
        "family": "DENOMPass",
        "given": [ "EDDRelvTm24HrB4DELRsltDtTime" ]
      } ],
      "gender": "female",
      "birthDate": "2005-02-01"
    },
    "request": {
      "method": "PUT",
      "url": "Patient/314871b3-6925-49ec-b7c9-bc3a8992d182"
    }
  }, {
    "fullUrl": "https://madie.cms.gov/Observation/7e9d85bf-fae4-4aed-a00c-aea59b3c50e6",
    "resource": {
      "resourceType": "Observation",
      "id": "7e9d85bf-fae4-4aed-a00c-aea59b3c50e6",
      "meta": {
        "profile": [ "http://hl7.org/fhir/us/qicore/StructureDefinition/qicore-simple-observation" ]
      },
      "status": "final",
      "category": [ {
        "coding": [ {
          "system": "http://terminology.hl7.org/CodeSystem/observation-category",
          "code": "exam",
          "display": "exam",
          "userSelected": true
        } ]
      } ],
      "code": {
        "coding": [ {
          "system": "http://loinc.org",
          "code": "93857-1"
        } ]
      },
      "subject": {
        "reference": "Patient/314871b3-6925-49ec-b7c9-bc3a8992d182"
      },
      "effectiveDateTime": "2026-02-01T08:00:00.000+00:00",
      "performer": [ {
        "reference": "Organization/example1",
        "display": "Hendricks Country Hospital"
      } ],
      "valueDateTime": "2026-02-01T08:00:00.000+00:00"
    },
    "request": {
      "method": "PUT",
      "url": "Observation/7e9d85bf-fae4-4aed-a00c-aea59b3c50e6"
    }
  }, {
    "fullUrl": "https://madie.cms.gov/Observation/8e7d5d36-fdcc-487c-a6ae-b19aa3bb9776",
    "resource": {
      "resourceType": "Observation",
      "id": "8e7d5d36-fdcc-487c-a6ae-b19aa3bb9776",
      "meta": {
        "profile": [ "http://hl7.org/fhir/us/qicore/StructureDefinition/qicore-simple-observation" ]
      },
      "status": "final",
      "category": [ {
        "coding": [ {
          "system": "http://terminology.hl7.org/CodeSystem/observation-category",
          "code": "exam",
          "display": "exam",
          "userSelected": true
        } ]
      } ],
      "code": {
        "coding": [ {
          "system": "http://loinc.org",
          "code": "11778-8"
        } ]
      },
      "subject": {
        "reference": "Patient/314871b3-6925-49ec-b7c9-bc3a8992d182"
      },
      "effectiveDateTime": "2026-01-31T08:00:00.000+00:00",
      "performer": [ {
        "reference": "Organization/example1",
        "display": "Hendricks Country Hospital"
      } ],
      "valueDateTime": "2026-02-01T08:00:00.000+00:00"
    },
    "request": {
      "method": "PUT",
      "url": "Observation/8e7d5d36-fdcc-487c-a6ae-b19aa3bb9776"
    }
  }, {
    "fullUrl": "https://madie.cms.gov/Encounter/c53e3108-e009-4a14-a7e8-023ceddacd11",
    "resource": {
      "resourceType": "Encounter",
      "id": "c53e3108-e009-4a14-a7e8-023ceddacd11",
      "meta": {
        "profile": [ "http://hl7.org/fhir/us/qicore/StructureDefinition/qicore-encounter" ]
      },
      "status": "finished",
      "class": {
        "system": "http://terminology.hl7.org/CodeSystem/v3-ActCode",
        "code": "IMP",
        "display": "inpatient encounter"
      },
      "type": [ {
        "coding": [ {
          "system": "http://snomed.info/sct",
          "code": "183452005"
        } ]
      } ],
      "subject": {
        "reference": "Patient/314871b3-6925-49ec-b7c9-bc3a8992d182"
      },
      "period": {
        "start": "2026-02-01T08:00:00.000+00:00",
        "end": "2026-02-05T08:15:00.000+00:00"
      }
    },
    "request": {
      "method": "PUT",
      "url": "Encounter/c53e3108-e009-4a14-a7e8-023ceddacd11"
    }
  }, {
    "fullUrl": "https://madie.cms.gov/Procedure/ecdf953f-7fee-49cf-bbe3-eb797ba51025",
    "resource": {
      "resourceType": "Procedure",
      "id": "ecdf953f-7fee-49cf-bbe3-eb797ba51025",
      "meta": {
        "profile": [ "http://hl7.org/fhir/us/qicore/StructureDefinition/qicore-procedure" ]
      },
      "extension": [ {
        "url": "http://hl7.org/fhir/us/qicore/StructureDefinition/qicore-recorded",
        "valueDateTime": "2014-04-05T13:35:00.000+00:00"
      } ],
      "status": "completed",
      "code": {
        "coding": [ {
          "system": "http://snomed.info/sct",
          "code": "10745001"
        } ]
      },
      "subject": {
        "reference": "Patient/314871b3-6925-49ec-b7c9-bc3a8992d182"
      },
      "performedPeriod": {
        "start": "2026-02-01T08:00:00.000+00:00",
        "end": "2026-02-05T08:15:00.000+00:00"
      }
    },
    "request": {
      "method": "PUT",
      "url": "Procedure/ecdf953f-7fee-49cf-bbe3-eb797ba51025"
    }
  }, {
    "fullUrl": "https://madie.cms.gov/Coverage/64098142-5777-4343-92db-0e6bc8725aa7",
    "resource": {
      "resourceType": "Coverage",
      "id": "64098142-5777-4343-92db-0e6bc8725aa7",
      "meta": {
        "profile": [ "http://hl7.org/fhir/us/qicore/StructureDefinition/qicore-coverage" ]
      },
      "status": "active",
      "subscriberId": "523435",
      "beneficiary": {
        "reference": "Patient/314871b3-6925-49ec-b7c9-bc3a8992d182"
      },
      "relationship": {
        "coding": [ {
          "system": "http://terminology.hl7.org/CodeSystem/subscriber-relationship",
          "code": "self"
        } ]
      },
      "payor": [ {
        "reference": "Organization/b5e9a06b-3819-4b1d-a745-af5abd1cf4a7"
      } ]
    },
    "request": {
      "method": "PUT",
      "url": "Coverage/64098142-5777-4343-92db-0e6bc8725aa7"
    }
  }, {
    "fullUrl": "https://madie.cms.gov/Organization/b5e9a06b-3819-4b1d-a745-af5abd1cf4a7",
    "resource": {
      "resourceType": "Organization",
      "id": "b5e9a06b-3819-4b1d-a745-af5abd1cf4a7",
      "meta": {
        "profile": [ "http://hl7.org/fhir/us/qicore/StructureDefinition/qicore-organization" ]
      },
      "identifier": [ {
        "use": "temp",
        "system": "urn:oid:2.16.840.1.113883.4.4",
        "value": "21-3259825"
      } ],
      "active": true,
      "type": [ {
        "coding": [ {
          "system": "http://terminology.hl7.org/CodeSystem/organization-type",
          "code": "pay",
          "display": "Payer"
        } ]
      } ],
      "name": "Blue Cross Blue Shield of Texas",
      "telecom": [ {
        "system": "phone",
        "value": "(+1) 972-766-6900"
      } ],
      "address": [ {
        "use": "billing",
        "type": "postal",
        "line": [ "P.O. Box 660044" ],
        "city": "Dallas",
        "state": "TX",
        "postalCode": "75266-0044",
        "country": "USA"
      } ]
    },
    "request": {
      "method": "PUT",
      "url": "Organization/b5e9a06b-3819-4b1d-a745-af5abd1cf4a7"
    }
  }, {
    "fullUrl": "https://madie.cms.gov/Practitioner/5f9a2e5d-92e1-4509-84f9-b70d0956114c",
    "resource": {
      "resourceType": "Practitioner",
      "id": "5f9a2e5d-92e1-4509-84f9-b70d0956114c",
      "meta": {
        "profile": [ "http://hl7.org/fhir/us/qicore/StructureDefinition/qicore-practitioner" ]
      },
      "identifier": [ {
        "system": "http://hl7.org/fhir/sid/us-npi",
        "value": "1234567890"
      } ],
      "name": [ {
        "family": "Evil",
        "prefix": [ "Dr" ]
      } ]
    },
    "request": {
      "method": "PUT",
      "url": "Practitioner/5f9a2e5d-92e1-4509-84f9-b70d0956114c"
    }
  }, {
    "fullUrl": "https://madie.cms.gov/MeasureReport/0a97b05d-d0fc-48ae-8c0b-363544f64dcb",
    "resource": {
      "resourceType": "MeasureReport",
      "id": "0a97b05d-d0fc-48ae-8c0b-363544f64dcb",
      "meta": {
        "profile": [ "http://hl7.org/fhir/us/cqfmeasures/StructureDefinition/test-case-cqfm" ]
      },
      "contained": [ {
        "resourceType": "Parameters",
        "id": "59c2446c-39ce-4d5f-af10-9858d9b0232b-parameters",
        "parameter": [ {
          "name": "subject",
          "valueString": "314871b3-6925-49ec-b7c9-bc3a8992d182"
        } ]
      } ],
      "extension": [ {
        "url": "http://hl7.org/fhir/StructureDefinition/cqf-inputParameters",
        "valueReference": {
          "reference": "#59c2446c-39ce-4d5f-af10-9858d9b0232b-parameters"
        }
      }, {
        "url": "http://hl7.org/fhir/us/cqfmeasures/StructureDefinition/cqfm-testCaseDescription",
        "valueMarkdown": "Last assessment Performed, Estimated Delivery Date, Relevant time, 24 hours before Delivery result Date Time \n"
      } ],
      "modifierExtension": [ {
        "url": "http://hl7.org/fhir/us/cqfmeasures/StructureDefinition/cqfm-isTestCase",
        "valueBoolean": true
      } ],
      "status": "complete",
      "type": "individual",
      "measure": "https://madie.cms.gov/Measure/CMS1028FHIRPCSevereOBComps",
      "period": {
        "start": "2026-01-01",
        "end": "2026-12-31"
      },
      "group": [ {
        "id": "Group_1",
        "population": [ {
          "id": "InitialPopulation_1",
          "code": {
            "coding": [ {
              "system": "http://terminology.hl7.org/CodeSystem/measure-population",
              "code": "initial-population",
              "display": "Initial Population"
            } ]
          },
          "count": 1
        }, {
          "id": "Denominator_1",
          "code": {
            "coding": [ {
              "system": "http://terminology.hl7.org/CodeSystem/measure-population",
              "code": "denominator",
              "display": "Denominator"
            } ]
          },
          "count": 1
        }, {
          "id": "Numerator_1",
          "code": {
            "coding": [ {
              "system": "http://terminology.hl7.org/CodeSystem/measure-population",
              "code": "numerator",
              "display": "Numerator"
            } ]
          },
          "count": 0
        }, {
          "id": "NumeratorExclusion_1",
          "code": {
            "coding": [ {
              "system": "http://terminology.hl7.org/CodeSystem/measure-population",
              "code": "numerator-exclusion",
              "display": "Numerator Exclusion"
            } ]
          },
          "count": 0
        } ],
        "measureScore": {
          "value": 0.0
        }
      }, {
        "id": "Group_2",
        "population": [ {
          "id": "InitialPopulation_2",
          "code": {
            "coding": [ {
              "system": "http://terminology.hl7.org/CodeSystem/measure-population",
              "code": "initial-population",
              "display": "Initial Population"
            } ]
          },
          "count": 1
        }, {
          "id": "Denominator_2",
          "code": {
            "coding": [ {
              "system": "http://terminology.hl7.org/CodeSystem/measure-population",
              "code": "denominator",
              "display": "Denominator"
            } ]
          },
          "count": 1
        }, {
          "id": "Numerator_2",
          "code": {
            "coding": [ {
              "system": "http://terminology.hl7.org/CodeSystem/measure-population",
              "code": "numerator",
              "display": "Numerator"
            } ]
          },
          "count": 0
        }, {
          "id": "NumeratorExclusion_2",
          "code": {
            "coding": [ {
              "system": "http://terminology.hl7.org/CodeSystem/measure-population",
              "code": "numerator-exclusion",
              "display": "Numerator Exclusion"
            } ]
          },
          "count": 0
        } ],
        "measureScore": {
          "value": 0.0
        }
      } ],
      "evaluatedResource": [ {
        "reference": "Patient/314871b3-6925-49ec-b7c9-bc3a8992d182"
      }, {
        "reference": "Observation/7e9d85bf-fae4-4aed-a00c-aea59b3c50e6"
      }, {
        "reference": "Observation/8e7d5d36-fdcc-487c-a6ae-b19aa3bb9776"
      }, {
        "reference": "Encounter/c53e3108-e009-4a14-a7e8-023ceddacd11"
      }, {
        "reference": "Procedure/ecdf953f-7fee-49cf-bbe3-eb797ba51025"
      }, {
        "reference": "Coverage/64098142-5777-4343-92db-0e6bc8725aa7"
      }, {
        "reference": "Organization/b5e9a06b-3819-4b1d-a745-af5abd1cf4a7"
      }, {
        "reference": "Practitioner/5f9a2e5d-92e1-4509-84f9-b70d0956114c"
      } ]
    },
    "request": {
      "method": "PUT",
      "url": "MeasureReport/0a97b05d-d0fc-48ae-8c0b-363544f64dcb"
    }
  } ]
}