{
  "resourceType": "Bundle",
  "id": "62fd2b3d32e2f917c3627d86",
  "type": "collection",
  "entry": [ {
    "fullUrl": "https://madie.cms.gov/Patient/a5ee17bd-75d5-4cdc-b2eb-bf22014b7ba6",
    "resource": {
      "resourceType": "Patient",
      "id": "a5ee17bd-75d5-4cdc-b2eb-bf22014b7ba6",
      "meta": {
        "profile": [ "http://hl7.org/fhir/us/qicore/StructureDefinition/qicore-patient" ]
      },
      "extension": [ {
        "url": "http://hl7.org/fhir/us/core/StructureDefinition/us-core-race",
        "extension": [ {
          "url": "ombCategory",
          "valueCoding": {
            "system": "urn:oid:2.16.840.1.113883.6.238",
            "code": "2054-5",
            "display": "Black or African American",
            "userSelected": true
          }
        }, {
          "url": "text",
          "valueString": "Black or African American"
        } ]
      }, {
        "url": "http://hl7.org/fhir/us/core/StructureDefinition/us-core-ethnicity",
        "extension": [ {
          "url": "ombCategory",
          "valueCoding": {
            "system": "urn:oid:2.16.840.1.113883.6.238",
            "code": "2135-2",
            "display": "Hispanic or Latino",
            "userSelected": true
          }
        }, {
          "url": "text",
          "valueString": "Hispanic or Latino"
        } ]
      } ],
      "identifier": [ {
        "type": {
          "coding": [ {
            "system": "http://terminology.hl7.org/CodeSystem/v2-0203",
            "code": "MR"
          } ]
        },
        "system": "https://bonnie-fhir.healthit.gov/",
        "value": "62fd2b3d32e2f917c3627d86"
      } ],
      "name": [ {
        "family": "DENOMPass",
        "given": [ "MostRecentPSALessThan10" ]
      } ],
      "gender": "male",
      "birthDate": "2000-01-01"
    }
  }, {
    "fullUrl": "https://madie.cms.gov/Condition/b9b89d51-ba5b-4f56-a01c-0f2a26b978aa",
    "resource": {
      "resourceType": "Condition",
      "id": "b9b89d51-ba5b-4f56-a01c-0f2a26b978aa",
      "meta": {
        "profile": [ "http://hl7.org/fhir/us/qicore/StructureDefinition/qicore-condition-problems-health-concerns" ]
      },
      "clinicalStatus": {
        "coding": [ {
          "system": "http://terminology.hl7.org/CodeSystem/condition-clinical",
          "code": "active",
          "display": "active",
          "userSelected": true
        } ]
      },
      "category": [ {
        "coding": [ {
          "system": "http://terminology.hl7.org/CodeSystem/condition-category",
          "code": "problem-list-item",
          "display": "Problem List Item"
        }, {
          "system": "http://snomed.info/sct",
          "code": "439401001",
          "display": "Diagnosis"
        } ]
      } ],
      "code": {
        "coding": [ {
          "system": "http://snomed.info/sct",
          "code": "254900004",
          "display": "Carcinoma of prostate (disorder)",
          "userSelected": true
        } ]
      },
      "subject": {
        "reference": "Patient/a5ee17bd-75d5-4cdc-b2eb-bf22014b7ba6"
      },
      "onsetPeriod": {
        "start": "2008-06-14T08:00:00.000+00:00"
      }
    }
  }, {
    "fullUrl": "https://madie.cms.gov/Procedure/ec130914-5090-4281-9867-ff8f191050ac",
    "resource": {
      "resourceType": "Procedure",
      "id": "ec130914-5090-4281-9867-ff8f191050ac",
      "meta": {
        "profile": [ "http://hl7.org/fhir/us/qicore/StructureDefinition/qicore-procedure" ]
      },
      "extension": [ {
        "url": "http://hl7.org/fhir/us/qicore/StructureDefinition/qicore-recorded",
        "valueDateTime": "2026-02-01T09:00:00.000+00:00"
      } ],
      "status": "completed",
      "code": {
        "coding": [ {
          "system": "http://snomed.info/sct",
          "code": "38915000",
          "display": "Radionuclide therapy for gland ablation (procedure)",
          "userSelected": true
        } ]
      },
      "subject": {
        "reference": "Patient/a5ee17bd-75d5-4cdc-b2eb-bf22014b7ba6"
      },
      "performedDateTime": "2026-04-28T08:00:00.000+00:00"
    }
  }, {
    "fullUrl": "https://madie.cms.gov/Observation/b549f633-49df-404d-82fd-09c7e5667c2e",
    "resource": {
      "resourceType": "Observation",
      "id": "b549f633-49df-404d-82fd-09c7e5667c2e",
      "meta": {
        "profile": [ "http://hl7.org/fhir/us/qicore/StructureDefinition/qicore-observation-lab" ]
      },
      "status": "final",
      "category": [ {
        "coding": [ {
          "system": "http://terminology.hl7.org/CodeSystem/observation-category",
          "code": "laboratory",
          "display": "Laboratory"
        } ]
      } ],
      "code": {
        "coding": [ {
          "system": "http://loinc.org",
          "version": "2.72",
          "code": "2857-1",
          "display": "Prostate specific Ag [Mass/volume] in Serum or Plasma",
          "userSelected": true
        } ]
      },
      "subject": {
        "reference": "Patient/a5ee17bd-75d5-4cdc-b2eb-bf22014b7ba6"
      },
      "effectiveDateTime": "2026-04-24T08:00:00.000+00:00",
      "valueQuantity": {
        "value": 8,
        "system": "http://unitsofmeasure.org",
        "code": "ng/mL"
      }
    }
  }, {
    "fullUrl": "https://madie.cms.gov/Observation/4dca0cc2-d8d3-44be-a2ca-da384377af90",
    "resource": {
      "resourceType": "Observation",
      "id": "4dca0cc2-d8d3-44be-a2ca-da384377af90",
      "meta": {
        "profile": [ "http://hl7.org/fhir/us/qicore/StructureDefinition/qicore-observation-clinical-result" ]
      },
      "status": "final",
      "category": [ {
        "coding": [ {
          "system": "http://terminology.hl7.org/CodeSystem/observation-category",
          "code": "procedure",
          "display": "Procedure"
        } ]
      } ],
      "code": {
        "coding": [ {
          "system": "http://loinc.org",
          "code": "35266-6",
          "display": "Gleason score in Specimen Qualitative",
          "userSelected": true
        } ]
      },
      "subject": {
        "reference": "Patient/a5ee17bd-75d5-4cdc-b2eb-bf22014b7ba6"
      },
      "effectiveDateTime": "2026-01-02T08:00:00.000+00:00",
      "valueInteger": 5
    }
  }, {
    "fullUrl": "https://madie.cms.gov/Observation/5c1ae7d1-b1fc-41b2-bfac-38c7ac884679",
    "resource": {
      "resourceType": "Observation",
      "id": "5c1ae7d1-b1fc-41b2-bfac-38c7ac884679",
      "meta": {
        "profile": [ "http://hl7.org/fhir/us/qicore/StructureDefinition/qicore-observation-clinical-result" ]
      },
      "status": "final",
      "category": [ {
        "coding": [ {
          "system": "http://terminology.hl7.org/CodeSystem/observation-category",
          "code": "procedure",
          "display": "Procedure"
        } ]
      } ],
      "code": {
        "coding": [ {
          "system": "http://snomed.info/sct",
          "code": "254292007",
          "display": "Tumor staging (tumor staging)",
          "userSelected": true
        } ]
      },
      "subject": {
        "reference": "Patient/a5ee17bd-75d5-4cdc-b2eb-bf22014b7ba6"
      },
      "focus": [ {
        "reference": "Condition/b9b89d51-ba5b-4f56-a01c-0f2a26b978aa"
      } ],
      "effectiveDateTime": "2026-04-26T08:00:00.000+00:00",
      "valueCodeableConcept": {
        "coding": [ {
          "system": "http://snomed.info/sct",
          "code": "1228931008",
          "display": "American Joint Committee on Cancer cT2a (qualifier value)",
          "userSelected": true
        } ]
      }
    }
  }, {
    "fullUrl": "https://madie.cms.gov/Observation/d62ae935-dac0-4fe8-9f3e-a6cbad342eca",
    "resource": {
      "resourceType": "Observation",
      "id": "d62ae935-dac0-4fe8-9f3e-a6cbad342eca",
      "meta": {
        "profile": [ "http://hl7.org/fhir/us/qicore/StructureDefinition/qicore-observation-clinical-result" ]
      },
      "status": "final",
      "category": [ {
        "coding": [ {
          "system": "http://terminology.hl7.org/CodeSystem/observation-category",
          "code": "procedure",
          "display": "Procedure"
        } ]
      } ],
      "code": {
        "coding": [ {
          "system": "http://loinc.org",
          "version": "2.72",
          "code": "25031-6",
          "display": "NM Bone Views",
          "userSelected": true
        } ]
      },
      "subject": {
        "reference": "Patient/a5ee17bd-75d5-4cdc-b2eb-bf22014b7ba6"
      },
      "effectiveDateTime": "2026-08-17T08:00:00.000+00:00",
      "issued": "2026-08-17T08:00:00.000+00:00",
      "valueString": "Normal results found"
    }
  }, {
    "fullUrl": "https://madie.cms.gov/Observation/0154f6d1-9b81-49da-aeda-c5d4a4a66db8",
    "resource": {
      "resourceType": "Observation",
      "id": "0154f6d1-9b81-49da-aeda-c5d4a4a66db8",
      "meta": {
        "profile": [ "http://hl7.org/fhir/us/qicore/StructureDefinition/qicore-observation-lab" ]
      },
      "status": "final",
      "category": [ {
        "coding": [ {
          "system": "http://terminology.hl7.org/CodeSystem/observation-category",
          "code": "laboratory",
          "display": "Laboratory"
        } ]
      } ],
      "code": {
        "coding": [ {
          "system": "http://loinc.org",
          "version": "2.72",
          "code": "2857-1",
          "display": "Prostate specific Ag [Mass/volume] in Serum or Plasma",
          "userSelected": true
        } ]
      },
      "subject": {
        "reference": "Patient/a5ee17bd-75d5-4cdc-b2eb-bf22014b7ba6"
      },
      "effectiveDateTime": "2024-12-31T08:00:00.000+00:00",
      "valueQuantity": {
        "value": 15,
        "system": "http://unitsofmeasure.org",
        "code": "ng/mL"
      }
    }
  }, {
    "fullUrl": "https://madie.cms.gov/Coverage/54e2c8dd-3a27-4a1d-bf37-0e41a1c9bcf4",
    "resource": {
      "resourceType": "Coverage",
      "id": "54e2c8dd-3a27-4a1d-bf37-0e41a1c9bcf4",
      "meta": {
        "profile": [ "http://hl7.org/fhir/us/qicore/StructureDefinition/qicore-coverage" ]
      },
      "status": "active",
      "subscriberId": "123456789",
      "beneficiary": {
        "reference": "Patient/a5ee17bd-75d5-4cdc-b2eb-bf22014b7ba6"
      },
      "relationship": {
        "coding": [ {
          "system": "http://terminology.hl7.org/CodeSystem/subscriber-relationship",
          "code": "self",
          "display": "Self",
          "userSelected": true
        } ]
      },
      "payor": [ {
        "reference": "Organization/ebd5817e-6b65-47b5-82bb-eed7fa20dad8"
      } ]
    }
  }, {
    "fullUrl": "https://madie.cms.gov/Organization/ebd5817e-6b65-47b5-82bb-eed7fa20dad8",
    "resource": {
      "resourceType": "Organization",
      "id": "ebd5817e-6b65-47b5-82bb-eed7fa20dad8",
      "meta": {
        "profile": [ "http://hl7.org/fhir/us/qicore/StructureDefinition/qicore-organization" ]
      },
      "identifier": [ {
        "use": "temp",
        "system": "urn:oid:2.16.840.1.113883.4.4",
        "value": "21-3259825"
      } ],
      "active": true,
      "type": [ {
        "coding": [ {
          "system": "http://terminology.hl7.org/CodeSystem/organization-type",
          "code": "pay",
          "display": "Payer"
        } ]
      } ],
      "name": "Blue Cross Blue Shield of Texas",
      "telecom": [ {
        "system": "phone",
        "value": "(+1) 972-766-6900"
      } ],
      "address": [ {
        "use": "billing",
        "type": "postal",
        "line": [ "P.O. Box 660044" ],
        "city": "Dallas",
        "state": "TX",
        "postalCode": "75266-0044",
        "country": "USA"
      } ]
    }
  }, {
    "fullUrl": "https://madie.cms.gov/Practitioner/fed48c45-0ba9-4e99-9f0c-14d9c438bf22",
    "resource": {
      "resourceType": "Practitioner",
      "id": "fed48c45-0ba9-4e99-9f0c-14d9c438bf22",
      "meta": {
        "profile": [ "http://hl7.org/fhir/us/qicore/StructureDefinition/qicore-practitioner" ]
      },
      "identifier": [ {
        "system": "http://hl7.org/fhir/sid/us-npi",
        "value": "1234567893"
      } ],
      "name": [ {
        "family": "Evil",
        "prefix": [ "Dr" ]
      } ]
    }
  }, {
    "fullUrl": "https://madie.cms.gov/MeasureReport/faa30c3a-40c9-4393-a94a-158e33d34bcc",
    "resource": {
      "resourceType": "MeasureReport",
      "id": "faa30c3a-40c9-4393-a94a-158e33d34bcc",
      "meta": {
        "profile": [ "http://hl7.org/fhir/us/cqfmeasures/StructureDefinition/test-case-cqfm" ]
      },
      "contained": [ {
        "resourceType": "Parameters",
        "id": "b20d331b-c084-4ad5-b7be-afb94f5f95d7-parameters",
        "parameter": [ {
          "name": "subject",
          "valueString": "a5ee17bd-75d5-4cdc-b2eb-bf22014b7ba6"
        } ]
      } ],
      "extension": [ {
        "url": "http://hl7.org/fhir/StructureDefinition/cqf-inputParameters",
        "valueReference": {
          "reference": "#b20d331b-c084-4ad5-b7be-afb94f5f95d7-parameters"
        }
      }, {
        "url": "http://hl7.org/fhir/us/cqfmeasures/StructureDefinition/cqfm-testCaseDescription",
        "valueMarkdown": "Active Prostate Ca Diagnosis and meets all other denominator criteria (first treatment, tumor staging, PSA test, Gleason). Testing multiple PSA results with most recent  less than 10."
      } ],
      "modifierExtension": [ {
        "url": "http://hl7.org/fhir/us/cqfmeasures/StructureDefinition/cqfm-isTestCase",
        "valueBoolean": true
      } ],
      "status": "complete",
      "type": "individual",
      "measure": "https://madie.cms.gov/Measure/CMS129FHIRProstCaBoneScanUse",
      "period": {
        "start": "2026-01-01",
        "end": "2026-12-31"
      },
      "group": [ {
        "id": "Group_1",
        "population": [ {
          "id": "InitialPopulation_1",
          "code": {
            "coding": [ {
              "system": "http://terminology.hl7.org/CodeSystem/measure-population",
              "code": "initial-population",
              "display": "Initial Population"
            } ]
          },
          "count": 1
        }, {
          "id": "Denominator_1",
          "code": {
            "coding": [ {
              "system": "http://terminology.hl7.org/CodeSystem/measure-population",
              "code": "denominator",
              "display": "Denominator"
            } ]
          },
          "count": 1
        }, {
          "id": "Numerator_1",
          "code": {
            "coding": [ {
              "system": "http://terminology.hl7.org/CodeSystem/measure-population",
              "code": "numerator",
              "display": "Numerator"
            } ]
          },
          "count": 0
        }, {
          "id": "DenominatorException_1",
          "code": {
            "coding": [ {
              "system": "http://terminology.hl7.org/CodeSystem/measure-population",
              "code": "denominator-exception",
              "display": "Denominator Exception"
            } ]
          },
          "count": 0
        } ],
        "measureScore": {
          "value": 1.0
        }
      } ],
      "evaluatedResource": [ {
        "reference": "Patient/a5ee17bd-75d5-4cdc-b2eb-bf22014b7ba6"
      }, {
        "reference": "Condition/b9b89d51-ba5b-4f56-a01c-0f2a26b978aa"
      }, {
        "reference": "Procedure/ec130914-5090-4281-9867-ff8f191050ac"
      }, {
        "reference": "Observation/b549f633-49df-404d-82fd-09c7e5667c2e"
      }, {
        "reference": "Observation/4dca0cc2-d8d3-44be-a2ca-da384377af90"
      }, {
        "reference": "Observation/5c1ae7d1-b1fc-41b2-bfac-38c7ac884679"
      }, {
        "reference": "Observation/d62ae935-dac0-4fe8-9f3e-a6cbad342eca"
      }, {
        "reference": "Observation/0154f6d1-9b81-49da-aeda-c5d4a4a66db8"
      }, {
        "reference": "Coverage/54e2c8dd-3a27-4a1d-bf37-0e41a1c9bcf4"
      }, {
        "reference": "Organization/ebd5817e-6b65-47b5-82bb-eed7fa20dad8"
      }, {
        "reference": "Practitioner/fed48c45-0ba9-4e99-9f0c-14d9c438bf22"
      } ]
    }
  } ]
}