{
  "resourceType": "Bundle",
  "id": "6323489059967e30c06d0774",
  "type": "transaction",
  "entry": [ {
    "fullUrl": "https://madie.cms.gov/Patient/412e213e-a1ef-4e5d-ac46-fa7e741cf160",
    "resource": {
      "resourceType": "Patient",
      "id": "412e213e-a1ef-4e5d-ac46-fa7e741cf160",
      "meta": {
        "profile": [ "http://hl7.org/fhir/us/qicore/StructureDefinition/qicore-patient" ]
      },
      "extension": [ {
        "url": "http://hl7.org/fhir/us/core/StructureDefinition/us-core-race",
        "extension": [ {
          "url": "ombCategory",
          "valueCoding": {
            "system": "urn:oid:2.16.840.1.113883.6.238",
            "code": "1002-5",
            "display": "American Indian or Alaska Native",
            "userSelected": true
          }
        }, {
          "url": "text",
          "valueString": "American Indian or Alaska Native"
        } ]
      }, {
        "url": "http://hl7.org/fhir/us/core/StructureDefinition/us-core-ethnicity",
        "extension": [ {
          "url": "ombCategory",
          "valueCoding": {
            "system": "urn:oid:2.16.840.1.113883.6.238",
            "code": "2135-2",
            "display": "Hispanic or Latino",
            "userSelected": true
          }
        }, {
          "url": "text",
          "valueString": "Hispanic or Latino"
        } ]
      } ],
      "identifier": [ {
        "system": "http://hospital.smarthealthit.org",
        "value": "999999999"
      } ],
      "name": [ {
        "family": "NUMERPass",
        "given": [ "2OpioidsLastMinuteOfMP" ]
      } ],
      "gender": "male",
      "birthDate": "2006-09-15"
    },
    "request": {
      "method": "PUT",
      "url": "Patient/412e213e-a1ef-4e5d-ac46-fa7e741cf160"
    }
  }, {
    "fullUrl": "https://madie.cms.gov/Encounter/fd3c7024-bc4f-4432-a74f-c52db72b0327",
    "resource": {
      "resourceType": "Encounter",
      "id": "fd3c7024-bc4f-4432-a74f-c52db72b0327",
      "meta": {
        "profile": [ "http://hl7.org/fhir/us/qicore/StructureDefinition/qicore-encounter" ]
      },
      "status": "finished",
      "class": {
        "system": "http://terminology.hl7.org/CodeSystem/v3-ActCode",
        "code": "IMP",
        "display": "inpatient encounter"
      },
      "type": [ {
        "coding": [ {
          "system": "http://snomed.info/sct",
          "code": "183452005",
          "display": "Emergency hospital admission (procedure)",
          "userSelected": true
        } ]
      } ],
      "subject": {
        "reference": "Patient/412e213e-a1ef-4e5d-ac46-fa7e741cf160"
      },
      "period": {
        "start": "2026-12-30T00:30:00.000+00:00",
        "end": "2026-12-31T23:59:00.000+00:00"
      }
    },
    "request": {
      "method": "PUT",
      "url": "Encounter/fd3c7024-bc4f-4432-a74f-c52db72b0327"
    }
  }, {
    "fullUrl": "https://madie.cms.gov/MedicationRequest/f5d0eaf7-4ae1-4e98-b495-dc7a1f5d1642",
    "resource": {
      "resourceType": "MedicationRequest",
      "id": "f5d0eaf7-4ae1-4e98-b495-dc7a1f5d1642",
      "meta": {
        "profile": [ "http://hl7.org/fhir/us/qicore/StructureDefinition/qicore-medicationrequest" ]
      },
      "status": "active",
      "intent": "order",
      "category": [ {
        "coding": [ {
          "system": "http://terminology.hl7.org/CodeSystem/medicationrequest-category",
          "code": "discharge",
          "display": "Discharge",
          "userSelected": true
        } ]
      } ],
      "doNotPerform": false,
      "medicationCodeableConcept": {
        "coding": [ {
          "system": "http://www.nlm.nih.gov/research/umls/rxnorm",
          "code": "1014632",
          "display": "acetaminophen 300 MG / oxycodone hydrochloride 7.5 MG Oral Tablet",
          "userSelected": true
        } ]
      },
      "subject": {
        "reference": "Patient/412e213e-a1ef-4e5d-ac46-fa7e741cf160"
      },
      "authoredOn": "2026-12-31T23:59:00.000+00:00",
      "requester": {
        "reference": "Practitioner/7f853f37-f61e-400f-b890-7a9b392f2fdb"
      }
    },
    "request": {
      "method": "PUT",
      "url": "MedicationRequest/f5d0eaf7-4ae1-4e98-b495-dc7a1f5d1642"
    }
  }, {
    "fullUrl": "https://madie.cms.gov/Practitioner/7f853f37-f61e-400f-b890-7a9b392f2fdb",
    "resource": {
      "resourceType": "Practitioner",
      "id": "7f853f37-f61e-400f-b890-7a9b392f2fdb",
      "meta": {
        "profile": [ "http://hl7.org/fhir/us/qicore/StructureDefinition/qicore-practitioner" ]
      },
      "identifier": [ {
        "system": "http://hl7.org/fhir/sid/us-npi",
        "value": "9999999896"
      } ],
      "active": true,
      "name": [ {
        "family": "Ramires",
        "given": [ "Alma" ],
        "prefix": [ "Dr" ]
      } ],
      "address": [ {
        "use": "home",
        "line": [ "534 Erewhon St" ],
        "city": "Netherville",
        "state": "IN",
        "postalCode": "46131"
      } ],
      "qualification": [ {
        "identifier": [ {
          "system": "http://goodhealth.org/prIdentifier",
          "value": "12345"
        } ],
        "code": {
          "coding": [ {
            "system": "http://terminology.hl7.org/CodeSystem/v2-0360|2.7",
            "code": "BS",
            "display": "Bachelor of Science"
          } ],
          "text": "Bachelor of Science"
        },
        "period": {
          "start": "1995"
        },
        "issuer": {
          "display": "Example University"
        }
      } ]
    },
    "request": {
      "method": "PUT",
      "url": "Practitioner/7f853f37-f61e-400f-b890-7a9b392f2fdb"
    }
  }, {
    "fullUrl": "https://madie.cms.gov/MedicationRequest/5ce1aa6b-345a-4296-81da-419f06511cb4",
    "resource": {
      "resourceType": "MedicationRequest",
      "id": "5ce1aa6b-345a-4296-81da-419f06511cb4",
      "meta": {
        "profile": [ "http://hl7.org/fhir/us/qicore/StructureDefinition/qicore-medicationrequest" ]
      },
      "status": "active",
      "intent": "order",
      "category": [ {
        "coding": [ {
          "system": "http://terminology.hl7.org/CodeSystem/medicationrequest-category",
          "code": "discharge",
          "display": "Discharge",
          "userSelected": true
        } ]
      } ],
      "doNotPerform": false,
      "medicationCodeableConcept": {
        "coding": [ {
          "system": "http://www.nlm.nih.gov/research/umls/rxnorm",
          "code": "863845",
          "display": "Abuse-Deterrent morphine sulfate 100 MG / naltrexone hydrochloride 4 MG Extended Release Oral Capsule",
          "userSelected": true
        } ]
      },
      "subject": {
        "reference": "Patient/412e213e-a1ef-4e5d-ac46-fa7e741cf160"
      },
      "authoredOn": "2026-12-31T23:59:00.000+00:00",
      "requester": {
        "reference": "Practitioner/7f853f37-f61e-400f-b890-7a9b392f2fdb"
      }
    },
    "request": {
      "method": "PUT",
      "url": "MedicationRequest/5ce1aa6b-345a-4296-81da-419f06511cb4"
    }
  }, {
    "fullUrl": "https://madie.cms.gov/Coverage/3736f8ac-c59d-44ee-b530-8204ac781604",
    "resource": {
      "resourceType": "Coverage",
      "id": "3736f8ac-c59d-44ee-b530-8204ac781604",
      "meta": {
        "profile": [ "http://hl7.org/fhir/us/qicore/StructureDefinition/qicore-coverage" ]
      },
      "status": "active",
      "subscriberId": "523435",
      "beneficiary": {
        "reference": "Patient/412e213e-a1ef-4e5d-ac46-fa7e741cf160"
      },
      "relationship": {
        "coding": [ {
          "system": "http://terminology.hl7.org/CodeSystem/subscriber-relationship",
          "code": "self"
        } ]
      },
      "payor": [ {
        "reference": "Organization/277d8609-9276-427e-9884-00c44486478d"
      } ]
    },
    "request": {
      "method": "PUT",
      "url": "Coverage/3736f8ac-c59d-44ee-b530-8204ac781604"
    }
  }, {
    "fullUrl": "https://madie.cms.gov/Organization/277d8609-9276-427e-9884-00c44486478d",
    "resource": {
      "resourceType": "Organization",
      "id": "277d8609-9276-427e-9884-00c44486478d",
      "meta": {
        "profile": [ "http://hl7.org/fhir/us/qicore/StructureDefinition/qicore-organization" ]
      },
      "identifier": [ {
        "use": "temp",
        "system": "urn:oid:2.16.840.1.113883.4.4",
        "value": "21-3259825"
      } ],
      "active": true,
      "type": [ {
        "coding": [ {
          "system": "http://terminology.hl7.org/CodeSystem/organization-type",
          "code": "pay",
          "display": "Payer"
        } ]
      } ],
      "name": "Blue Cross Blue Shield of Texas",
      "telecom": [ {
        "system": "phone",
        "value": "(+1) 972-766-6900"
      } ],
      "address": [ {
        "use": "billing",
        "type": "postal",
        "line": [ "P.O. Box 660044" ],
        "city": "Dallas",
        "state": "TX",
        "postalCode": "75266-0044",
        "country": "USA"
      } ]
    },
    "request": {
      "method": "PUT",
      "url": "Organization/277d8609-9276-427e-9884-00c44486478d"
    }
  }, {
    "fullUrl": "https://madie.cms.gov/MeasureReport/e5384992-54b7-490f-a1f5-c0f20512fad0",
    "resource": {
      "resourceType": "MeasureReport",
      "id": "e5384992-54b7-490f-a1f5-c0f20512fad0",
      "meta": {
        "profile": [ "http://hl7.org/fhir/us/cqfmeasures/StructureDefinition/test-case-cqfm" ]
      },
      "contained": [ {
        "resourceType": "Parameters",
        "id": "030d064b-d0d4-4708-a7b9-10c3c29dcae8-parameters",
        "parameter": [ {
          "name": "subject",
          "valueString": "412e213e-a1ef-4e5d-ac46-fa7e741cf160"
        } ]
      } ],
      "extension": [ {
        "url": "http://hl7.org/fhir/StructureDefinition/cqf-inputParameters",
        "valueReference": {
          "reference": "#030d064b-d0d4-4708-a7b9-10c3c29dcae8-parameters"
        }
      }, {
        "url": "http://hl7.org/fhir/us/cqfmeasures/StructureDefinition/cqfm-testCaseDescription",
        "valueMarkdown": "Encounter last days of MP, opioid prescribed 12/31 @23:59"
      } ],
      "modifierExtension": [ {
        "url": "http://hl7.org/fhir/us/cqfmeasures/StructureDefinition/cqfm-isTestCase",
        "valueBoolean": true
      } ],
      "status": "complete",
      "type": "individual",
      "measure": "https://madie.cms.gov/Measure/CMS506FHIRSafeUseofOpioids",
      "period": {
        "start": "2026-01-01",
        "end": "2026-12-31"
      },
      "group": [ {
        "id": "Group_1",
        "population": [ {
          "id": "InitialPopulation_1",
          "code": {
            "coding": [ {
              "system": "http://terminology.hl7.org/CodeSystem/measure-population",
              "code": "initial-population",
              "display": "Initial Population"
            } ]
          },
          "count": 1
        }, {
          "id": "Denominator_1",
          "code": {
            "coding": [ {
              "system": "http://terminology.hl7.org/CodeSystem/measure-population",
              "code": "denominator",
              "display": "Denominator"
            } ]
          },
          "count": 1
        }, {
          "id": "DenominatorExclusion_1",
          "code": {
            "coding": [ {
              "system": "http://terminology.hl7.org/CodeSystem/measure-population",
              "code": "denominator-exclusion",
              "display": "Denominator Exclusion"
            } ]
          },
          "count": 0
        }, {
          "id": "Numerator_1",
          "code": {
            "coding": [ {
              "system": "http://terminology.hl7.org/CodeSystem/measure-population",
              "code": "numerator",
              "display": "Numerator"
            } ]
          },
          "count": 1
        } ],
        "measureScore": {
          "value": 0.0
        }
      } ],
      "evaluatedResource": [ {
        "reference": "Patient/412e213e-a1ef-4e5d-ac46-fa7e741cf160"
      }, {
        "reference": "Encounter/fd3c7024-bc4f-4432-a74f-c52db72b0327"
      }, {
        "reference": "MedicationRequest/f5d0eaf7-4ae1-4e98-b495-dc7a1f5d1642"
      }, {
        "reference": "Practitioner/7f853f37-f61e-400f-b890-7a9b392f2fdb"
      }, {
        "reference": "MedicationRequest/5ce1aa6b-345a-4296-81da-419f06511cb4"
      }, {
        "reference": "Coverage/3736f8ac-c59d-44ee-b530-8204ac781604"
      }, {
        "reference": "Organization/277d8609-9276-427e-9884-00c44486478d"
      } ]
    },
    "request": {
      "method": "PUT",
      "url": "MeasureReport/e5384992-54b7-490f-a1f5-c0f20512fad0"
    }
  } ]
}