{
  "resourceType": "Bundle",
  "id": "633b3f9f0968f80122503cdb",
  "type": "transaction",
  "entry": [ {
    "fullUrl": "https://madie.cms.gov/Patient/d73a14c5-a372-43bc-ad7c-d888e5b4bab7",
    "resource": {
      "resourceType": "Patient",
      "id": "d73a14c5-a372-43bc-ad7c-d888e5b4bab7",
      "meta": {
        "profile": [ "http://hl7.org/fhir/us/qicore/StructureDefinition/qicore-patient" ]
      },
      "text": {
        "status": "generated",
        "div": "<div xmlns=\"http://www.w3.org/1999/xhtml\"><div class=\"hapiHeaderText\">CardConvergTrachORVentProc<b>NUMERPass</b></div><table class=\"hapiPropertyTable\"><tbody><tr><td>Date of birth</td><td><span>01 February 2004</span></td></tr></tbody></table></div>"
      },
      "extension": [ {
        "url": "http://hl7.org/fhir/us/core/StructureDefinition/us-core-race",
        "extension": [ {
          "url": "ombCategory",
          "valueCoding": {
            "system": "urn:oid:2.16.840.1.113883.6.238",
            "code": "1002-5",
            "display": "American Indian or Alaska Native",
            "userSelected": true
          }
        }, {
          "url": "text",
          "valueString": "American Indian or Alaska Native"
        } ]
      }, {
        "url": "http://hl7.org/fhir/us/core/StructureDefinition/us-core-ethnicity",
        "extension": [ {
          "url": "ombCategory",
          "valueCoding": {
            "system": "urn:oid:2.16.840.1.113883.6.238",
            "code": "2135-2",
            "display": "Hispanic or Latino",
            "userSelected": true
          }
        }, {
          "url": "text",
          "valueString": "Hispanic or Latino"
        } ]
      } ],
      "identifier": [ {
        "type": {
          "coding": [ {
            "system": "http://terminology.hl7.org/CodeSystem/v2-0203",
            "code": "MR"
          } ]
        },
        "system": "https://bonnie-fhir.healthit.gov/",
        "value": "633b3f9f0968f80122503cdb"
      } ],
      "active": true,
      "name": [ {
        "use": "usual",
        "family": "NUMERPassPass",
        "given": [ "CardConvergTrachORVentProc" ]
      } ],
      "gender": "female",
      "birthDate": "2005-02-01"
    },
    "request": {
      "method": "PUT",
      "url": "Patient/d73a14c5-a372-43bc-ad7c-d888e5b4bab7"
    }
  }, {
    "fullUrl": "https://madie.cms.gov/Observation/ba5eca6b-53c6-4ee1-80de-12e213331212",
    "resource": {
      "resourceType": "Observation",
      "id": "ba5eca6b-53c6-4ee1-80de-12e213331212",
      "meta": {
        "profile": [ "http://hl7.org/fhir/us/qicore/StructureDefinition/qicore-simple-observation" ]
      },
      "status": "final",
      "category": [ {
        "coding": [ {
          "system": "http://terminology.hl7.org/CodeSystem/observation-category",
          "code": "exam",
          "display": "exam",
          "userSelected": true
        } ]
      } ],
      "code": {
        "coding": [ {
          "system": "http://loinc.org",
          "code": "93857-1"
        } ]
      },
      "subject": {
        "reference": "Patient/d73a14c5-a372-43bc-ad7c-d888e5b4bab7"
      },
      "effectiveDateTime": "2026-02-01T08:00:00.000+00:00",
      "valueDateTime": "2026-02-01T08:00:00.000+00:00"
    },
    "request": {
      "method": "PUT",
      "url": "Observation/ba5eca6b-53c6-4ee1-80de-12e213331212"
    }
  }, {
    "fullUrl": "https://madie.cms.gov/Observation/d10cbb17-8ee5-4804-bae0-fe095b0181a0",
    "resource": {
      "resourceType": "Observation",
      "id": "d10cbb17-8ee5-4804-bae0-fe095b0181a0",
      "meta": {
        "profile": [ "http://hl7.org/fhir/us/qicore/StructureDefinition/qicore-observation" ]
      },
      "status": "final",
      "category": [ {
        "coding": [ {
          "system": "http://terminology.hl7.org/CodeSystem/observation-category",
          "code": "exam",
          "display": "exam",
          "userSelected": true
        } ]
      } ],
      "code": {
        "coding": [ {
          "system": "http://loinc.org",
          "code": "11884-4"
        } ]
      },
      "subject": {
        "reference": "Patient/d73a14c5-a372-43bc-ad7c-d888e5b4bab7"
      },
      "effectiveDateTime": "2026-02-01T08:00:00.000+00:00",
      "performer": [ {
        "reference": "Organization/example1",
        "display": "Hendricks Country Hospital"
      } ],
      "valueQuantity": {
        "value": 20,
        "system": "http://unitsofmeasure.org",
        "code": "wk"
      }
    },
    "request": {
      "method": "PUT",
      "url": "Observation/d10cbb17-8ee5-4804-bae0-fe095b0181a0"
    }
  }, {
    "fullUrl": "https://madie.cms.gov/Condition/83481e22-2e5f-4259-ba76-fff862cdf1cc",
    "resource": {
      "resourceType": "Condition",
      "id": "83481e22-2e5f-4259-ba76-fff862cdf1cc",
      "meta": {
        "profile": [ "http://hl7.org/fhir/us/qicore/StructureDefinition/qicore-condition-encounter-diagnosis" ]
      },
      "category": [ {
        "coding": [ {
          "system": "http://terminology.hl7.org/CodeSystem/condition-category",
          "code": "encounter-diagnosis",
          "display": "Encounter Diagnosis"
        } ]
      } ],
      "code": {
        "coding": [ {
          "system": "http://hl7.org/fhir/sid/icd-10-cm",
          "version": "2023",
          "code": "Z3A.20",
          "display": "20 weeks gestation",
          "userSelected": true
        } ]
      },
      "subject": {
        "reference": "Patient/d73a14c5-a372-43bc-ad7c-d888e5b4bab7"
      },
      "recordedDate": "2026-10-26T08:00:00.000+00:00"
    },
    "request": {
      "method": "PUT",
      "url": "Condition/83481e22-2e5f-4259-ba76-fff862cdf1cc"
    }
  }, {
    "fullUrl": "https://madie.cms.gov/Encounter/abee7963-fa1a-49d3-b334-6565a788e2f2",
    "resource": {
      "resourceType": "Encounter",
      "id": "abee7963-fa1a-49d3-b334-6565a788e2f2",
      "meta": {
        "profile": [ "http://hl7.org/fhir/us/qicore/StructureDefinition/qicore-encounter" ]
      },
      "status": "finished",
      "class": {
        "system": "http://terminology.hl7.org/CodeSystem/v3-ActCode",
        "code": "IMP",
        "display": "inpatient encounter"
      },
      "type": [ {
        "coding": [ {
          "system": "http://snomed.info/sct",
          "code": "183452005"
        } ]
      } ],
      "subject": {
        "reference": "Patient/d73a14c5-a372-43bc-ad7c-d888e5b4bab7"
      },
      "period": {
        "start": "2026-02-01T08:00:00.000+00:00",
        "end": "2026-02-05T08:15:00.000+00:00"
      },
      "reasonReference": [ {
        "reference": "Condition/83481e22-2e5f-4259-ba76-fff862cdf1cc"
      } ]
    },
    "request": {
      "method": "PUT",
      "url": "Encounter/abee7963-fa1a-49d3-b334-6565a788e2f2"
    }
  }, {
    "fullUrl": "https://madie.cms.gov/Coverage/f06b22cf-99c6-4427-88ba-009b54f676ce",
    "resource": {
      "resourceType": "Coverage",
      "id": "f06b22cf-99c6-4427-88ba-009b54f676ce",
      "status": "active",
      "subscriberId": "523435",
      "beneficiary": {
        "reference": "Patient/d73a14c5-a372-43bc-ad7c-d888e5b4bab7"
      },
      "relationship": {
        "coding": [ {
          "system": "http://terminology.hl7.org/CodeSystem/subscriber-relationship",
          "code": "self"
        } ]
      },
      "period": {
        "start": "2005-02-01T08:00:00.000+00:00"
      },
      "payor": [ {
        "reference": "Organization/98387098-a034-4159-a71d-d6888fa068e1"
      } ]
    },
    "request": {
      "method": "PUT",
      "url": "Coverage/f06b22cf-99c6-4427-88ba-009b54f676ce"
    }
  }, {
    "fullUrl": "https://madie.cms.gov/Procedure/2ead053f-1865-4c59-bca6-9bbebbe3dfb0",
    "resource": {
      "resourceType": "Procedure",
      "id": "2ead053f-1865-4c59-bca6-9bbebbe3dfb0",
      "meta": {
        "profile": [ "http://hl7.org/fhir/us/qicore/StructureDefinition/qicore-procedure" ]
      },
      "extension": [ {
        "url": "http://hl7.org/fhir/us/qicore/StructureDefinition/qicore-recorded",
        "valueDateTime": "2014-04-05T13:35:00.000+00:00"
      } ],
      "status": "completed",
      "code": {
        "coding": [ {
          "system": "http://snomed.info/sct",
          "code": "10745001"
        } ]
      },
      "subject": {
        "reference": "Patient/d73a14c5-a372-43bc-ad7c-d888e5b4bab7"
      },
      "performedPeriod": {
        "start": "2026-02-01T08:00:00.000+00:00",
        "end": "2026-02-05T08:15:00.000+00:00"
      }
    },
    "request": {
      "method": "PUT",
      "url": "Procedure/2ead053f-1865-4c59-bca6-9bbebbe3dfb0"
    }
  }, {
    "fullUrl": "https://madie.cms.gov/Procedure/02eb492b-aa83-4cc5-b981-5e67fc708a73",
    "resource": {
      "resourceType": "Procedure",
      "id": "02eb492b-aa83-4cc5-b981-5e67fc708a73",
      "meta": {
        "profile": [ "http://hl7.org/fhir/us/qicore/StructureDefinition/qicore-procedure" ]
      },
      "extension": [ {
        "url": "http://hl7.org/fhir/us/qicore/StructureDefinition/qicore-recorded",
        "valueDateTime": "2026-02-01T04:01:00.000+00:00"
      } ],
      "status": "completed",
      "code": {
        "coding": [ {
          "system": "http://snomed.info/sct",
          "code": "250041003"
        } ]
      },
      "subject": {
        "reference": "Patient/d73a14c5-a372-43bc-ad7c-d888e5b4bab7"
      },
      "performedPeriod": {
        "start": "2026-02-04T00:00:00.000+00:00",
        "end": "2026-02-04T11:59:00.000+00:00"
      }
    },
    "request": {
      "method": "PUT",
      "url": "Procedure/02eb492b-aa83-4cc5-b981-5e67fc708a73"
    }
  }, {
    "fullUrl": "https://madie.cms.gov/Procedure/74966b03-8f60-4ea9-8a2e-f19476bd5140",
    "resource": {
      "resourceType": "Procedure",
      "id": "74966b03-8f60-4ea9-8a2e-f19476bd5140",
      "meta": {
        "profile": [ "http://hl7.org/fhir/us/qicore/StructureDefinition/qicore-procedure" ]
      },
      "extension": [ {
        "url": "http://hl7.org/fhir/us/qicore/StructureDefinition/qicore-recorded",
        "valueDateTime": "2026-02-01T04:01:00.000+00:00"
      } ],
      "status": "completed",
      "code": {
        "coding": [ {
          "system": "http://www.cms.gov/Medicare/Coding/ICD10",
          "code": "0B114F4",
          "userSelected": true
        } ]
      },
      "subject": {
        "reference": "Patient/d73a14c5-a372-43bc-ad7c-d888e5b4bab7"
      },
      "performedPeriod": {
        "start": "2026-02-04T00:00:00.000+00:00",
        "end": "2026-02-04T11:59:00.000+00:00"
      }
    },
    "request": {
      "method": "PUT",
      "url": "Procedure/74966b03-8f60-4ea9-8a2e-f19476bd5140"
    }
  }, {
    "fullUrl": "https://madie.cms.gov/Procedure/2b0a6861-06ba-408c-955d-62b5c8ec0f04",
    "resource": {
      "resourceType": "Procedure",
      "id": "2b0a6861-06ba-408c-955d-62b5c8ec0f04",
      "meta": {
        "profile": [ "http://hl7.org/fhir/us/qicore/StructureDefinition/qicore-procedure" ]
      },
      "extension": [ {
        "url": "http://hl7.org/fhir/us/qicore/StructureDefinition/qicore-recorded",
        "valueDateTime": "2026-02-01T04:01:00.000+00:00"
      } ],
      "status": "completed",
      "code": {
        "coding": [ {
          "system": "http://www.cms.gov/Medicare/Coding/ICD10",
          "code": "5A1955Z",
          "userSelected": true
        } ]
      },
      "subject": {
        "reference": "Patient/d73a14c5-a372-43bc-ad7c-d888e5b4bab7"
      },
      "performedPeriod": {
        "start": "2026-02-04T00:00:00.000+00:00",
        "end": "2026-02-04T11:59:00.000+00:00"
      }
    },
    "request": {
      "method": "PUT",
      "url": "Procedure/2b0a6861-06ba-408c-955d-62b5c8ec0f04"
    }
  }, {
    "fullUrl": "https://madie.cms.gov/Organization/98387098-a034-4159-a71d-d6888fa068e1",
    "resource": {
      "resourceType": "Organization",
      "id": "98387098-a034-4159-a71d-d6888fa068e1",
      "meta": {
        "profile": [ "http://hl7.org/fhir/us/qicore/StructureDefinition/qicore-organization" ]
      },
      "identifier": [ {
        "use": "temp",
        "system": "urn:oid:2.16.840.1.113883.4.4",
        "value": "21-3259825"
      } ],
      "active": true,
      "type": [ {
        "coding": [ {
          "system": "http://terminology.hl7.org/CodeSystem/organization-type",
          "code": "pay",
          "display": "Payer"
        } ]
      } ],
      "name": "Blue Cross Blue Shield of Texas",
      "telecom": [ {
        "system": "phone",
        "value": "(+1) 972-766-6900"
      } ],
      "address": [ {
        "use": "billing",
        "type": "postal",
        "line": [ "P.O. Box 660044" ],
        "city": "Dallas",
        "state": "TX",
        "postalCode": "75266-0044",
        "country": "USA"
      } ]
    },
    "request": {
      "method": "PUT",
      "url": "Organization/98387098-a034-4159-a71d-d6888fa068e1"
    }
  }, {
    "fullUrl": "https://madie.cms.gov/Practitioner/4a1c690d-48c7-4cb5-9834-5cd3dc6d7a9f",
    "resource": {
      "resourceType": "Practitioner",
      "id": "4a1c690d-48c7-4cb5-9834-5cd3dc6d7a9f",
      "meta": {
        "profile": [ "http://hl7.org/fhir/us/qicore/StructureDefinition/qicore-practitioner" ]
      },
      "identifier": [ {
        "system": "http://hl7.org/fhir/sid/us-npi",
        "value": "9999999896"
      } ],
      "name": [ {
        "family": "Evil",
        "prefix": [ "Dr" ]
      } ]
    },
    "request": {
      "method": "PUT",
      "url": "Practitioner/4a1c690d-48c7-4cb5-9834-5cd3dc6d7a9f"
    }
  }, {
    "fullUrl": "https://madie.cms.gov/MeasureReport/80a89ef3-0079-4ba9-b2cd-a4296bbdf421",
    "resource": {
      "resourceType": "MeasureReport",
      "id": "80a89ef3-0079-4ba9-b2cd-a4296bbdf421",
      "meta": {
        "profile": [ "http://hl7.org/fhir/us/cqfmeasures/StructureDefinition/test-case-cqfm" ]
      },
      "contained": [ {
        "resourceType": "Parameters",
        "id": "f6f3c81c-6263-4c05-802d-7e8d484c759f-parameters",
        "parameter": [ {
          "name": "subject",
          "valueString": "d73a14c5-a372-43bc-ad7c-d888e5b4bab7"
        } ]
      } ],
      "extension": [ {
        "url": "http://hl7.org/fhir/StructureDefinition/cqf-inputParameters",
        "valueReference": {
          "reference": "#f6f3c81c-6263-4c05-802d-7e8d484c759f-parameters"
        }
      }, {
        "url": "http://hl7.org/fhir/us/cqfmeasures/StructureDefinition/cqfm-testCaseDescription",
        "valueMarkdown": "Cardiac Conversion, Tracheostomy, or Ventilation procedures included in numerator"
      } ],
      "modifierExtension": [ {
        "url": "http://hl7.org/fhir/us/cqfmeasures/StructureDefinition/cqfm-isTestCase",
        "valueBoolean": true
      } ],
      "status": "complete",
      "type": "individual",
      "measure": "https://madie.cms.gov/Measure/CMS1028FHIRPCSevereOBComps",
      "period": {
        "start": "2026-01-01",
        "end": "2026-12-31"
      },
      "group": [ {
        "id": "Group_1",
        "population": [ {
          "id": "InitialPopulation_1",
          "code": {
            "coding": [ {
              "system": "http://terminology.hl7.org/CodeSystem/measure-population",
              "code": "initial-population",
              "display": "Initial Population"
            } ]
          },
          "count": 1
        }, {
          "id": "Denominator_1",
          "code": {
            "coding": [ {
              "system": "http://terminology.hl7.org/CodeSystem/measure-population",
              "code": "denominator",
              "display": "Denominator"
            } ]
          },
          "count": 1
        }, {
          "id": "Numerator_1",
          "code": {
            "coding": [ {
              "system": "http://terminology.hl7.org/CodeSystem/measure-population",
              "code": "numerator",
              "display": "Numerator"
            } ]
          },
          "count": 1
        }, {
          "id": "NumeratorExclusion_1",
          "code": {
            "coding": [ {
              "system": "http://terminology.hl7.org/CodeSystem/measure-population",
              "code": "numerator-exclusion",
              "display": "Numerator Exclusion"
            } ]
          },
          "count": 0
        } ],
        "measureScore": {
          "value": 0.0
        }
      }, {
        "id": "Group_2",
        "population": [ {
          "id": "InitialPopulation_2",
          "code": {
            "coding": [ {
              "system": "http://terminology.hl7.org/CodeSystem/measure-population",
              "code": "initial-population",
              "display": "Initial Population"
            } ]
          },
          "count": 1
        }, {
          "id": "Denominator_2",
          "code": {
            "coding": [ {
              "system": "http://terminology.hl7.org/CodeSystem/measure-population",
              "code": "denominator",
              "display": "Denominator"
            } ]
          },
          "count": 1
        }, {
          "id": "Numerator_2",
          "code": {
            "coding": [ {
              "system": "http://terminology.hl7.org/CodeSystem/measure-population",
              "code": "numerator",
              "display": "Numerator"
            } ]
          },
          "count": 1
        }, {
          "id": "NumeratorExclusion_2",
          "code": {
            "coding": [ {
              "system": "http://terminology.hl7.org/CodeSystem/measure-population",
              "code": "numerator-exclusion",
              "display": "Numerator Exclusion"
            } ]
          },
          "count": 0
        } ],
        "measureScore": {
          "value": 0.0
        }
      } ],
      "evaluatedResource": [ {
        "reference": "Patient/d73a14c5-a372-43bc-ad7c-d888e5b4bab7"
      }, {
        "reference": "Observation/ba5eca6b-53c6-4ee1-80de-12e213331212"
      }, {
        "reference": "Observation/d10cbb17-8ee5-4804-bae0-fe095b0181a0"
      }, {
        "reference": "Condition/83481e22-2e5f-4259-ba76-fff862cdf1cc"
      }, {
        "reference": "Encounter/abee7963-fa1a-49d3-b334-6565a788e2f2"
      }, {
        "reference": "Coverage/f06b22cf-99c6-4427-88ba-009b54f676ce"
      }, {
        "reference": "Procedure/2ead053f-1865-4c59-bca6-9bbebbe3dfb0"
      }, {
        "reference": "Procedure/02eb492b-aa83-4cc5-b981-5e67fc708a73"
      }, {
        "reference": "Procedure/74966b03-8f60-4ea9-8a2e-f19476bd5140"
      }, {
        "reference": "Procedure/2b0a6861-06ba-408c-955d-62b5c8ec0f04"
      }, {
        "reference": "Organization/98387098-a034-4159-a71d-d6888fa068e1"
      }, {
        "reference": "Practitioner/4a1c690d-48c7-4cb5-9834-5cd3dc6d7a9f"
      } ]
    },
    "request": {
      "method": "PUT",
      "url": "MeasureReport/80a89ef3-0079-4ba9-b2cd-a4296bbdf421"
    }
  } ]
}