{
  "resourceType": "Bundle",
  "id": "61168b8798086b77ef9c5ed7",
  "type": "collection",
  "entry": [ {
    "fullUrl": "https://madie.cms.gov/Patient/380d6e3a-1fc1-474c-a8f3-8e6ba4f0dd42",
    "resource": {
      "resourceType": "Patient",
      "id": "380d6e3a-1fc1-474c-a8f3-8e6ba4f0dd42",
      "meta": {
        "profile": [ "http://hl7.org/fhir/us/qicore/StructureDefinition/qicore-patient" ]
      },
      "extension": [ {
        "url": "http://hl7.org/fhir/us/core/StructureDefinition/us-core-race",
        "extension": [ {
          "url": "ombCategory",
          "valueCoding": {
            "system": "urn:oid:2.16.840.1.113883.6.238",
            "code": "2106-3",
            "display": "White"
          }
        }, {
          "url": "detailed",
          "valueCoding": {
            "system": "urn:oid:2.16.840.1.113883.6.238",
            "code": "2036-2",
            "display": "Filipino"
          }
        }, {
          "url": "text",
          "valueString": "White"
        } ]
      }, {
        "url": "http://hl7.org/fhir/us/core/StructureDefinition/us-core-ethnicity",
        "extension": [ {
          "url": "ombCategory",
          "valueCoding": {
            "system": "urn:oid:2.16.840.1.113883.6.238",
            "code": "2186-5",
            "display": "Not Hispanic or Latino",
            "userSelected": true
          }
        }, {
          "url": "detailed",
          "valueCoding": {
            "system": "urn:oid:2.16.840.1.113883.6.238",
            "code": "1586-7",
            "display": "Shoshone"
          }
        }, {
          "url": "text",
          "valueString": "Not Hispanic or Latino"
        } ]
      } ],
      "identifier": [ {
        "type": {
          "coding": [ {
            "system": "http://terminology.hl7.org/CodeSystem/v2-0203",
            "code": "MR"
          } ]
        },
        "system": "https://bonnie-fhir.healthit.gov/",
        "value": "61168b8798086b77ef9c5ed7"
      } ],
      "active": true,
      "name": [ {
        "use": "usual",
        "family": "NUMERPass",
        "given": [ "CommEdemaAbsentAftEnc" ]
      } ],
      "gender": "female",
      "birthDate": "1923-03-24"
    }
  }, {
    "fullUrl": "https://madie.cms.gov/Communication/0d5124fc-94b3-4971-b18b-7bc3aa9f850d",
    "resource": {
      "resourceType": "Communication",
      "id": "0d5124fc-94b3-4971-b18b-7bc3aa9f850d",
      "meta": {
        "profile": [ "http://hl7.org/fhir/us/qicore/StructureDefinition/qicore-communication" ]
      },
      "extension": [ {
        "url": "http://hl7.org/fhir/us/qicore/StructureDefinition/qicore-recorded",
        "valueDateTime": "2014-12-17T10:00:00.000+00:00"
      } ],
      "status": "completed",
      "category": [ {
        "coding": [ {
          "system": "http://snomed.info/sct",
          "version": "http://snomed.info/sct/731000124108/version/202303",
          "code": "312903003",
          "display": "Mild nonproliferative retinopathy due to diabetes mellitus (disorder)",
          "userSelected": true
        } ]
      } ],
      "subject": {
        "reference": "Patient/380d6e3a-1fc1-474c-a8f3-8e6ba4f0dd42"
      },
      "topic": {
        "coding": [ {
          "system": "http://terminology.hl7.org/CodeSystem/communication-topic",
          "code": "progress-update",
          "display": "Progress Update"
        } ]
      },
      "sent": "2026-12-17T08:00:00.000+00:00",
      "reasonCode": [ {
        "coding": [ {
          "system": "http://snomed.info/sct",
          "code": "312903003"
        } ]
      } ]
    }
  }, {
    "fullUrl": "https://madie.cms.gov/Condition/0cdf9a15-fee3-4aa5-8e83-f83e35bda6e5",
    "resource": {
      "resourceType": "Condition",
      "id": "0cdf9a15-fee3-4aa5-8e83-f83e35bda6e5",
      "meta": {
        "profile": [ "http://hl7.org/fhir/us/qicore/StructureDefinition/qicore-condition-problems-health-concerns" ]
      },
      "clinicalStatus": {
        "coding": [ {
          "system": "http://terminology.hl7.org/CodeSystem/condition-clinical",
          "code": "active",
          "display": "active",
          "userSelected": true
        } ]
      },
      "category": [ {
        "coding": [ {
          "system": "http://terminology.hl7.org/CodeSystem/condition-category",
          "code": "problem-list-item",
          "display": "Problem List Item"
        } ]
      } ],
      "code": {
        "coding": [ {
          "system": "http://snomed.info/sct",
          "version": "http://snomed.info/sct/731000124108/version/20250301",
          "code": "314014002"
        } ]
      },
      "subject": {
        "reference": "Patient/380d6e3a-1fc1-474c-a8f3-8e6ba4f0dd42"
      },
      "onsetDateTime": "2021-05-10T08:00:00.000+00:00"
    }
  }, {
    "fullUrl": "https://madie.cms.gov/Observation/2866227c-74fa-41cd-805b-6f6a01c2ede6",
    "resource": {
      "resourceType": "Observation",
      "id": "2866227c-74fa-41cd-805b-6f6a01c2ede6",
      "meta": {
        "profile": [ "http://hl7.org/fhir/us/qicore/StructureDefinition/qicore-observation-clinical-result" ]
      },
      "status": "final",
      "category": [ {
        "coding": [ {
          "system": "http://terminology.hl7.org/CodeSystem/observation-category",
          "code": "vital-signs",
          "display": "Vital Signs"
        } ]
      }, {
        "coding": [ {
          "system": "http://terminology.hl7.org/CodeSystem/observation-category",
          "code": "survey"
        } ]
      } ],
      "code": {
        "coding": [ {
          "system": "http://loinc.org",
          "version": "2.73",
          "code": "32451-7"
        } ]
      },
      "subject": {
        "reference": "Patient/380d6e3a-1fc1-474c-a8f3-8e6ba4f0dd42"
      },
      "effectiveDateTime": "2026-06-16T14:45:00.000+00:00",
      "valueBoolean": true
    }
  }, {
    "fullUrl": "https://madie.cms.gov/Encounter/bea0179e-21a1-4097-a588-8f0d563c1fa7",
    "resource": {
      "resourceType": "Encounter",
      "id": "bea0179e-21a1-4097-a588-8f0d563c1fa7",
      "meta": {
        "profile": [ "http://hl7.org/fhir/us/qicore/StructureDefinition/qicore-encounter" ]
      },
      "status": "finished",
      "class": {
        "system": "http://terminology.hl7.org/CodeSystem/v3-ActCode",
        "code": "AMB"
      },
      "type": [ {
        "coding": [ {
          "system": "http://snomed.info/sct",
          "version": "http://snomed.info/sct/731000124108/version/202303",
          "code": "359960003"
        } ]
      } ],
      "subject": {
        "reference": "Patient/380d6e3a-1fc1-474c-a8f3-8e6ba4f0dd42"
      },
      "period": {
        "start": "2026-06-16T14:30:00.000+00:00",
        "end": "2026-06-16T15:30:00.000+00:00"
      }
    }
  }, {
    "fullUrl": "https://madie.cms.gov/Communication/40b9721e-04c9-4c75-89b4-1341161c0fdc",
    "resource": {
      "resourceType": "Communication",
      "id": "40b9721e-04c9-4c75-89b4-1341161c0fdc",
      "meta": {
        "profile": [ "http://hl7.org/fhir/us/qicore/StructureDefinition/qicore-communication" ]
      },
      "extension": [ {
        "url": "http://hl7.org/fhir/us/qicore/StructureDefinition/qicore-recorded",
        "valueDateTime": "2026-12-21T16:15:00.000+00:00"
      } ],
      "status": "completed",
      "category": [ {
        "coding": [ {
          "system": "http://snomed.info/sct",
          "version": "http://snomed.info/sct/731000124108/version/202303",
          "code": "193350004",
          "display": "Advanced maculopathy due to diabetes mellitus (disorder)",
          "userSelected": true
        } ]
      } ],
      "subject": {
        "reference": "Patient/380d6e3a-1fc1-474c-a8f3-8e6ba4f0dd42"
      },
      "sent": "2026-12-21T08:00:00.000+00:00",
      "reasonCode": [ {
        "coding": [ {
          "system": "http://snomed.info/sct",
          "version": "http://snomed.info/sct/731000124108/version/202303",
          "code": "428341000124108"
        } ]
      } ]
    }
  }, {
    "fullUrl": "https://madie.cms.gov/Coverage/e248c81e-7c19-4268-b033-547a37eaf666",
    "resource": {
      "resourceType": "Coverage",
      "id": "e248c81e-7c19-4268-b033-547a37eaf666",
      "meta": {
        "profile": [ "http://hl7.org/fhir/us/qicore/StructureDefinition/qicore-coverage" ]
      },
      "identifier": [ {
        "system": "http://benefitsinc.com/certificate",
        "value": "12345"
      } ],
      "status": "active",
      "type": {
        "coding": [ {
          "system": "https://nahdo.org/sopt",
          "version": "9.2",
          "code": "59",
          "display": "Other Private Insurance"
        } ]
      },
      "subscriberId": "123456",
      "beneficiary": {
        "reference": "Patient/380d6e3a-1fc1-474c-a8f3-8e6ba4f0dd42"
      },
      "dependent": "0",
      "relationship": {
        "coding": [ {
          "system": "http://terminology.hl7.org/CodeSystem/subscriber-relationship",
          "code": "self"
        } ]
      },
      "period": {
        "start": "2017-05-23",
        "end": "2032-05-23"
      },
      "payor": [ {
        "reference": "Organization/1dc38b59-0a37-4341-bd64-bea087d448cd"
      } ],
      "order": 9
    }
  }, {
    "fullUrl": "https://madie.cms.gov/Organization/1dc38b59-0a37-4341-bd64-bea087d448cd",
    "resource": {
      "resourceType": "Organization",
      "id": "1dc38b59-0a37-4341-bd64-bea087d448cd",
      "meta": {
        "profile": [ "http://hl7.org/fhir/us/qicore/StructureDefinition/qicore-organization" ]
      },
      "identifier": [ {
        "use": "temp",
        "system": "http://terminology.hl7.org/NamingSystem/USEIN",
        "value": "48915164351354"
      } ],
      "active": true,
      "type": [ {
        "coding": [ {
          "system": "http://terminology.hl7.org/CodeSystem/organization-type",
          "code": "team",
          "display": "Organizational team"
        } ]
      } ],
      "name": "Good Healthcare, LLC",
      "telecom": [ {
        "system": "phone",
        "value": "(+1) 901-683-7777"
      }, {
        "system": "fax",
        "value": "(+1) 901-683-6622"
      }, {
        "system": "email",
        "value": "BetterYourHealth@GoodHealthcare.com"
      } ],
      "address": [ {
        "line": [ "3651 Wentrow Blvd, Suite 227" ],
        "city": "Germantown",
        "state": "TN",
        "postalCode": "38138",
        "country": "USA"
      } ]
    }
  }, {
    "fullUrl": "https://madie.cms.gov/MeasureReport/e494b9c3-751d-477c-87d7-e229cb69b0b8",
    "resource": {
      "resourceType": "MeasureReport",
      "id": "e494b9c3-751d-477c-87d7-e229cb69b0b8",
      "meta": {
        "profile": [ "http://hl7.org/fhir/us/cqfmeasures/StructureDefinition/test-case-cqfm" ]
      },
      "contained": [ {
        "resourceType": "Parameters",
        "id": "bda7264c-07ba-4617-b919-4cbcd682b9c3-parameters",
        "parameter": [ {
          "name": "subject",
          "valueString": "380d6e3a-1fc1-474c-a8f3-8e6ba4f0dd42"
        } ]
      } ],
      "extension": [ {
        "url": "http://hl7.org/fhir/StructureDefinition/cqf-inputParameters",
        "valueReference": {
          "reference": "#bda7264c-07ba-4617-b919-4cbcd682b9c3-parameters"
        }
      }, {
        "url": "http://hl7.org/fhir/us/cqfmeasures/StructureDefinition/cqfm-testCaseDescription",
        "valueMarkdown": "Communication of Edema Absent is performed as required and will pass Numerator Criteria"
      } ],
      "modifierExtension": [ {
        "url": "http://hl7.org/fhir/us/cqfmeasures/StructureDefinition/cqfm-isTestCase",
        "valueBoolean": true
      } ],
      "status": "complete",
      "type": "individual",
      "measure": "https://madie.cms.gov/Measure/CMS142FHIRCommWithDrManagingDiab",
      "period": {
        "start": "2026-01-01",
        "end": "2026-12-31"
      },
      "group": [ {
        "id": "Group_1",
        "population": [ {
          "id": "InitialPopulation_1",
          "code": {
            "coding": [ {
              "system": "http://terminology.hl7.org/CodeSystem/measure-population",
              "code": "initial-population",
              "display": "Initial Population"
            } ]
          },
          "count": 1
        }, {
          "id": "Denominator_1",
          "code": {
            "coding": [ {
              "system": "http://terminology.hl7.org/CodeSystem/measure-population",
              "code": "denominator",
              "display": "Denominator"
            } ]
          },
          "count": 1
        }, {
          "id": "Numerator_1",
          "code": {
            "coding": [ {
              "system": "http://terminology.hl7.org/CodeSystem/measure-population",
              "code": "numerator",
              "display": "Numerator"
            } ]
          },
          "count": 1
        }, {
          "id": "DenominatorException_1",
          "code": {
            "coding": [ {
              "system": "http://terminology.hl7.org/CodeSystem/measure-population",
              "code": "denominator-exception",
              "display": "Denominator Exception"
            } ]
          },
          "count": 0
        } ],
        "measureScore": {
          "value": 1.0
        }
      } ],
      "evaluatedResource": [ {
        "reference": "Patient/380d6e3a-1fc1-474c-a8f3-8e6ba4f0dd42"
      }, {
        "reference": "Communication/0d5124fc-94b3-4971-b18b-7bc3aa9f850d"
      }, {
        "reference": "Condition/0cdf9a15-fee3-4aa5-8e83-f83e35bda6e5"
      }, {
        "reference": "Observation/2866227c-74fa-41cd-805b-6f6a01c2ede6"
      }, {
        "reference": "Encounter/bea0179e-21a1-4097-a588-8f0d563c1fa7"
      }, {
        "reference": "Communication/40b9721e-04c9-4c75-89b4-1341161c0fdc"
      }, {
        "reference": "Coverage/e248c81e-7c19-4268-b033-547a37eaf666"
      }, {
        "reference": "Organization/1dc38b59-0a37-4341-bd64-bea087d448cd"
      } ]
    }
  } ]
}