{
  "resourceType": "Bundle",
  "id": "61152a3b98086b7a79cbd7cc",
  "type": "transaction",
  "entry": [ {
    "fullUrl": "https://madie.cms.gov/Patient/d26ca5cd-9415-4c14-8a0b-947747c29ec2",
    "resource": {
      "resourceType": "Patient",
      "id": "d26ca5cd-9415-4c14-8a0b-947747c29ec2",
      "meta": {
        "profile": [ "http://hl7.org/fhir/us/qicore/StructureDefinition/qicore-patient" ]
      },
      "text": {
        "status": "generated",
        "div": "<div xmlns=\"http://www.w3.org/1999/xhtml\"><div class=\"hapiHeaderText\">MedsinEDNotPartofEncounter <b>IPPFAIL </b></div><table class=\"hapiPropertyTable\"><tbody><tr><td>Identifier</td><td>5b7cc01a21aeaa554832a51d3fe6107cf73735defd6e28caa799f2b9a67efcc4</td></tr><tr><td>Date of birth</td><td><span>31 July 1992</span></td></tr></tbody></table></div>"
      },
      "extension": [ {
        "url": "http://hl7.org/fhir/us/core/StructureDefinition/us-core-race",
        "extension": [ {
          "url": "ombCategory",
          "valueCoding": {
            "system": "urn:oid:2.16.840.1.113883.6.238",
            "code": "1002-5",
            "display": "American Indian or Alaska Native",
            "userSelected": true
          }
        }, {
          "url": "text",
          "valueString": "American Indian or Alaska Native"
        }, {
          "url": "detailed",
          "valueCoding": {
            "system": "urn:oid:2.16.840.1.113883.6.238",
            "code": "1653-5",
            "display": "Tohono O'Odham"
          }
        } ]
      }, {
        "url": "http://hl7.org/fhir/us/core/StructureDefinition/us-core-ethnicity",
        "extension": [ {
          "url": "ombCategory",
          "valueCoding": {
            "system": "urn:oid:2.16.840.1.113883.6.238",
            "code": "2135-2",
            "display": "Hispanic or Latino",
            "userSelected": true
          }
        }, {
          "url": "text",
          "valueString": "Hispanic or Latino"
        }, {
          "url": "detailed",
          "valueCoding": {
            "system": "urn:oid:2.16.840.1.113883.6.238",
            "code": "2153-5",
            "display": "Mexican American Indian"
          }
        } ]
      } ],
      "identifier": [ {
        "type": {
          "coding": [ {
            "system": "http://terminology.hl7.org/CodeSystem/v2-0203",
            "code": "MR"
          } ]
        },
        "system": "https://bonnie-fhir.healthit.gov/",
        "value": "61152a3b98086b7a79cbd7cc"
      } ],
      "active": true,
      "name": [ {
        "use": "usual",
        "family": "IPPFail",
        "given": [ "MedsinEDNotPartofEncounter" ]
      } ],
      "gender": "other",
      "birthDate": "1992-07-31"
    },
    "request": {
      "method": "PUT",
      "url": "Patient/d26ca5cd-9415-4c14-8a0b-947747c29ec2"
    }
  }, {
    "fullUrl": "https://madie.cms.gov/Encounter/13e9778a-d057-4811-bbe9-3b93ce0ff298",
    "resource": {
      "resourceType": "Encounter",
      "id": "13e9778a-d057-4811-bbe9-3b93ce0ff298",
      "meta": {
        "profile": [ "http://hl7.org/fhir/us/qicore/StructureDefinition/qicore-encounter" ]
      },
      "status": "finished",
      "class": {
        "system": "http://terminology.hl7.org/CodeSystem/v3-ActCode",
        "code": "IMP"
      },
      "type": [ {
        "coding": [ {
          "system": "http://snomed.info/sct",
          "code": "4525004"
        } ]
      } ],
      "subject": {
        "reference": "Patient/d26ca5cd-9415-4c14-8a0b-947747c29ec2"
      },
      "period": {
        "start": "2025-07-11T06:00:00.000+00:00",
        "end": "2025-07-11T07:00:00.000+00:00"
      }
    },
    "request": {
      "method": "PUT",
      "url": "Encounter/13e9778a-d057-4811-bbe9-3b93ce0ff298"
    }
  }, {
    "fullUrl": "https://madie.cms.gov/Encounter/4c97fa8d-0d6d-4fa3-bafb-f8a9ff35bf49",
    "resource": {
      "resourceType": "Encounter",
      "id": "4c97fa8d-0d6d-4fa3-bafb-f8a9ff35bf49",
      "meta": {
        "profile": [ "http://hl7.org/fhir/us/qicore/StructureDefinition/qicore-encounter" ]
      },
      "status": "finished",
      "class": {
        "system": "http://terminology.hl7.org/CodeSystem/v3-ActCode",
        "code": "IMP"
      },
      "type": [ {
        "coding": [ {
          "system": "http://snomed.info/sct",
          "code": "183452005"
        } ]
      } ],
      "subject": {
        "reference": "Patient/d26ca5cd-9415-4c14-8a0b-947747c29ec2"
      },
      "period": {
        "start": "2025-07-11T08:01:00.000+00:00",
        "end": "2025-07-11T09:00:00.000+00:00"
      }
    },
    "request": {
      "method": "PUT",
      "url": "Encounter/4c97fa8d-0d6d-4fa3-bafb-f8a9ff35bf49"
    }
  }, {
    "fullUrl": "https://madie.cms.gov/Encounter/0a2b5ca2-57da-4f0b-b412-ed33a0baa704",
    "resource": {
      "resourceType": "Encounter",
      "id": "0a2b5ca2-57da-4f0b-b412-ed33a0baa704",
      "meta": {
        "profile": [ "http://hl7.org/fhir/us/qicore/StructureDefinition/qicore-encounter" ]
      },
      "status": "finished",
      "class": {
        "system": "http://terminology.hl7.org/CodeSystem/v3-ActCode",
        "code": "IMP"
      },
      "type": [ {
        "coding": [ {
          "system": "http://snomed.info/sct",
          "code": "183452005"
        } ]
      } ],
      "subject": {
        "reference": "Patient/d26ca5cd-9415-4c14-8a0b-947747c29ec2"
      },
      "period": {
        "start": "2025-07-11T10:00:00.000+00:00",
        "end": "2025-07-14T21:00:00.000+00:00"
      }
    },
    "request": {
      "method": "PUT",
      "url": "Encounter/0a2b5ca2-57da-4f0b-b412-ed33a0baa704"
    }
  }, {
    "fullUrl": "https://madie.cms.gov/MedicationAdministration/6a31d821-f28d-4fc6-93e1-992fa50c859a",
    "resource": {
      "resourceType": "MedicationAdministration",
      "id": "6a31d821-f28d-4fc6-93e1-992fa50c859a",
      "meta": {
        "profile": [ "http://hl7.org/fhir/us/qicore/StructureDefinition/qicore-medicationadministration" ]
      },
      "status": "completed",
      "medicationCodeableConcept": {
        "coding": [ {
          "system": "http://www.nlm.nih.gov/research/umls/rxnorm",
          "code": "1361493",
          "display": "glimepiride 6 MG Oral Tablet",
          "userSelected": true
        } ]
      },
      "subject": {
        "reference": "Patient/d26ca5cd-9415-4c14-8a0b-947747c29ec2"
      },
      "effectivePeriod": {
        "start": "2025-07-11T06:00:00.000+00:00",
        "end": "2025-07-11T07:00:00.000+00:00"
      }
    },
    "request": {
      "method": "PUT",
      "url": "MedicationAdministration/6a31d821-f28d-4fc6-93e1-992fa50c859a"
    }
  }, {
    "fullUrl": "https://madie.cms.gov/MeasureReport/c418d2fb-8842-4dac-8d56-6ef6d1394883",
    "resource": {
      "resourceType": "MeasureReport",
      "id": "c418d2fb-8842-4dac-8d56-6ef6d1394883",
      "meta": {
        "profile": [ "http://hl7.org/fhir/us/cqfmeasures/StructureDefinition/test-case-cqfm" ]
      },
      "contained": [ {
        "resourceType": "Parameters",
        "id": "3538c456-a094-4d39-9595-2618acf772e2-parameters",
        "parameter": [ {
          "name": "subject",
          "valueString": "d26ca5cd-9415-4c14-8a0b-947747c29ec2"
        } ]
      } ],
      "extension": [ {
        "url": "http://hl7.org/fhir/StructureDefinition/cqf-inputParameters",
        "valueReference": {
          "reference": "#3538c456-a094-4d39-9595-2618acf772e2-parameters"
        }
      }, {
        "url": "http://hl7.org/fhir/us/cqfmeasures/StructureDefinition/cqfm-testCaseDescription",
        "valueMarkdown": "IP enc where pt given hypo med in ED, but ED not part of inpatient encounter, because  Observation start date/time was > 1 hour from ED end date/time. Observation to IP stay occurred but hypo meds given in ED don't count. Does not meet IPP criteria. "
      } ],
      "modifierExtension": [ {
        "url": "http://hl7.org/fhir/us/cqfmeasures/StructureDefinition/cqfm-isTestCase",
        "valueBoolean": true
      } ],
      "status": "complete",
      "type": "individual",
      "measure": "https://madie.cms.gov/Measure/CMS816FHIRHHHypo",
      "period": {
        "start": "2026-01-01",
        "end": "2026-12-31"
      },
      "group": [ {
        "id": "Group_1",
        "population": [ {
          "id": "InitialPopulation_1",
          "code": {
            "coding": [ {
              "system": "http://terminology.hl7.org/CodeSystem/measure-population",
              "code": "initial-population",
              "display": "Initial Population"
            } ]
          },
          "count": 0
        }, {
          "id": "Denominator_1",
          "code": {
            "coding": [ {
              "system": "http://terminology.hl7.org/CodeSystem/measure-population",
              "code": "denominator",
              "display": "Denominator"
            } ]
          },
          "count": 0
        }, {
          "id": "Numerator_1",
          "code": {
            "coding": [ {
              "system": "http://terminology.hl7.org/CodeSystem/measure-population",
              "code": "numerator",
              "display": "Numerator"
            } ]
          },
          "count": 0
        } ],
        "measureScore": {
          "value": 0.0
        }
      } ],
      "evaluatedResource": [ {
        "reference": "Patient/d26ca5cd-9415-4c14-8a0b-947747c29ec2"
      }, {
        "reference": "Encounter/13e9778a-d057-4811-bbe9-3b93ce0ff298"
      }, {
        "reference": "Encounter/4c97fa8d-0d6d-4fa3-bafb-f8a9ff35bf49"
      }, {
        "reference": "Encounter/0a2b5ca2-57da-4f0b-b412-ed33a0baa704"
      }, {
        "reference": "MedicationAdministration/6a31d821-f28d-4fc6-93e1-992fa50c859a"
      } ]
    },
    "request": {
      "method": "PUT",
      "url": "MeasureReport/c418d2fb-8842-4dac-8d56-6ef6d1394883"
    }
  } ]
}