{
  "resourceType": "Bundle",
  "id": "60f82c3098086b570510e2f3",
  "type": "transaction",
  "entry": [ {
    "fullUrl": "https://madie.cms.gov/Patient/6bbc3f38-7f5f-4da9-9beb-eb32874fd1ed",
    "resource": {
      "resourceType": "Patient",
      "id": "6bbc3f38-7f5f-4da9-9beb-eb32874fd1ed",
      "meta": {
        "profile": [ "http://hl7.org/fhir/us/qicore/StructureDefinition/qicore-patient" ]
      },
      "text": {
        "status": "generated",
        "div": "<div xmlns=\"http://www.w3.org/1999/xhtml\"><div class=\"hapiHeaderText\">CMP_DayOf_RelvPerStart_1minAftIPEnd_EDEndLT1hrB4Obs_ObsEndLT1hrB4IP <b>DENEXFAIL </b></div><table class=\"hapiPropertyTable\"><tbody><tr><td>Date of birth</td><td><span>01 January 1980</span></td></tr></tbody></table></div>"
      },
      "extension": [ {
        "url": "http://hl7.org/fhir/us/core/StructureDefinition/us-core-race",
        "extension": [ {
          "url": "ombCategory",
          "valueCoding": {
            "system": "urn:oid:2.16.840.1.113883.6.238",
            "code": "2054-5",
            "display": "Black or African American",
            "userSelected": true
          }
        }, {
          "url": "text",
          "valueString": "Black or African American"
        } ]
      }, {
        "url": "http://hl7.org/fhir/us/core/StructureDefinition/us-core-ethnicity",
        "extension": [ {
          "url": "ombCategory",
          "valueCoding": {
            "system": "urn:oid:2.16.840.1.113883.6.238",
            "code": "2186-5",
            "display": "Not Hispanic or Latino",
            "userSelected": true
          }
        }, {
          "url": "text",
          "valueString": "Not Hispanic or Latino"
        } ]
      } ],
      "identifier": [ {
        "type": {
          "coding": [ {
            "system": "http://terminology.hl7.org/CodeSystem/v2-0203",
            "code": "MR"
          } ]
        },
        "system": "https://bonnie-fhir.healthit.gov/",
        "value": "60f82c3098086b570510e2f3"
      } ],
      "active": true,
      "name": [ {
        "use": "usual",
        "family": "DENEXFail",
        "given": [ "CMPDayOfRelvPerStart1minAftIPEndEDEndLT1hrB4ObsObsEndLT1hrB4IP" ]
      } ],
      "gender": "female",
      "birthDate": "1981-01-01"
    },
    "request": {
      "method": "PUT",
      "url": "Patient/6bbc3f38-7f5f-4da9-9beb-eb32874fd1ed"
    }
  }, {
    "fullUrl": "https://madie.cms.gov/Encounter/52d769bf-952d-4840-871d-b9cad4a31c88",
    "resource": {
      "resourceType": "Encounter",
      "id": "52d769bf-952d-4840-871d-b9cad4a31c88",
      "meta": {
        "profile": [ "http://hl7.org/fhir/us/qicore/StructureDefinition/qicore-encounter" ]
      },
      "status": "finished",
      "class": {
        "system": "http://terminology.hl7.org/CodeSystem/v3-ActCode",
        "code": "EMER",
        "display": "emergency",
        "userSelected": true
      },
      "type": [ {
        "coding": [ {
          "system": "http://snomed.info/sct",
          "code": "4525004"
        } ]
      } ],
      "subject": {
        "reference": "Patient/6bbc3f38-7f5f-4da9-9beb-eb32874fd1ed"
      },
      "period": {
        "start": "2026-11-18T07:00:00.000+00:00",
        "end": "2026-11-18T08:01:00.000+00:00"
      },
      "diagnosis": [ {
        "condition": {
          "reference": "Condition/3706b6ca-c044-4d03-8f75-6e6c8b9d150d"
        },
        "use": {
          "coding": [ {
            "system": "http://snomed.info/sct",
            "code": "111297002",
            "display": "Nonparalytic stroke (disorder)"
          } ]
        },
        "rank": 1
      } ]
    },
    "request": {
      "method": "PUT",
      "url": "Encounter/52d769bf-952d-4840-871d-b9cad4a31c88"
    }
  }, {
    "fullUrl": "https://madie.cms.gov/Encounter/2971374f-cb62-4f89-8746-b89e7b8010af",
    "resource": {
      "resourceType": "Encounter",
      "id": "2971374f-cb62-4f89-8746-b89e7b8010af",
      "meta": {
        "profile": [ "http://hl7.org/fhir/us/qicore/StructureDefinition/qicore-encounter" ]
      },
      "status": "finished",
      "class": {
        "system": "http://terminology.hl7.org/CodeSystem/v3-ActCode",
        "code": "OBSENC",
        "display": "observation encounter",
        "userSelected": true
      },
      "type": [ {
        "coding": [ {
          "system": "http://snomed.info/sct",
          "code": "448951000124107"
        } ]
      } ],
      "subject": {
        "reference": "Patient/6bbc3f38-7f5f-4da9-9beb-eb32874fd1ed"
      },
      "period": {
        "start": "2026-11-18T09:00:00.000+00:00",
        "end": "2026-11-18T10:01:00.000+00:00"
      }
    },
    "request": {
      "method": "PUT",
      "url": "Encounter/2971374f-cb62-4f89-8746-b89e7b8010af"
    }
  }, {
    "fullUrl": "https://madie.cms.gov/Encounter/7f098c08-e7ac-4ec6-97a3-86d88553fbf5",
    "resource": {
      "resourceType": "Encounter",
      "id": "7f098c08-e7ac-4ec6-97a3-86d88553fbf5",
      "meta": {
        "profile": [ "http://hl7.org/fhir/us/qicore/StructureDefinition/qicore-encounter" ]
      },
      "status": "finished",
      "class": {
        "system": "http://terminology.hl7.org/CodeSystem/v3-ActCode",
        "code": "IMP",
        "display": "inpatient encounter",
        "userSelected": true
      },
      "type": [ {
        "coding": [ {
          "system": "http://snomed.info/sct",
          "code": "183452005"
        } ]
      } ],
      "subject": {
        "reference": "Patient/6bbc3f38-7f5f-4da9-9beb-eb32874fd1ed"
      },
      "period": {
        "start": "2026-11-18T11:00:00.000+00:00",
        "end": "2026-11-20T08:15:00.000+00:00"
      },
      "reasonReference": [ {
        "reference": "Condition/3706b6ca-c044-4d03-8f75-6e6c8b9d150d"
      } ]
    },
    "request": {
      "method": "PUT",
      "url": "Encounter/7f098c08-e7ac-4ec6-97a3-86d88553fbf5"
    }
  }, {
    "fullUrl": "https://madie.cms.gov/Procedure/f1ee85b6-112b-4451-bb8b-061b8f1badd9",
    "resource": {
      "resourceType": "Procedure",
      "id": "f1ee85b6-112b-4451-bb8b-061b8f1badd9",
      "meta": {
        "profile": [ "http://hl7.org/fhir/us/qicore/StructureDefinition/qicore-procedure" ]
      },
      "extension": [ {
        "url": "http://hl7.org/fhir/us/qicore/StructureDefinition/qicore-recorded",
        "valueDateTime": "2014-04-05T13:35:00.000+00:00"
      } ],
      "status": "completed",
      "code": {
        "coding": [ {
          "system": "http://snomed.info/sct",
          "code": "133918004"
        } ]
      },
      "subject": {
        "reference": "Patient/6bbc3f38-7f5f-4da9-9beb-eb32874fd1ed"
      },
      "performedPeriod": {
        "start": "2026-11-20T08:16:00.000+00:00",
        "end": "2026-11-20T08:16:00.000+00:00"
      }
    },
    "request": {
      "method": "PUT",
      "url": "Procedure/f1ee85b6-112b-4451-bb8b-061b8f1badd9"
    }
  }, {
    "fullUrl": "https://madie.cms.gov/Condition/3706b6ca-c044-4d03-8f75-6e6c8b9d150d",
    "resource": {
      "resourceType": "Condition",
      "id": "3706b6ca-c044-4d03-8f75-6e6c8b9d150d",
      "meta": {
        "profile": [ "http://hl7.org/fhir/us/qicore/StructureDefinition/qicore-condition-encounter-diagnosis" ]
      },
      "clinicalStatus": {
        "coding": [ {
          "system": "http://terminology.hl7.org/CodeSystem/condition-clinical",
          "code": "active"
        } ]
      },
      "verificationStatus": {
        "coding": [ {
          "system": "http://terminology.hl7.org/CodeSystem/condition-ver-status",
          "code": "confirmed"
        } ]
      },
      "category": [ {
        "coding": [ {
          "system": "http://terminology.hl7.org/CodeSystem/condition-category",
          "code": "encounter-diagnosis",
          "display": "Encounter Diagnosis"
        } ]
      } ],
      "code": {
        "coding": [ {
          "system": "http://snomed.info/sct",
          "version": "2020-09",
          "code": "111297002",
          "display": "Nonparalytic stroke (disorder)",
          "userSelected": true
        } ]
      },
      "subject": {
        "reference": "Patient/6bbc3f38-7f5f-4da9-9beb-eb32874fd1ed"
      },
      "encounter": {
        "reference": "Encounter/7f098c08-e7ac-4ec6-97a3-86d88553fbf5"
      },
      "recordedDate": "2026-08-11T08:00:00.000+00:00"
    },
    "request": {
      "method": "PUT",
      "url": "Condition/3706b6ca-c044-4d03-8f75-6e6c8b9d150d"
    }
  }, {
    "fullUrl": "https://madie.cms.gov/claim/5ca62962b8484628b8de1ec5",
    "resource": {
      "resourceType": "Claim",
      "id": "5ca62962b8484628b8de1ec5",
      "meta": {
        "profile": [ "http://hl7.org/fhir/us/qicore/StructureDefinition/qicore-claim" ]
      },
      "status": "active",
      "type": {
        "coding": [ {
          "system": "http://terminology.hl7.org/CodeSystem/claim-type",
          "code": "institutional"
        } ]
      },
      "use": "claim",
      "patient": {
        "reference": "Patient/5450abfd-a667-4eb9-9b59-e85feed4865c"
      },
      "created": "2026-12-01",
      "provider": {
        "reference": "Practitioner/practitioner-123456"
      },
      "priority": {
        "coding": [ {
          "system": "http://terminology.hl7.org/CodeSystem/processpriority",
          "code": "normal"
        } ]
      },
      "diagnosis": [ {
        "sequence": 1,
        "diagnosisCodeableConcept": {
          "coding": [ {
            "system": "http://hl7.org/fhir/sid/icd-10-cm",
            "code": "I63.00"
          } ]
        },
        "type": [ {
          "coding": [ {
            "system": "http://terminology.hl7.org/CodeSystem/ex-diagnosistype",
            "code": "principal"
          } ]
        } ]
      } ],
      "insurance": [ {
        "sequence": 1,
        "focal": true,
        "coverage": {
          "reference": "Coverage/5fa041661c76ba66d9959367"
        }
      } ],
      "item": [ {
        "sequence": 1,
        "diagnosisSequence": [ 1 ],
        "productOrService": {
          "coding": [ {
            "system": "http://terminology.hl7.org/CodeSystem/ex-USCLS",
            "code": "99555"
          } ]
        },
        "encounter": [ {
          "reference": "Encounter/7f098c08-e7ac-4ec6-97a3-86d88553fbf5"
        } ]
      } ]
    },
    "request": {
      "method": "PUT",
      "url": "Claim/5ca62962b8484628b8de1ec5"
    }
  }, {
    "fullUrl": "https://madie.cms.gov/Coverage/18d8942e-48e4-4d40-94ba-aba92fb030c4",
    "resource": {
      "resourceType": "Coverage",
      "id": "18d8942e-48e4-4d40-94ba-aba92fb030c4",
      "meta": {
        "profile": [ "http://hl7.org/fhir/us/qicore/StructureDefinition/qicore-coverage" ]
      },
      "status": "active",
      "beneficiary": {
        "reference": "Patient/6bbc3f38-7f5f-4da9-9beb-eb32874fd1ed"
      },
      "payor": [ {
        "reference": "Organization/7181c1a1-6432-4b6f-886f-576ff206b583"
      } ]
    },
    "request": {
      "method": "PUT",
      "url": "Coverage/18d8942e-48e4-4d40-94ba-aba92fb030c4"
    }
  }, {
    "fullUrl": "https://madie.cms.gov/Organization/7181c1a1-6432-4b6f-886f-576ff206b583",
    "resource": {
      "resourceType": "Organization",
      "id": "7181c1a1-6432-4b6f-886f-576ff206b583",
      "meta": {
        "profile": [ "http://hl7.org/fhir/us/qicore/StructureDefinition/qicore-organization" ]
      },
      "identifier": [ {
        "use": "temp",
        "system": "urn:oid:2.16.840.1.113883.4.4",
        "value": "21-3259825"
      } ],
      "active": true,
      "type": [ {
        "coding": [ {
          "system": "http://terminology.hl7.org/CodeSystem/organization-type",
          "code": "pay",
          "display": "Payer"
        } ]
      } ],
      "name": "Blue Cross Blue Shield of Texas",
      "telecom": [ {
        "system": "phone",
        "value": "(+1) 972-766-6900"
      } ],
      "address": [ {
        "use": "billing",
        "type": "postal",
        "line": [ "P.O. Box 660044" ],
        "city": "Dallas",
        "state": "TX",
        "postalCode": "75266-0044",
        "country": "USA"
      } ]
    },
    "request": {
      "method": "PUT",
      "url": "Organization/7181c1a1-6432-4b6f-886f-576ff206b583"
    }
  }, {
    "fullUrl": "https://madie.cms.gov/MeasureReport/b3da83c7-a090-4f53-bd8b-c25510116c7f",
    "resource": {
      "resourceType": "MeasureReport",
      "id": "b3da83c7-a090-4f53-bd8b-c25510116c7f",
      "meta": {
        "profile": [ "http://hl7.org/fhir/us/cqfmeasures/StructureDefinition/test-case-cqfm" ]
      },
      "contained": [ {
        "resourceType": "Parameters",
        "id": "320decb7-505f-4cae-8519-d299b5001236-parameters",
        "parameter": [ {
          "name": "subject",
          "valueString": "6bbc3f38-7f5f-4da9-9beb-eb32874fd1ed"
        } ]
      } ],
      "extension": [ {
        "url": "http://hl7.org/fhir/StructureDefinition/cqf-inputParameters",
        "valueReference": {
          "reference": "#320decb7-505f-4cae-8519-d299b5001236-parameters"
        }
      }, {
        "url": "http://hl7.org/fhir/us/cqfmeasures/StructureDefinition/cqfm-testCaseDescription",
        "valueMarkdown": "Patient receives comfort measures performed on the day of hospital arrival,  1 min after IP end. ED ends less than 1 hour before Obs Start, Obs ends less than 1 hour before IP start.\n"
      } ],
      "modifierExtension": [ {
        "url": "http://hl7.org/fhir/us/cqfmeasures/StructureDefinition/cqfm-isTestCase",
        "valueBoolean": true
      } ],
      "status": "complete",
      "type": "individual",
      "measure": "https://madie.cms.gov/Measure/CMS72FHIRSTKAntithromboticDay2",
      "period": {
        "start": "2026-01-01",
        "end": "2026-12-31"
      },
      "group": [ {
        "id": "Group_1",
        "population": [ {
          "id": "InitialPopulation_1",
          "code": {
            "coding": [ {
              "system": "http://terminology.hl7.org/CodeSystem/measure-population",
              "code": "initial-population",
              "display": "Initial Population"
            } ]
          },
          "count": 1
        }, {
          "id": "Denominator_1",
          "code": {
            "coding": [ {
              "system": "http://terminology.hl7.org/CodeSystem/measure-population",
              "code": "denominator",
              "display": "Denominator"
            } ]
          },
          "count": 1
        }, {
          "id": "DenominatorExclusion_1",
          "code": {
            "coding": [ {
              "system": "http://terminology.hl7.org/CodeSystem/measure-population",
              "code": "denominator-exclusion",
              "display": "Denominator Exclusion"
            } ]
          },
          "count": 0
        }, {
          "id": "Numerator_1",
          "code": {
            "coding": [ {
              "system": "http://terminology.hl7.org/CodeSystem/measure-population",
              "code": "numerator",
              "display": "Numerator"
            } ]
          },
          "count": 0
        }, {
          "id": "DenominatorException_1",
          "code": {
            "coding": [ {
              "system": "http://terminology.hl7.org/CodeSystem/measure-population",
              "code": "denominator-exception",
              "display": "Denominator Exception"
            } ]
          },
          "count": 0
        } ],
        "measureScore": {
          "value": 0.0
        }
      } ],
      "evaluatedResource": [ {
        "reference": "Patient/6bbc3f38-7f5f-4da9-9beb-eb32874fd1ed"
      }, {
        "reference": "Encounter/52d769bf-952d-4840-871d-b9cad4a31c88"
      }, {
        "reference": "Encounter/2971374f-cb62-4f89-8746-b89e7b8010af"
      }, {
        "reference": "Encounter/7f098c08-e7ac-4ec6-97a3-86d88553fbf5"
      }, {
        "reference": "Procedure/f1ee85b6-112b-4451-bb8b-061b8f1badd9"
      }, {
        "reference": "Condition/3706b6ca-c044-4d03-8f75-6e6c8b9d150d"
      }, {
        "reference": "Claim/5ca62962b8484628b8de1ec5"
      }, {
        "reference": "Coverage/18d8942e-48e4-4d40-94ba-aba92fb030c4"
      }, {
        "reference": "Organization/7181c1a1-6432-4b6f-886f-576ff206b583"
      } ]
    },
    "request": {
      "method": "PUT",
      "url": "MeasureReport/b3da83c7-a090-4f53-bd8b-c25510116c7f"
    }
  } ]
}