{
  "resourceType": "Bundle",
  "id": "6129133702c62a011f2e66b1",
  "type": "transaction",
  "entry": [ {
    "fullUrl": "https://madie.cms.gov/Patient/39a21e09-33d0-45ca-99eb-b839c1676e1a",
    "resource": {
      "resourceType": "Patient",
      "id": "39a21e09-33d0-45ca-99eb-b839c1676e1a",
      "meta": {
        "profile": [ "http://hl7.org/fhir/us/qicore/StructureDefinition/qicore-patient" ]
      },
      "text": {
        "status": "generated",
        "div": "<div xmlns=\"http://www.w3.org/1999/xhtml\"><div class=\"hapiHeaderText\">age_eq18 <b>IPPASS </b></div><table class=\"hapiPropertyTable\"><tbody><tr><td>Identifier</td><td>863343be4401c0595cb63d1a10a15d35</td></tr><tr><td>Date of birth</td><td><span>31 May 1994</span></td></tr></tbody></table></div>"
      },
      "extension": [ {
        "url": "http://hl7.org/fhir/us/core/StructureDefinition/us-core-race",
        "extension": [ {
          "url": "ombCategory",
          "valueCoding": {
            "system": "urn:oid:2.16.840.1.113883.6.238",
            "code": "1002-5",
            "display": "American Indian or Alaska Native",
            "userSelected": true
          }
        }, {
          "url": "text",
          "valueString": "American Indian or Alaska Native"
        } ]
      }, {
        "url": "http://hl7.org/fhir/us/core/StructureDefinition/us-core-ethnicity",
        "extension": [ {
          "url": "ombCategory",
          "valueCoding": {
            "system": "urn:oid:2.16.840.1.113883.6.238",
            "code": "2135-2",
            "display": "Hispanic or Latino",
            "userSelected": true
          }
        }, {
          "url": "text",
          "valueString": "Hispanic or Latino"
        } ]
      } ],
      "identifier": [ {
        "type": {
          "coding": [ {
            "system": "http://terminology.hl7.org/CodeSystem/v2-0203",
            "code": "MR"
          } ]
        },
        "system": "https://bonnie-fhir.healthit.gov/",
        "value": "6129133702c62a011f2e66b1"
      } ],
      "active": true,
      "name": [ {
        "use": "usual",
        "family": "IPPass",
        "given": [ "ageeq18Ischemic" ]
      } ],
      "gender": "male",
      "birthDate": "2007-05-31"
    },
    "request": {
      "method": "PUT",
      "url": "Patient/39a21e09-33d0-45ca-99eb-b839c1676e1a"
    }
  }, {
    "fullUrl": "https://madie.cms.gov/Encounter/d814e601-e487-4049-b8ef-374473d24d77",
    "resource": {
      "resourceType": "Encounter",
      "id": "d814e601-e487-4049-b8ef-374473d24d77",
      "meta": {
        "profile": [ "http://hl7.org/fhir/us/qicore/StructureDefinition/qicore-encounter" ]
      },
      "status": "finished",
      "class": {
        "system": "http://terminology.hl7.org/CodeSystem/v3-ActCode",
        "code": "IMP",
        "display": "inpatient encounter"
      },
      "type": [ {
        "coding": [ {
          "system": "http://snomed.info/sct",
          "code": "32485007"
        } ]
      } ],
      "subject": {
        "reference": "Patient/39a21e09-33d0-45ca-99eb-b839c1676e1a"
      },
      "period": {
        "start": "2026-06-15T09:30:00.000+00:00",
        "end": "2026-10-12T10:30:00.000+00:00"
      },
      "length": {
        "value": 119,
        "unit": "days"
      }
    },
    "request": {
      "method": "PUT",
      "url": "Encounter/d814e601-e487-4049-b8ef-374473d24d77"
    }
  }, {
    "fullUrl": "https://madie.cms.gov/MedicationRequest/b5be2044-9c99-468d-940b-c59a34c7c321",
    "resource": {
      "resourceType": "MedicationRequest",
      "id": "b5be2044-9c99-468d-940b-c59a34c7c321",
      "meta": {
        "profile": [ "http://hl7.org/fhir/us/qicore/StructureDefinition/qicore-medicationrequest" ]
      },
      "status": "active",
      "intent": "order",
      "category": [ {
        "coding": [ {
          "system": "http://terminology.hl7.org/CodeSystem/medicationrequest-category",
          "code": "discharge",
          "display": "Discharge",
          "userSelected": true
        } ]
      } ],
      "medicationCodeableConcept": {
        "coding": [ {
          "system": "http://www.nlm.nih.gov/research/umls/rxnorm",
          "code": "1037045"
        } ]
      },
      "subject": {
        "reference": "Patient/39a21e09-33d0-45ca-99eb-b839c1676e1a"
      },
      "authoredOn": "2026-10-10T10:00:00.000+00:00",
      "requester": {
        "reference": "Practitioner/example"
      }
    },
    "request": {
      "method": "PUT",
      "url": "MedicationRequest/b5be2044-9c99-468d-940b-c59a34c7c321"
    }
  }, {
    "fullUrl": "https://madie.cms.gov/Condition/00dd3179-0196-4d69-a10f-46a161795ba2",
    "resource": {
      "resourceType": "Condition",
      "id": "00dd3179-0196-4d69-a10f-46a161795ba2",
      "meta": {
        "profile": [ "http://hl7.org/fhir/us/qicore/StructureDefinition/qicore-condition-encounter-diagnosis" ]
      },
      "clinicalStatus": {
        "coding": [ {
          "system": "http://terminology.hl7.org/CodeSystem/condition-clinical",
          "code": "active"
        } ]
      },
      "verificationStatus": {
        "coding": [ {
          "system": "http://terminology.hl7.org/CodeSystem/condition-ver-status",
          "code": "confirmed"
        } ]
      },
      "category": [ {
        "coding": [ {
          "system": "http://terminology.hl7.org/CodeSystem/condition-category",
          "code": "encounter-diagnosis",
          "display": "Encounter Diagnosis"
        } ]
      } ],
      "code": {
        "coding": [ {
          "system": "http://snomed.info/sct",
          "version": "2020-09",
          "code": "111297002",
          "display": "Nonparalytic stroke (disorder)",
          "userSelected": true
        } ]
      },
      "subject": {
        "reference": "Patient/39a21e09-33d0-45ca-99eb-b839c1676e1a"
      },
      "encounter": {
        "reference": "Encounter/d814e601-e487-4049-b8ef-374473d24d77"
      },
      "recordedDate": "2026-07-15T08:00:00.000+00:00"
    },
    "request": {
      "method": "PUT",
      "url": "Condition/00dd3179-0196-4d69-a10f-46a161795ba2"
    }
  }, {
    "fullUrl": "https://madie.cms.gov/Claim/c0f68bca-66c6-42e0-b24d-210ce47d2dda",
    "resource": {
      "resourceType": "Claim",
      "id": "c0f68bca-66c6-42e0-b24d-210ce47d2dda",
      "meta": {
        "profile": [ "http://hl7.org/fhir/us/qicore/StructureDefinition/qicore-claim" ]
      },
      "status": "active",
      "type": {
        "coding": [ {
          "system": "http://terminology.hl7.org/CodeSystem/claim-type",
          "code": "institutional"
        } ]
      },
      "use": "claim",
      "patient": {
        "reference": "Patient/39a21e09-33d0-45ca-99eb-b839c1676e1a"
      },
      "created": "2026-12-01",
      "provider": {
        "reference": "Practitioner/practitioner-123456"
      },
      "priority": {
        "coding": [ {
          "system": "http://terminology.hl7.org/CodeSystem/processpriority",
          "code": "normal"
        } ]
      },
      "diagnosis": [ {
        "sequence": 1,
        "diagnosisCodeableConcept": {
          "coding": [ {
            "system": "http://hl7.org/fhir/sid/icd-10-cm",
            "code": "I63.00"
          } ]
        },
        "type": [ {
          "coding": [ {
            "system": "http://terminology.hl7.org/CodeSystem/ex-diagnosistype",
            "code": "principal"
          } ]
        } ]
      } ],
      "insurance": [ {
        "sequence": 1,
        "focal": true,
        "coverage": {
          "reference": "Coverage/5fa041661c76ba66d9959367"
        }
      } ],
      "item": [ {
        "sequence": 1,
        "diagnosisSequence": [ 1 ],
        "productOrService": {
          "coding": [ {
            "system": "http://terminology.hl7.org/CodeSystem/ex-USCLS",
            "code": "99555"
          } ]
        },
        "encounter": [ {
          "reference": "Encounter/d814e601-e487-4049-b8ef-374473d24d77"
        } ]
      } ]
    },
    "request": {
      "method": "PUT",
      "url": "Claim/c0f68bca-66c6-42e0-b24d-210ce47d2dda"
    }
  }, {
    "fullUrl": "https://madie.cms.gov/Coverage/a6bf1236-8270-4d97-93a5-db0e10b64a26",
    "resource": {
      "resourceType": "Coverage",
      "id": "a6bf1236-8270-4d97-93a5-db0e10b64a26",
      "meta": {
        "profile": [ "http://hl7.org/fhir/us/qicore/StructureDefinition/qicore-coverage" ]
      },
      "status": "active",
      "subscriberId": "523435",
      "beneficiary": {
        "reference": "Patient/39a21e09-33d0-45ca-99eb-b839c1676e1a"
      },
      "relationship": {
        "coding": [ {
          "system": "http://terminology.hl7.org/CodeSystem/subscriber-relationship",
          "code": "self"
        } ]
      },
      "payor": [ {
        "reference": "Organization/f8b9ab0a-41bc-4f69-bfdf-c1b52964eb4f"
      } ]
    },
    "request": {
      "method": "PUT",
      "url": "Coverage/a6bf1236-8270-4d97-93a5-db0e10b64a26"
    }
  }, {
    "fullUrl": "https://madie.cms.gov/Organization/f8b9ab0a-41bc-4f69-bfdf-c1b52964eb4f",
    "resource": {
      "resourceType": "Organization",
      "id": "f8b9ab0a-41bc-4f69-bfdf-c1b52964eb4f",
      "meta": {
        "profile": [ "http://hl7.org/fhir/us/qicore/StructureDefinition/qicore-organization" ]
      },
      "identifier": [ {
        "use": "temp",
        "system": "urn:oid:2.16.840.1.113883.4.4",
        "value": "21-3259825"
      } ],
      "active": true,
      "type": [ {
        "coding": [ {
          "system": "http://terminology.hl7.org/CodeSystem/organization-type",
          "code": "pay",
          "display": "Payer"
        } ]
      } ],
      "name": "Blue Cross Blue Shield of Texas",
      "telecom": [ {
        "system": "phone",
        "value": "(+1) 972-766-6900"
      } ],
      "address": [ {
        "use": "billing",
        "type": "postal",
        "line": [ "P.O. Box 660044" ],
        "city": "Dallas",
        "state": "TX",
        "postalCode": "75266-0044",
        "country": "USA"
      } ]
    },
    "request": {
      "method": "PUT",
      "url": "Organization/f8b9ab0a-41bc-4f69-bfdf-c1b52964eb4f"
    }
  }, {
    "fullUrl": "https://madie.cms.gov/MeasureReport/cb547654-ef36-4d77-bb3a-c86e68d04c84",
    "resource": {
      "resourceType": "MeasureReport",
      "id": "cb547654-ef36-4d77-bb3a-c86e68d04c84",
      "meta": {
        "profile": [ "http://hl7.org/fhir/us/cqfmeasures/StructureDefinition/test-case-cqfm" ]
      },
      "contained": [ {
        "resourceType": "Parameters",
        "id": "5da2f6e9-54d6-4878-b90e-b188823e161f-parameters",
        "parameter": [ {
          "name": "subject",
          "valueString": "39a21e09-33d0-45ca-99eb-b839c1676e1a"
        } ]
      } ],
      "extension": [ {
        "url": "http://hl7.org/fhir/StructureDefinition/cqf-inputParameters",
        "valueReference": {
          "reference": "#5da2f6e9-54d6-4878-b90e-b188823e161f-parameters"
        }
      }, {
        "url": "http://hl7.org/fhir/us/cqfmeasures/StructureDefinition/cqfm-testCaseDescription",
        "valueMarkdown": "Age equal to 18 with ischemic stroke"
      } ],
      "modifierExtension": [ {
        "url": "http://hl7.org/fhir/us/cqfmeasures/StructureDefinition/cqfm-isTestCase",
        "valueBoolean": true
      } ],
      "status": "complete",
      "type": "individual",
      "measure": "https://madie.cms.gov/Measure/CMS104FHIRSTKDCAntithrombotic",
      "period": {
        "start": "2026-01-01",
        "end": "2026-12-31"
      },
      "group": [ {
        "id": "Group_1",
        "population": [ {
          "id": "InitialPopulation_1",
          "code": {
            "coding": [ {
              "system": "http://terminology.hl7.org/CodeSystem/measure-population",
              "code": "initial-population",
              "display": "Initial Population"
            } ]
          },
          "count": 1
        }, {
          "id": "Denominator_1",
          "code": {
            "coding": [ {
              "system": "http://terminology.hl7.org/CodeSystem/measure-population",
              "code": "denominator",
              "display": "Denominator"
            } ]
          },
          "count": 1
        }, {
          "id": "DenominatorExclusion_1",
          "code": {
            "coding": [ {
              "system": "http://terminology.hl7.org/CodeSystem/measure-population",
              "code": "denominator-exclusion",
              "display": "Denominator Exclusion"
            } ]
          },
          "count": 0
        }, {
          "id": "Numerator_1",
          "code": {
            "coding": [ {
              "system": "http://terminology.hl7.org/CodeSystem/measure-population",
              "code": "numerator",
              "display": "Numerator"
            } ]
          },
          "count": 1
        }, {
          "id": "DenominatorException_1",
          "code": {
            "coding": [ {
              "system": "http://terminology.hl7.org/CodeSystem/measure-population",
              "code": "denominator-exception",
              "display": "Denominator Exception"
            } ]
          },
          "count": 0
        } ],
        "measureScore": {
          "value": 0.0
        }
      } ],
      "evaluatedResource": [ {
        "reference": "Patient/39a21e09-33d0-45ca-99eb-b839c1676e1a"
      }, {
        "reference": "Encounter/d814e601-e487-4049-b8ef-374473d24d77"
      }, {
        "reference": "MedicationRequest/b5be2044-9c99-468d-940b-c59a34c7c321"
      }, {
        "reference": "Condition/00dd3179-0196-4d69-a10f-46a161795ba2"
      }, {
        "reference": "Claim/c0f68bca-66c6-42e0-b24d-210ce47d2dda"
      }, {
        "reference": "Coverage/a6bf1236-8270-4d97-93a5-db0e10b64a26"
      }, {
        "reference": "Organization/f8b9ab0a-41bc-4f69-bfdf-c1b52964eb4f"
      } ]
    },
    "request": {
      "method": "PUT",
      "url": "MeasureReport/cb547654-ef36-4d77-bb3a-c86e68d04c84"
    }
  } ]
}