{
  "resourceType": "Bundle",
  "id": "63487c2e0968f8012254018b",
  "type": "transaction",
  "entry": [ {
    "fullUrl": "https://madie.cms.gov/Patient/82f21ead-f571-4c37-9f50-805db63f44c6",
    "resource": {
      "resourceType": "Patient",
      "id": "82f21ead-f571-4c37-9f50-805db63f44c6",
      "meta": {
        "profile": [ "http://hl7.org/fhir/us/qicore/StructureDefinition/qicore-patient" ]
      },
      "text": {
        "status": "generated",
        "div": "<div xmlns=\"http://www.w3.org/1999/xhtml\"><div class=\"hapiHeaderText\">DxCodeOf37Weeks<b>DENOMPASS</b></div><table class=\"hapiPropertyTable\"><tbody><tr><td>Identifier</td><td>26ae2095ae359d33c45002ef417f38a5e4f6a61da3ea75d0332f68a4cb93137e</td></tr><tr><td>Date of birth</td><td><span>14 February 1985</span></td></tr></tbody></table></div>"
      },
      "extension": [ {
        "url": "http://hl7.org/fhir/us/core/StructureDefinition/us-core-race",
        "extension": [ {
          "url": "ombCategory",
          "valueCoding": {
            "system": "urn:oid:2.16.840.1.113883.6.238",
            "code": "1002-5",
            "display": "American Indian or Alaska Native",
            "userSelected": true
          }
        }, {
          "url": "text",
          "valueString": "American Indian or Alaska Native"
        } ]
      }, {
        "url": "http://hl7.org/fhir/us/core/StructureDefinition/us-core-ethnicity",
        "extension": [ {
          "url": "ombCategory",
          "valueCoding": {
            "system": "urn:oid:2.16.840.1.113883.6.238",
            "code": "2135-2",
            "display": "Hispanic or Latino",
            "userSelected": true
          }
        }, {
          "url": "text",
          "valueString": "Hispanic or Latino"
        } ]
      } ],
      "identifier": [ {
        "type": {
          "coding": [ {
            "system": "http://terminology.hl7.org/CodeSystem/v2-0203",
            "code": "MR"
          } ]
        },
        "system": "https://bonnie-fhir.healthit.gov/",
        "value": "63487c2e0968f8012254018b"
      } ],
      "active": true,
      "name": [ {
        "use": "usual",
        "family": "DENOMPass",
        "given": [ "DxCodeOf37Weeks" ]
      } ],
      "gender": "female",
      "birthDate": "1998-02-14"
    },
    "request": {
      "method": "PUT",
      "url": "Patient/82f21ead-f571-4c37-9f50-805db63f44c6"
    }
  }, {
    "fullUrl": "https://madie.cms.gov/Observation/85661a34-e3cc-4a13-a8b8-44b8b926f0ed",
    "resource": {
      "resourceType": "Observation",
      "id": "85661a34-e3cc-4a13-a8b8-44b8b926f0ed",
      "meta": {
        "profile": [ "http://hl7.org/fhir/us/qicore/StructureDefinition/qicore-simple-observation" ]
      },
      "status": "final",
      "category": [ {
        "coding": [ {
          "system": "http://terminology.hl7.org/CodeSystem/observation-category",
          "code": "exam",
          "display": "exam",
          "userSelected": true
        } ]
      } ],
      "code": {
        "coding": [ {
          "system": "http://loinc.org",
          "code": "11996-6",
          "display": "Pregnancies"
        } ]
      },
      "subject": {
        "reference": "Patient/82f21ead-f571-4c37-9f50-805db63f44c6"
      },
      "effectiveDateTime": "2026-06-08T08:00:00.000+00:00",
      "performer": [ {
        "reference": "Organization/example1",
        "display": "Hendricks Country Hospital"
      } ],
      "valueInteger": 1
    },
    "request": {
      "method": "PUT",
      "url": "Observation/85661a34-e3cc-4a13-a8b8-44b8b926f0ed"
    }
  }, {
    "fullUrl": "https://madie.cms.gov/Observation/b8a342d8-7ace-473a-921b-1da22ec6c7a0",
    "resource": {
      "resourceType": "Observation",
      "id": "b8a342d8-7ace-473a-921b-1da22ec6c7a0",
      "meta": {
        "profile": [ "http://hl7.org/fhir/us/qicore/StructureDefinition/qicore-simple-observation" ]
      },
      "status": "final",
      "category": [ {
        "coding": [ {
          "system": "http://terminology.hl7.org/CodeSystem/observation-category",
          "code": "exam",
          "display": "exam",
          "userSelected": true
        } ]
      } ],
      "code": {
        "coding": [ {
          "system": "http://loinc.org",
          "code": "93857-1",
          "display": "Date and time of obstetric delivery"
        } ]
      },
      "subject": {
        "reference": "Patient/82f21ead-f571-4c37-9f50-805db63f44c6"
      },
      "effectiveDateTime": "2026-06-08T20:00:00.000+00:00",
      "performer": [ {
        "reference": "Organization/example1",
        "display": "Hendricks Country Hospital"
      } ],
      "valueDateTime": "2026-06-08T20:00:00.000+00:00"
    },
    "request": {
      "method": "PUT",
      "url": "Observation/b8a342d8-7ace-473a-921b-1da22ec6c7a0"
    }
  }, {
    "fullUrl": "https://madie.cms.gov/Encounter/1c8b7740-0675-44d0-a3fd-3a75b5dcaa72",
    "resource": {
      "resourceType": "Encounter",
      "id": "1c8b7740-0675-44d0-a3fd-3a75b5dcaa72",
      "meta": {
        "profile": [ "http://hl7.org/fhir/us/qicore/StructureDefinition/qicore-encounter" ]
      },
      "status": "finished",
      "class": {
        "system": "http://terminology.hl7.org/CodeSystem/v3-ActCode",
        "code": "IMP",
        "display": "inpatient encounter"
      },
      "type": [ {
        "coding": [ {
          "system": "http://snomed.info/sct",
          "code": "8715000"
        } ]
      } ],
      "subject": {
        "reference": "Patient/82f21ead-f571-4c37-9f50-805db63f44c6"
      },
      "period": {
        "start": "2026-06-08T08:00:00.000+00:00",
        "end": "2026-06-10T08:15:00.000+00:00"
      },
      "reasonCode": [ {
        "coding": [ {
          "system": "http://snomed.info/sct",
          "code": "169826009",
          "display": "Single live birth from singleton pregnancy (finding)"
        } ]
      } ],
      "reasonReference": [ {
        "reference": "Condition/46d224ec-f2a3-4c6f-8881-8bbab201a1e0"
      } ]
    },
    "request": {
      "method": "PUT",
      "url": "Encounter/1c8b7740-0675-44d0-a3fd-3a75b5dcaa72"
    }
  }, {
    "fullUrl": "https://madie.cms.gov/Procedure/c70c29f2-d63c-4e7b-bae6-c733bbe8505e",
    "resource": {
      "resourceType": "Procedure",
      "id": "c70c29f2-d63c-4e7b-bae6-c733bbe8505e",
      "meta": {
        "profile": [ "http://hl7.org/fhir/us/qicore/StructureDefinition/qicore-procedure" ]
      },
      "extension": [ {
        "url": "http://hl7.org/fhir/us/qicore/StructureDefinition/qicore-recorded",
        "valueDateTime": "2014-04-05T13:35:00.000+00:00"
      } ],
      "status": "completed",
      "code": {
        "coding": [ {
          "system": "http://snomed.info/sct",
          "version": "2022-09",
          "code": "10745001",
          "display": "Delivery of transverse presentation (procedure)",
          "userSelected": true
        } ]
      },
      "subject": {
        "reference": "Patient/82f21ead-f571-4c37-9f50-805db63f44c6"
      },
      "performedPeriod": {
        "start": "2026-06-08T20:00:00.000+00:00",
        "end": "2026-06-10T20:00:00.000+00:00"
      }
    },
    "request": {
      "method": "PUT",
      "url": "Procedure/c70c29f2-d63c-4e7b-bae6-c733bbe8505e"
    }
  }, {
    "fullUrl": "https://madie.cms.gov/Condition/54feab72-5a48-4324-bbe9-d19958dcfcaf",
    "resource": {
      "resourceType": "Condition",
      "id": "54feab72-5a48-4324-bbe9-d19958dcfcaf",
      "meta": {
        "profile": [ "http://hl7.org/fhir/us/qicore/StructureDefinition/qicore-condition-encounter-diagnosis" ]
      },
      "category": [ {
        "coding": [ {
          "system": "http://terminology.hl7.org/CodeSystem/condition-category",
          "code": "encounter-diagnosis",
          "display": "Encounter Diagnosis"
        } ]
      } ],
      "code": {
        "coding": [ {
          "system": "http://snomed.info/sct",
          "version": "2022-09",
          "code": "169826009",
          "display": "Single live birth from singleton pregnancy (finding)",
          "userSelected": true
        } ]
      },
      "subject": {
        "reference": "Patient/82f21ead-f571-4c37-9f50-805db63f44c6"
      },
      "encounter": {
        "reference": "Encounter/1c8b7740-0675-44d0-a3fd-3a75b5dcaa72"
      },
      "recordedDate": "2026-10-17T08:00:00.000+00:00"
    },
    "request": {
      "method": "PUT",
      "url": "Condition/54feab72-5a48-4324-bbe9-d19958dcfcaf"
    }
  }, {
    "fullUrl": "https://madie.cms.gov/Condition/46d224ec-f2a3-4c6f-8881-8bbab201a1e0",
    "resource": {
      "resourceType": "Condition",
      "id": "46d224ec-f2a3-4c6f-8881-8bbab201a1e0",
      "meta": {
        "profile": [ "http://hl7.org/fhir/us/qicore/StructureDefinition/qicore-condition-encounter-diagnosis" ]
      },
      "category": [ {
        "coding": [ {
          "system": "http://terminology.hl7.org/CodeSystem/condition-category",
          "code": "encounter-diagnosis",
          "display": "Encounter Diagnosis"
        } ]
      } ],
      "code": {
        "coding": [ {
          "system": "http://snomed.info/sct",
          "version": "2022-09",
          "code": "43697006",
          "display": "Gestation period, 37 weeks (finding)",
          "userSelected": true
        } ]
      },
      "subject": {
        "reference": "Patient/82f21ead-f571-4c37-9f50-805db63f44c6"
      },
      "encounter": {
        "reference": "Encounter/5ca6295db8484628b8de1d45"
      },
      "recordedDate": "2026-10-17T08:00:00.000+00:00"
    },
    "request": {
      "method": "PUT",
      "url": "Condition/46d224ec-f2a3-4c6f-8881-8bbab201a1e0"
    }
  }, {
    "fullUrl": "https://madie.cms.gov/Coverage/15755f1d-06b7-451f-8377-93a28284b461",
    "resource": {
      "resourceType": "Coverage",
      "id": "15755f1d-06b7-451f-8377-93a28284b461",
      "meta": {
        "profile": [ "http://hl7.org/fhir/us/qicore/StructureDefinition/qicore-coverage" ]
      },
      "status": "active",
      "subscriberId": "523435",
      "beneficiary": {
        "reference": "Patient/82f21ead-f571-4c37-9f50-805db63f44c6"
      },
      "relationship": {
        "coding": [ {
          "system": "http://terminology.hl7.org/CodeSystem/subscriber-relationship",
          "code": "self"
        } ]
      },
      "payor": [ {
        "reference": "Organization/0595f561-0234-4558-a6bf-83c66d80eba3"
      } ]
    },
    "request": {
      "method": "PUT",
      "url": "Coverage/15755f1d-06b7-451f-8377-93a28284b461"
    }
  }, {
    "fullUrl": "https://madie.cms.gov/Organization/0595f561-0234-4558-a6bf-83c66d80eba3",
    "resource": {
      "resourceType": "Organization",
      "id": "0595f561-0234-4558-a6bf-83c66d80eba3",
      "meta": {
        "profile": [ "http://hl7.org/fhir/us/qicore/StructureDefinition/qicore-organization" ]
      },
      "identifier": [ {
        "use": "temp",
        "system": "urn:oid:2.16.840.1.113883.4.4",
        "value": "21-3259825"
      } ],
      "active": true,
      "type": [ {
        "coding": [ {
          "system": "http://terminology.hl7.org/CodeSystem/organization-type",
          "code": "pay",
          "display": "Payer"
        } ]
      } ],
      "name": "Blue Cross Blue Shield of Texas",
      "telecom": [ {
        "system": "phone",
        "value": "(+1) 972-766-6900"
      } ],
      "address": [ {
        "use": "billing",
        "type": "postal",
        "line": [ "P.O. Box 660044" ],
        "city": "Dallas",
        "state": "TX",
        "postalCode": "75266-0044",
        "country": "USA"
      } ]
    },
    "request": {
      "method": "PUT",
      "url": "Organization/0595f561-0234-4558-a6bf-83c66d80eba3"
    }
  }, {
    "fullUrl": "https://madie.cms.gov/Practitioner/b375c7a9-b37e-402c-ade9-d7a53f554aa5",
    "resource": {
      "resourceType": "Practitioner",
      "id": "b375c7a9-b37e-402c-ade9-d7a53f554aa5",
      "meta": {
        "profile": [ "http://hl7.org/fhir/us/qicore/StructureDefinition/qicore-practitioner" ]
      },
      "identifier": [ {
        "system": "http://hl7.org/fhir/sid/us-npi",
        "value": "1234567890"
      } ],
      "name": [ {
        "family": "Evil",
        "prefix": [ "Dr" ]
      } ]
    },
    "request": {
      "method": "PUT",
      "url": "Practitioner/b375c7a9-b37e-402c-ade9-d7a53f554aa5"
    }
  }, {
    "fullUrl": "https://madie.cms.gov/MeasureReport/a50136d8-2fd4-4f89-97da-22e486991218",
    "resource": {
      "resourceType": "MeasureReport",
      "id": "a50136d8-2fd4-4f89-97da-22e486991218",
      "meta": {
        "profile": [ "http://hl7.org/fhir/us/cqfmeasures/StructureDefinition/test-case-cqfm" ]
      },
      "contained": [ {
        "resourceType": "Parameters",
        "id": "3ea9bd1c-4eba-4703-8bc5-01e51a6152fc-parameters",
        "parameter": [ {
          "name": "subject",
          "valueString": "82f21ead-f571-4c37-9f50-805db63f44c6"
        } ]
      } ],
      "extension": [ {
        "url": "http://hl7.org/fhir/StructureDefinition/cqf-inputParameters",
        "valueReference": {
          "reference": "#3ea9bd1c-4eba-4703-8bc5-01e51a6152fc-parameters"
        }
      }, {
        "url": "http://hl7.org/fhir/us/cqfmeasures/StructureDefinition/cqfm-testCaseDescription",
        "valueMarkdown": "CGA and EGA are not present.  Diagnosis code of 37 weeks will pass Denom."
      } ],
      "modifierExtension": [ {
        "url": "http://hl7.org/fhir/us/cqfmeasures/StructureDefinition/cqfm-isTestCase",
        "valueBoolean": true
      } ],
      "status": "complete",
      "type": "individual",
      "measure": "https://madie.cms.gov/Measure/CMS0334FHIRPCCesareanBirth",
      "period": {
        "start": "2026-01-01",
        "end": "2026-12-31"
      },
      "group": [ {
        "id": "Group_1",
        "population": [ {
          "id": "InitialPopulation_1",
          "code": {
            "coding": [ {
              "system": "http://terminology.hl7.org/CodeSystem/measure-population",
              "code": "initial-population",
              "display": "Initial Population"
            } ]
          },
          "count": 1
        }, {
          "id": "Denominator_1",
          "code": {
            "coding": [ {
              "system": "http://terminology.hl7.org/CodeSystem/measure-population",
              "code": "denominator",
              "display": "Denominator"
            } ]
          },
          "count": 1
        }, {
          "id": "DenominatorExclusion_1",
          "code": {
            "coding": [ {
              "system": "http://terminology.hl7.org/CodeSystem/measure-population",
              "code": "denominator-exclusion",
              "display": "Denominator Exclusion"
            } ]
          },
          "count": 0
        }, {
          "id": "Numerator_1",
          "code": {
            "coding": [ {
              "system": "http://terminology.hl7.org/CodeSystem/measure-population",
              "code": "numerator",
              "display": "Numerator"
            } ]
          },
          "count": 0
        } ],
        "measureScore": {
          "value": 0.0
        }
      } ],
      "evaluatedResource": [ {
        "reference": "Patient/82f21ead-f571-4c37-9f50-805db63f44c6"
      }, {
        "reference": "Observation/85661a34-e3cc-4a13-a8b8-44b8b926f0ed"
      }, {
        "reference": "Observation/b8a342d8-7ace-473a-921b-1da22ec6c7a0"
      }, {
        "reference": "Encounter/1c8b7740-0675-44d0-a3fd-3a75b5dcaa72"
      }, {
        "reference": "Procedure/c70c29f2-d63c-4e7b-bae6-c733bbe8505e"
      }, {
        "reference": "Condition/54feab72-5a48-4324-bbe9-d19958dcfcaf"
      }, {
        "reference": "Condition/46d224ec-f2a3-4c6f-8881-8bbab201a1e0"
      }, {
        "reference": "Coverage/15755f1d-06b7-451f-8377-93a28284b461"
      }, {
        "reference": "Organization/0595f561-0234-4558-a6bf-83c66d80eba3"
      }, {
        "reference": "Practitioner/b375c7a9-b37e-402c-ade9-d7a53f554aa5"
      } ]
    },
    "request": {
      "method": "PUT",
      "url": "MeasureReport/a50136d8-2fd4-4f89-97da-22e486991218"
    }
  } ]
}