{
  "resourceType": "Bundle",
  "id": "60f82c2e98086b570510e282",
  "type": "transaction",
  "entry": [ {
    "fullUrl": "https://madie.cms.gov/Patient/3fbd6ec2-8d40-45e7-90d7-747d7c491c1a",
    "resource": {
      "resourceType": "Patient",
      "id": "3fbd6ec2-8d40-45e7-90d7-747d7c491c1a",
      "meta": {
        "profile": [ "http://hl7.org/fhir/us/qicore/StructureDefinition/qicore-patient" ]
      },
      "text": {
        "status": "generated",
        "div": "<div xmlns=\"http://www.w3.org/1999/xhtml\"><div class=\"hapiHeaderText\">Med1TPAStart_inGap_ofEDandEncIP <b>DENEXPASS </b></div><table class=\"hapiPropertyTable\"><tbody><tr><td>Identifier</td><td>b0519c7cbaeef57f16bed4e113c51983</td></tr><tr><td>Date of birth</td><td><span>26 September 1975</span></td></tr></tbody></table></div>"
      },
      "extension": [ {
        "url": "http://hl7.org/fhir/us/core/StructureDefinition/us-core-race",
        "extension": [ {
          "url": "ombCategory",
          "valueCoding": {
            "system": "urn:oid:2.16.840.1.113883.6.238",
            "code": "2054-5",
            "display": "Black or African American",
            "userSelected": true
          }
        }, {
          "url": "text",
          "valueString": "Black or African American"
        } ]
      }, {
        "url": "http://hl7.org/fhir/us/core/StructureDefinition/us-core-ethnicity",
        "extension": [ {
          "url": "ombCategory",
          "valueCoding": {
            "system": "urn:oid:2.16.840.1.113883.6.238",
            "code": "2186-5",
            "display": "Not Hispanic or Latino",
            "userSelected": true
          }
        }, {
          "url": "text",
          "valueString": "Not Hispanic or Latino"
        } ]
      } ],
      "identifier": [ {
        "type": {
          "coding": [ {
            "system": "http://terminology.hl7.org/CodeSystem/v2-0203",
            "code": "MR"
          } ]
        },
        "system": "https://bonnie-fhir.healthit.gov/",
        "value": "60f82c2e98086b570510e282"
      } ],
      "active": true,
      "name": [ {
        "use": "usual",
        "family": "DENEXPass",
        "given": [ "Med1TPAStartinGapofEDandEncIP" ]
      } ],
      "gender": "female",
      "birthDate": "1976-09-26"
    },
    "request": {
      "method": "PUT",
      "url": "Patient/3fbd6ec2-8d40-45e7-90d7-747d7c491c1a"
    }
  }, {
    "fullUrl": "https://madie.cms.gov/Encounter/dbb7dc75-8e86-439d-906a-86d7380ffd7c",
    "resource": {
      "resourceType": "Encounter",
      "id": "dbb7dc75-8e86-439d-906a-86d7380ffd7c",
      "meta": {
        "profile": [ "http://hl7.org/fhir/us/qicore/StructureDefinition/qicore-encounter" ]
      },
      "status": "finished",
      "class": {
        "system": "http://terminology.hl7.org/CodeSystem/v3-ActCode",
        "code": "EMER",
        "display": "emergency"
      },
      "type": [ {
        "coding": [ {
          "system": "http://snomed.info/sct",
          "code": "4525004"
        } ]
      } ],
      "subject": {
        "reference": "Patient/3fbd6ec2-8d40-45e7-90d7-747d7c491c1a"
      },
      "period": {
        "start": "2026-10-10T06:00:00.000+00:00",
        "end": "2026-10-10T08:30:00.000+00:00"
      },
      "length": {
        "value": 0,
        "unit": "days"
      }
    },
    "request": {
      "method": "PUT",
      "url": "Encounter/dbb7dc75-8e86-439d-906a-86d7380ffd7c"
    }
  }, {
    "fullUrl": "https://madie.cms.gov/Encounter/82032dbe-c2f8-4ed1-bbd2-febc2c18ba75",
    "resource": {
      "resourceType": "Encounter",
      "id": "82032dbe-c2f8-4ed1-bbd2-febc2c18ba75",
      "meta": {
        "profile": [ "http://hl7.org/fhir/us/qicore/StructureDefinition/qicore-encounter" ]
      },
      "status": "finished",
      "class": {
        "system": "http://terminology.hl7.org/CodeSystem/v3-ActCode",
        "code": "IMP",
        "display": "inpatient encounter"
      },
      "type": [ {
        "coding": [ {
          "system": "http://snomed.info/sct",
          "code": "32485007"
        } ]
      } ],
      "subject": {
        "reference": "Patient/3fbd6ec2-8d40-45e7-90d7-747d7c491c1a"
      },
      "period": {
        "start": "2026-10-10T09:00:00.000+00:00",
        "end": "2026-10-12T11:15:00.000+00:00"
      },
      "length": {
        "value": 2,
        "unit": "days"
      },
      "reasonReference": [ {
        "reference": "Condition/7d32939e-77e6-46f9-80af-df7d4bf79ea3"
      } ]
    },
    "request": {
      "method": "PUT",
      "url": "Encounter/82032dbe-c2f8-4ed1-bbd2-febc2c18ba75"
    }
  }, {
    "fullUrl": "https://madie.cms.gov/MedicationAdministration/6f18a0f8-e446-4fc4-8ace-1abc0f198ec4",
    "resource": {
      "resourceType": "MedicationAdministration",
      "id": "6f18a0f8-e446-4fc4-8ace-1abc0f198ec4",
      "meta": {
        "profile": [ "http://hl7.org/fhir/us/qicore/StructureDefinition/qicore-medicationadministration" ]
      },
      "status": "completed",
      "medicationCodeableConcept": {
        "coding": [ {
          "system": "http://www.nlm.nih.gov/research/umls/rxnorm",
          "code": "1804799"
        } ]
      },
      "subject": {
        "reference": "Patient/3fbd6ec2-8d40-45e7-90d7-747d7c491c1a"
      },
      "effectivePeriod": {
        "start": "2026-10-10T08:35:00.000+00:00"
      }
    },
    "request": {
      "method": "PUT",
      "url": "MedicationAdministration/6f18a0f8-e446-4fc4-8ace-1abc0f198ec4"
    }
  }, {
    "fullUrl": "https://madie.cms.gov/Coverage/a82a3875-3fa8-477b-b5b4-5fffca43de38",
    "resource": {
      "resourceType": "Coverage",
      "id": "a82a3875-3fa8-477b-b5b4-5fffca43de38",
      "status": "active",
      "beneficiary": {
        "reference": "Patient/3fbd6ec2-8d40-45e7-90d7-747d7c491c1a"
      },
      "period": {
        "start": "1976-09-26T08:00:00.000+00:00"
      },
      "payor": [ {
        "reference": "Organization/cd1b1dfc-ce2a-4ec0-ba9e-a201a756dd19"
      } ]
    },
    "request": {
      "method": "PUT",
      "url": "Coverage/a82a3875-3fa8-477b-b5b4-5fffca43de38"
    }
  }, {
    "fullUrl": "https://madie.cms.gov/Condition/7d32939e-77e6-46f9-80af-df7d4bf79ea3",
    "resource": {
      "resourceType": "Condition",
      "id": "7d32939e-77e6-46f9-80af-df7d4bf79ea3",
      "meta": {
        "profile": [ "http://hl7.org/fhir/us/qicore/StructureDefinition/qicore-condition-encounter-diagnosis" ]
      },
      "clinicalStatus": {
        "coding": [ {
          "system": "http://terminology.hl7.org/CodeSystem/condition-clinical",
          "code": "active"
        } ]
      },
      "verificationStatus": {
        "coding": [ {
          "system": "http://terminology.hl7.org/CodeSystem/condition-ver-status",
          "code": "confirmed"
        } ]
      },
      "category": [ {
        "coding": [ {
          "system": "http://terminology.hl7.org/CodeSystem/condition-category",
          "code": "encounter-diagnosis",
          "display": "Encounter Diagnosis"
        } ]
      } ],
      "code": {
        "coding": [ {
          "system": "http://snomed.info/sct",
          "version": "2020-09",
          "code": "111297002",
          "display": "Nonparalytic stroke (disorder)",
          "userSelected": true
        } ]
      },
      "subject": {
        "reference": "Patient/3fbd6ec2-8d40-45e7-90d7-747d7c491c1a"
      },
      "encounter": {
        "reference": "Encounter/82032dbe-c2f8-4ed1-bbd2-febc2c18ba75"
      },
      "recordedDate": "2026-08-13T08:00:00.000+00:00"
    },
    "request": {
      "method": "PUT",
      "url": "Condition/7d32939e-77e6-46f9-80af-df7d4bf79ea3"
    }
  }, {
    "fullUrl": "https://madie.cms.gov/claim/5ca62962b8484628b8de1ec5",
    "resource": {
      "resourceType": "Claim",
      "id": "5ca62962b8484628b8de1ec5",
      "meta": {
        "profile": [ "http://hl7.org/fhir/us/qicore/StructureDefinition/qicore-claim" ]
      },
      "status": "active",
      "type": {
        "coding": [ {
          "system": "http://terminology.hl7.org/CodeSystem/claim-type",
          "code": "institutional"
        } ]
      },
      "use": "claim",
      "patient": {
        "reference": "Patient/3fbd6ec2-8d40-45e7-90d7-747d7c491c1a"
      },
      "created": "2026-12-01",
      "provider": {
        "reference": "Practitioner/practitioner-123456"
      },
      "priority": {
        "coding": [ {
          "system": "http://terminology.hl7.org/CodeSystem/processpriority",
          "code": "normal"
        } ]
      },
      "diagnosis": [ {
        "sequence": 1,
        "diagnosisCodeableConcept": {
          "coding": [ {
            "system": "http://hl7.org/fhir/sid/icd-10-cm",
            "code": "I63.00"
          } ]
        },
        "type": [ {
          "coding": [ {
            "system": "http://terminology.hl7.org/CodeSystem/ex-diagnosistype",
            "code": "principal"
          } ]
        } ]
      } ],
      "insurance": [ {
        "sequence": 1,
        "focal": true,
        "coverage": {
          "reference": "Coverage/5fa041661c76ba66d9959367"
        }
      } ],
      "item": [ {
        "sequence": 1,
        "diagnosisSequence": [ 1 ],
        "productOrService": {
          "coding": [ {
            "system": "http://terminology.hl7.org/CodeSystem/ex-USCLS",
            "code": "99555"
          } ]
        },
        "encounter": [ {
          "reference": "Encounter/82032dbe-c2f8-4ed1-bbd2-febc2c18ba75"
        } ]
      } ]
    },
    "request": {
      "method": "PUT",
      "url": "Claim/5ca62962b8484628b8de1ec5"
    }
  }, {
    "fullUrl": "https://madie.cms.gov/Organization/cd1b1dfc-ce2a-4ec0-ba9e-a201a756dd19",
    "resource": {
      "resourceType": "Organization",
      "id": "cd1b1dfc-ce2a-4ec0-ba9e-a201a756dd19",
      "meta": {
        "profile": [ "http://hl7.org/fhir/us/qicore/StructureDefinition/qicore-organization" ]
      },
      "identifier": [ {
        "use": "temp",
        "system": "urn:oid:2.16.840.1.113883.4.4",
        "value": "21-3259825"
      } ],
      "active": true,
      "type": [ {
        "coding": [ {
          "system": "http://terminology.hl7.org/CodeSystem/organization-type",
          "code": "pay",
          "display": "Payer"
        } ]
      } ],
      "name": "Blue Cross Blue Shield of Texas",
      "telecom": [ {
        "system": "phone",
        "value": "(+1) 972-766-6900"
      } ],
      "address": [ {
        "use": "billing",
        "type": "postal",
        "line": [ "P.O. Box 660044" ],
        "city": "Dallas",
        "state": "TX",
        "postalCode": "75266-0044",
        "country": "USA"
      } ]
    },
    "request": {
      "method": "PUT",
      "url": "Organization/cd1b1dfc-ce2a-4ec0-ba9e-a201a756dd19"
    }
  }, {
    "fullUrl": "https://madie.cms.gov/MeasureReport/e0afae6f-6141-4095-8248-219b1faf192d",
    "resource": {
      "resourceType": "MeasureReport",
      "id": "e0afae6f-6141-4095-8248-219b1faf192d",
      "meta": {
        "profile": [ "http://hl7.org/fhir/us/cqfmeasures/StructureDefinition/test-case-cqfm" ]
      },
      "contained": [ {
        "resourceType": "Parameters",
        "id": "d6d40cfb-0515-432f-85bc-df85b6486589-parameters",
        "parameter": [ {
          "name": "subject",
          "valueString": "3fbd6ec2-8d40-45e7-90d7-747d7c491c1a"
        } ]
      } ],
      "extension": [ {
        "url": "http://hl7.org/fhir/StructureDefinition/cqf-inputParameters",
        "valueReference": {
          "reference": "#d6d40cfb-0515-432f-85bc-df85b6486589-parameters"
        }
      }, {
        "url": "http://hl7.org/fhir/us/cqfmeasures/StructureDefinition/cqfm-testCaseDescription",
        "valueMarkdown": "\"Patient has Med TPA between ED and Enc IP ,(in gap) \n  global.\"\"Hospitalization\"\" =(Ed+IP)\"\n"
      } ],
      "modifierExtension": [ {
        "url": "http://hl7.org/fhir/us/cqfmeasures/StructureDefinition/cqfm-isTestCase",
        "valueBoolean": true
      } ],
      "status": "complete",
      "type": "individual",
      "measure": "https://madie.cms.gov/Measure/CMS72FHIRSTKAntithromboticDay2",
      "period": {
        "start": "2026-01-01",
        "end": "2026-12-31"
      },
      "group": [ {
        "id": "Group_1",
        "population": [ {
          "id": "InitialPopulation_1",
          "code": {
            "coding": [ {
              "system": "http://terminology.hl7.org/CodeSystem/measure-population",
              "code": "initial-population",
              "display": "Initial Population"
            } ]
          },
          "count": 1
        }, {
          "id": "Denominator_1",
          "code": {
            "coding": [ {
              "system": "http://terminology.hl7.org/CodeSystem/measure-population",
              "code": "denominator",
              "display": "Denominator"
            } ]
          },
          "count": 1
        }, {
          "id": "DenominatorExclusion_1",
          "code": {
            "coding": [ {
              "system": "http://terminology.hl7.org/CodeSystem/measure-population",
              "code": "denominator-exclusion",
              "display": "Denominator Exclusion"
            } ]
          },
          "count": 1
        }, {
          "id": "Numerator_1",
          "code": {
            "coding": [ {
              "system": "http://terminology.hl7.org/CodeSystem/measure-population",
              "code": "numerator",
              "display": "Numerator"
            } ]
          },
          "count": 0
        }, {
          "id": "DenominatorException_1",
          "code": {
            "coding": [ {
              "system": "http://terminology.hl7.org/CodeSystem/measure-population",
              "code": "denominator-exception",
              "display": "Denominator Exception"
            } ]
          },
          "count": 0
        } ],
        "measureScore": {
          "value": 0.0
        }
      } ],
      "evaluatedResource": [ {
        "reference": "Patient/3fbd6ec2-8d40-45e7-90d7-747d7c491c1a"
      }, {
        "reference": "Encounter/dbb7dc75-8e86-439d-906a-86d7380ffd7c"
      }, {
        "reference": "Encounter/82032dbe-c2f8-4ed1-bbd2-febc2c18ba75"
      }, {
        "reference": "MedicationAdministration/6f18a0f8-e446-4fc4-8ace-1abc0f198ec4"
      }, {
        "reference": "Coverage/a82a3875-3fa8-477b-b5b4-5fffca43de38"
      }, {
        "reference": "Condition/7d32939e-77e6-46f9-80af-df7d4bf79ea3"
      }, {
        "reference": "Claim/5ca62962b8484628b8de1ec5"
      }, {
        "reference": "Organization/cd1b1dfc-ce2a-4ec0-ba9e-a201a756dd19"
      } ]
    },
    "request": {
      "method": "PUT",
      "url": "MeasureReport/e0afae6f-6141-4095-8248-219b1faf192d"
    }
  } ]
}