{
  "resourceType": "Bundle",
  "id": "60f82c2e98086b570510e287",
  "type": "transaction",
  "entry": [ {
    "fullUrl": "https://madie.cms.gov/Patient/3b193bfc-511a-49a2-987a-50d8c7d9a0df",
    "resource": {
      "resourceType": "Patient",
      "id": "3b193bfc-511a-49a2-987a-50d8c7d9a0df",
      "meta": {
        "profile": [ "http://hl7.org/fhir/us/qicore/StructureDefinition/qicore-patient" ]
      },
      "text": {
        "status": "generated",
        "div": "<div xmlns=\"http://www.w3.org/1999/xhtml\"><div class=\"hapiHeaderText\">CMP_DayOf_RelvDat_1minB4EDEnd_EDEndLT1hrB4Obs_ObsEndLT1hrB4IP <b>DENEXPASS </b></div><table class=\"hapiPropertyTable\"><tbody><tr><td>Identifier</td><td>e45ea273a97caf856d1691cd883a08e0</td></tr><tr><td>Date of birth</td><td><span>26 September 1975</span></td></tr></tbody></table></div>"
      },
      "extension": [ {
        "url": "http://hl7.org/fhir/us/core/StructureDefinition/us-core-race",
        "extension": [ {
          "url": "ombCategory",
          "valueCoding": {
            "system": "urn:oid:2.16.840.1.113883.6.238",
            "code": "2054-5",
            "display": "Black or African American",
            "userSelected": true
          }
        }, {
          "url": "text",
          "valueString": "Black or African American"
        } ]
      }, {
        "url": "http://hl7.org/fhir/us/core/StructureDefinition/us-core-ethnicity",
        "extension": [ {
          "url": "ombCategory",
          "valueCoding": {
            "system": "urn:oid:2.16.840.1.113883.6.238",
            "code": "2186-5",
            "display": "Not Hispanic or Latino",
            "userSelected": true
          }
        }, {
          "url": "text",
          "valueString": "Not Hispanic or Latino"
        } ]
      } ],
      "identifier": [ {
        "type": {
          "coding": [ {
            "system": "http://terminology.hl7.org/CodeSystem/v2-0203",
            "code": "MR"
          } ]
        },
        "system": "https://bonnie-fhir.healthit.gov/",
        "value": "60f82c2e98086b570510e287"
      } ],
      "active": true,
      "name": [ {
        "use": "usual",
        "family": "DENEXPass",
        "given": [ "CMPDayOfRelvDat1minB4EDEndEDEndLT1hrB4ObsObsEndLT1hrB4IP" ]
      } ],
      "gender": "female",
      "birthDate": "1976-09-26"
    },
    "request": {
      "method": "PUT",
      "url": "Patient/3b193bfc-511a-49a2-987a-50d8c7d9a0df"
    }
  }, {
    "fullUrl": "https://madie.cms.gov/Encounter/794d243c-19ef-48c2-91dd-11c68a8e62a7",
    "resource": {
      "resourceType": "Encounter",
      "id": "794d243c-19ef-48c2-91dd-11c68a8e62a7",
      "meta": {
        "profile": [ "http://hl7.org/fhir/us/qicore/StructureDefinition/qicore-encounter" ]
      },
      "status": "finished",
      "class": {
        "system": "http://terminology.hl7.org/CodeSystem/v3-ActCode",
        "code": "EMER",
        "display": "emergency"
      },
      "type": [ {
        "coding": [ {
          "system": "http://snomed.info/sct",
          "code": "4525004"
        } ]
      } ],
      "subject": {
        "reference": "Patient/3b193bfc-511a-49a2-987a-50d8c7d9a0df"
      },
      "period": {
        "start": "2026-10-10T04:00:00.000+00:00",
        "end": "2026-10-10T06:00:00.000+00:00"
      },
      "length": {
        "value": 1,
        "unit": "days"
      }
    },
    "request": {
      "method": "PUT",
      "url": "Encounter/794d243c-19ef-48c2-91dd-11c68a8e62a7"
    }
  }, {
    "fullUrl": "https://madie.cms.gov/Encounter/40558ece-6b85-4896-825b-6b2ed6180b27",
    "resource": {
      "resourceType": "Encounter",
      "id": "40558ece-6b85-4896-825b-6b2ed6180b27",
      "meta": {
        "profile": [ "http://hl7.org/fhir/us/qicore/StructureDefinition/qicore-encounter" ]
      },
      "status": "finished",
      "class": {
        "system": "http://terminology.hl7.org/CodeSystem/v3-ActCode",
        "code": "IMP",
        "display": "inpatient encounter"
      },
      "type": [ {
        "coding": [ {
          "system": "http://snomed.info/sct",
          "code": "32485007"
        } ]
      } ],
      "subject": {
        "reference": "Patient/3b193bfc-511a-49a2-987a-50d8c7d9a0df"
      },
      "period": {
        "start": "2026-10-10T08:59:00.000+00:00",
        "end": "2026-10-11T11:15:00.000+00:00"
      },
      "length": {
        "value": 1,
        "unit": "days"
      },
      "reasonReference": [ {
        "reference": "Condition/b92d4463-64fd-41fb-904d-91176c659328"
      } ]
    },
    "request": {
      "method": "PUT",
      "url": "Encounter/40558ece-6b85-4896-825b-6b2ed6180b27"
    }
  }, {
    "fullUrl": "https://madie.cms.gov/claim/5ca62962b8484628b8de1ec5",
    "resource": {
      "resourceType": "Claim",
      "id": "5ca62962b8484628b8de1ec5",
      "meta": {
        "profile": [ "http://hl7.org/fhir/us/qicore/StructureDefinition/qicore-claim" ]
      },
      "status": "active",
      "type": {
        "coding": [ {
          "system": "http://terminology.hl7.org/CodeSystem/claim-type",
          "code": "institutional"
        } ]
      },
      "use": "claim",
      "patient": {
        "reference": "Patient/3b193bfc-511a-49a2-987a-50d8c7d9a0df"
      },
      "created": "2026-12-01",
      "provider": {
        "reference": "Practitioner/practitioner-123456"
      },
      "priority": {
        "coding": [ {
          "system": "http://terminology.hl7.org/CodeSystem/processpriority",
          "code": "normal"
        } ]
      },
      "diagnosis": [ {
        "sequence": 1,
        "diagnosisCodeableConcept": {
          "coding": [ {
            "system": "http://hl7.org/fhir/sid/icd-10-cm",
            "code": "I63.00"
          } ]
        },
        "type": [ {
          "coding": [ {
            "system": "http://terminology.hl7.org/CodeSystem/ex-diagnosistype",
            "code": "principal"
          } ]
        } ]
      } ],
      "insurance": [ {
        "sequence": 1,
        "focal": true,
        "coverage": {
          "reference": "Coverage/22e4cbb5-89ae-410e-a6b4-aefc82159636"
        }
      } ],
      "item": [ {
        "sequence": 1,
        "diagnosisSequence": [ 1 ],
        "productOrService": {
          "coding": [ {
            "system": "http://terminology.hl7.org/CodeSystem/ex-USCLS",
            "code": "99555"
          } ]
        },
        "encounter": [ {
          "reference": "Encounter/40558ece-6b85-4896-825b-6b2ed6180b27"
        } ]
      } ]
    },
    "request": {
      "method": "PUT",
      "url": "Claim/5ca62962b8484628b8de1ec5"
    }
  }, {
    "fullUrl": "https://madie.cms.gov/Encounter/4692efd1-a13d-468b-8a11-c178bc7e0eab",
    "resource": {
      "resourceType": "Encounter",
      "id": "4692efd1-a13d-468b-8a11-c178bc7e0eab",
      "meta": {
        "profile": [ "http://hl7.org/fhir/us/qicore/StructureDefinition/qicore-encounter" ]
      },
      "status": "finished",
      "class": {
        "system": "http://terminology.hl7.org/CodeSystem/v3-ActCode",
        "code": "OBSENC",
        "display": "observation encounter"
      },
      "type": [ {
        "coding": [ {
          "system": "http://snomed.info/sct",
          "code": "448951000124107"
        } ]
      } ],
      "subject": {
        "reference": "Patient/3b193bfc-511a-49a2-987a-50d8c7d9a0df"
      },
      "period": {
        "start": "2026-10-10T06:59:00.000+00:00",
        "end": "2026-10-10T08:00:00.000+00:00"
      }
    },
    "request": {
      "method": "PUT",
      "url": "Encounter/4692efd1-a13d-468b-8a11-c178bc7e0eab"
    }
  }, {
    "fullUrl": "https://madie.cms.gov/Procedure/963e645a-7412-4437-a66e-7ec39096aca3",
    "resource": {
      "resourceType": "Procedure",
      "id": "963e645a-7412-4437-a66e-7ec39096aca3",
      "meta": {
        "profile": [ "http://hl7.org/fhir/us/qicore/StructureDefinition/qicore-procedure" ]
      },
      "extension": [ {
        "url": "http://hl7.org/fhir/us/qicore/StructureDefinition/qicore-recorded",
        "valueDateTime": "2026-10-10T05:59:00.000+00:00"
      } ],
      "status": "completed",
      "code": {
        "coding": [ {
          "system": "http://snomed.info/sct",
          "code": "133918004"
        } ]
      },
      "subject": {
        "reference": "Patient/3b193bfc-511a-49a2-987a-50d8c7d9a0df"
      },
      "performedPeriod": {
        "start": "2026-10-10T05:59:00.000+00:00",
        "end": "2026-10-10T06:00:00.000+00:00"
      }
    },
    "request": {
      "method": "PUT",
      "url": "Procedure/963e645a-7412-4437-a66e-7ec39096aca3"
    }
  }, {
    "fullUrl": "https://madie.cms.gov/Coverage/22e4cbb5-89ae-410e-a6b4-aefc82159636",
    "resource": {
      "resourceType": "Coverage",
      "id": "22e4cbb5-89ae-410e-a6b4-aefc82159636",
      "status": "active",
      "beneficiary": {
        "reference": "Patient/3b193bfc-511a-49a2-987a-50d8c7d9a0df"
      },
      "period": {
        "start": "1976-09-26T08:00:00.000+00:00"
      },
      "payor": [ {
        "reference": "Organization/25841c0d-f1d6-4ccf-8348-6d14cf21ab57"
      } ]
    },
    "request": {
      "method": "PUT",
      "url": "Coverage/22e4cbb5-89ae-410e-a6b4-aefc82159636"
    }
  }, {
    "fullUrl": "https://madie.cms.gov/Condition/b92d4463-64fd-41fb-904d-91176c659328",
    "resource": {
      "resourceType": "Condition",
      "id": "b92d4463-64fd-41fb-904d-91176c659328",
      "meta": {
        "profile": [ "http://hl7.org/fhir/us/qicore/StructureDefinition/qicore-condition-encounter-diagnosis" ]
      },
      "clinicalStatus": {
        "coding": [ {
          "system": "http://terminology.hl7.org/CodeSystem/condition-clinical",
          "code": "active"
        } ]
      },
      "verificationStatus": {
        "coding": [ {
          "system": "http://terminology.hl7.org/CodeSystem/condition-ver-status",
          "code": "confirmed"
        } ]
      },
      "category": [ {
        "coding": [ {
          "system": "http://terminology.hl7.org/CodeSystem/condition-category",
          "code": "encounter-diagnosis",
          "display": "Encounter Diagnosis"
        } ]
      } ],
      "code": {
        "coding": [ {
          "system": "http://snomed.info/sct",
          "version": "2020-09",
          "code": "111297002",
          "display": "Nonparalytic stroke (disorder)",
          "userSelected": true
        } ]
      },
      "subject": {
        "reference": "Patient/3b193bfc-511a-49a2-987a-50d8c7d9a0df"
      },
      "recordedDate": "2026-08-13T08:00:00.000+00:00"
    },
    "request": {
      "method": "PUT",
      "url": "Condition/b92d4463-64fd-41fb-904d-91176c659328"
    }
  }, {
    "fullUrl": "https://madie.cms.gov/Organization/25841c0d-f1d6-4ccf-8348-6d14cf21ab57",
    "resource": {
      "resourceType": "Organization",
      "id": "25841c0d-f1d6-4ccf-8348-6d14cf21ab57",
      "meta": {
        "profile": [ "http://hl7.org/fhir/us/qicore/StructureDefinition/qicore-organization" ]
      },
      "identifier": [ {
        "use": "temp",
        "system": "urn:oid:2.16.840.1.113883.4.4",
        "value": "21-3259825"
      } ],
      "active": true,
      "type": [ {
        "coding": [ {
          "system": "http://terminology.hl7.org/CodeSystem/organization-type",
          "code": "pay",
          "display": "Payer"
        } ]
      } ],
      "name": "Blue Cross Blue Shield of Texas",
      "telecom": [ {
        "system": "phone",
        "value": "(+1) 972-766-6900"
      } ],
      "address": [ {
        "use": "billing",
        "type": "postal",
        "line": [ "P.O. Box 660044" ],
        "city": "Dallas",
        "state": "TX",
        "postalCode": "75266-0044",
        "country": "USA"
      } ]
    },
    "request": {
      "method": "PUT",
      "url": "Organization/25841c0d-f1d6-4ccf-8348-6d14cf21ab57"
    }
  }, {
    "fullUrl": "https://madie.cms.gov/MeasureReport/123fbb3c-3456-47fe-817c-282f5e6faa6c",
    "resource": {
      "resourceType": "MeasureReport",
      "id": "123fbb3c-3456-47fe-817c-282f5e6faa6c",
      "meta": {
        "profile": [ "http://hl7.org/fhir/us/cqfmeasures/StructureDefinition/test-case-cqfm" ]
      },
      "contained": [ {
        "resourceType": "Parameters",
        "id": "b888f811-0d83-4e89-8439-969b83aa3c41-parameters",
        "parameter": [ {
          "name": "subject",
          "valueString": "3b193bfc-511a-49a2-987a-50d8c7d9a0df"
        } ]
      } ],
      "extension": [ {
        "url": "http://hl7.org/fhir/StructureDefinition/cqf-inputParameters",
        "valueReference": {
          "reference": "#b888f811-0d83-4e89-8439-969b83aa3c41-parameters"
        }
      }, {
        "url": "http://hl7.org/fhir/us/cqfmeasures/StructureDefinition/cqfm-testCaseDescription",
        "valueMarkdown": "Comfort measures performed on the first day of hospitalization using relevant date time, 1 minute before ED end, ED ends less than 1 hour before Obs, Obs ends less than 1 hour before IP. \n"
      } ],
      "modifierExtension": [ {
        "url": "http://hl7.org/fhir/us/cqfmeasures/StructureDefinition/cqfm-isTestCase",
        "valueBoolean": true
      } ],
      "status": "complete",
      "type": "individual",
      "measure": "https://madie.cms.gov/Measure/CMS72FHIRSTKAntithromboticDay2",
      "period": {
        "start": "2026-01-01",
        "end": "2026-12-31"
      },
      "group": [ {
        "id": "Group_1",
        "population": [ {
          "id": "InitialPopulation_1",
          "code": {
            "coding": [ {
              "system": "http://terminology.hl7.org/CodeSystem/measure-population",
              "code": "initial-population",
              "display": "Initial Population"
            } ]
          },
          "count": 1
        }, {
          "id": "Denominator_1",
          "code": {
            "coding": [ {
              "system": "http://terminology.hl7.org/CodeSystem/measure-population",
              "code": "denominator",
              "display": "Denominator"
            } ]
          },
          "count": 1
        }, {
          "id": "DenominatorExclusion_1",
          "code": {
            "coding": [ {
              "system": "http://terminology.hl7.org/CodeSystem/measure-population",
              "code": "denominator-exclusion",
              "display": "Denominator Exclusion"
            } ]
          },
          "count": 1
        }, {
          "id": "Numerator_1",
          "code": {
            "coding": [ {
              "system": "http://terminology.hl7.org/CodeSystem/measure-population",
              "code": "numerator",
              "display": "Numerator"
            } ]
          },
          "count": 0
        }, {
          "id": "DenominatorException_1",
          "code": {
            "coding": [ {
              "system": "http://terminology.hl7.org/CodeSystem/measure-population",
              "code": "denominator-exception",
              "display": "Denominator Exception"
            } ]
          },
          "count": 0
        } ],
        "measureScore": {
          "value": 0.0
        }
      } ],
      "evaluatedResource": [ {
        "reference": "Patient/3b193bfc-511a-49a2-987a-50d8c7d9a0df"
      }, {
        "reference": "Encounter/794d243c-19ef-48c2-91dd-11c68a8e62a7"
      }, {
        "reference": "Encounter/40558ece-6b85-4896-825b-6b2ed6180b27"
      }, {
        "reference": "Claim/5ca62962b8484628b8de1ec5"
      }, {
        "reference": "Encounter/4692efd1-a13d-468b-8a11-c178bc7e0eab"
      }, {
        "reference": "Procedure/963e645a-7412-4437-a66e-7ec39096aca3"
      }, {
        "reference": "Coverage/22e4cbb5-89ae-410e-a6b4-aefc82159636"
      }, {
        "reference": "Condition/b92d4463-64fd-41fb-904d-91176c659328"
      }, {
        "reference": "Organization/25841c0d-f1d6-4ccf-8348-6d14cf21ab57"
      } ]
    },
    "request": {
      "method": "PUT",
      "url": "MeasureReport/123fbb3c-3456-47fe-817c-282f5e6faa6c"
    }
  } ]
}