{
  "resourceType": "Bundle",
  "id": "63236aa88d26c655c5601f05",
  "type": "transaction",
  "entry": [ {
    "fullUrl": "https://madie.cms.gov/Patient/55a556cf-2cfa-4bc1-99cf-b3faa7a554ba",
    "resource": {
      "resourceType": "Patient",
      "id": "55a556cf-2cfa-4bc1-99cf-b3faa7a554ba",
      "meta": {
        "profile": [ "http://hl7.org/fhir/us/qicore/StructureDefinition/qicore-patient" ]
      },
      "extension": [ {
        "url": "http://hl7.org/fhir/us/core/StructureDefinition/us-core-race",
        "extension": [ {
          "url": "ombCategory",
          "valueCoding": {
            "system": "urn:oid:2.16.840.1.113883.6.238",
            "code": "1002-5",
            "display": "American Indian or Alaska Native",
            "userSelected": true
          }
        }, {
          "url": "text",
          "valueString": "American Indian or Alaska Native"
        } ]
      }, {
        "url": "http://hl7.org/fhir/us/core/StructureDefinition/us-core-ethnicity",
        "extension": [ {
          "url": "ombCategory",
          "valueCoding": {
            "system": "urn:oid:2.16.840.1.113883.6.238",
            "code": "2135-2",
            "display": "Hispanic or Latino",
            "userSelected": true
          }
        }, {
          "url": "text",
          "valueString": "Hispanic or Latino"
        } ]
      } ],
      "identifier": [ {
        "system": "http://hospital.smarthealthit.org",
        "value": "999999999"
      } ],
      "name": [ {
        "family": "NUMERFail",
        "given": [ "2OpioidsSameCode" ]
      } ],
      "gender": "male",
      "birthDate": "2006-12-31"
    },
    "request": {
      "method": "PUT",
      "url": "Patient/55a556cf-2cfa-4bc1-99cf-b3faa7a554ba"
    }
  }, {
    "fullUrl": "https://madie.cms.gov/Encounter/7e65fc28-f540-437d-a746-8cad2efab14f",
    "resource": {
      "resourceType": "Encounter",
      "id": "7e65fc28-f540-437d-a746-8cad2efab14f",
      "meta": {
        "profile": [ "http://hl7.org/fhir/us/qicore/StructureDefinition/qicore-encounter" ]
      },
      "status": "finished",
      "class": {
        "system": "http://terminology.hl7.org/CodeSystem/v3-ActCode",
        "code": "IMP",
        "display": "inpatient encounter"
      },
      "type": [ {
        "coding": [ {
          "system": "http://snomed.info/sct",
          "code": "183452005",
          "display": "Emergency hospital admission (procedure)",
          "userSelected": true
        } ]
      } ],
      "subject": {
        "reference": "Patient/55a556cf-2cfa-4bc1-99cf-b3faa7a554ba"
      },
      "period": {
        "start": "2026-12-29T23:45:00.000+00:00",
        "end": "2026-12-31T23:59:00.000+00:00"
      }
    },
    "request": {
      "method": "PUT",
      "url": "Encounter/7e65fc28-f540-437d-a746-8cad2efab14f"
    }
  }, {
    "fullUrl": "https://madie.cms.gov/MedicationRequest/ee2d0a25-5377-47eb-9d10-37d5a3843473",
    "resource": {
      "resourceType": "MedicationRequest",
      "id": "ee2d0a25-5377-47eb-9d10-37d5a3843473",
      "meta": {
        "profile": [ "http://hl7.org/fhir/us/qicore/StructureDefinition/qicore-medicationrequest" ]
      },
      "status": "active",
      "intent": "order",
      "category": [ {
        "coding": [ {
          "system": "http://terminology.hl7.org/CodeSystem/medicationrequest-category",
          "code": "discharge",
          "display": "Discharge",
          "userSelected": true
        } ]
      } ],
      "doNotPerform": false,
      "medicationCodeableConcept": {
        "coding": [ {
          "system": "http://www.nlm.nih.gov/research/umls/rxnorm",
          "code": "1014632",
          "display": "acetaminophen 300 MG / oxycodone hydrochloride 7.5 MG Oral Tablet",
          "userSelected": true
        } ]
      },
      "subject": {
        "reference": "Patient/55a556cf-2cfa-4bc1-99cf-b3faa7a554ba"
      },
      "authoredOn": "2026-12-31T23:59:00.000+00:00",
      "requester": {
        "reference": "Practitioner/ab4774c7-869c-4aa2-9a68-d6b2d03c2e25"
      }
    },
    "request": {
      "method": "PUT",
      "url": "MedicationRequest/ee2d0a25-5377-47eb-9d10-37d5a3843473"
    }
  }, {
    "fullUrl": "https://madie.cms.gov/Practitioner/ab4774c7-869c-4aa2-9a68-d6b2d03c2e25",
    "resource": {
      "resourceType": "Practitioner",
      "id": "ab4774c7-869c-4aa2-9a68-d6b2d03c2e25",
      "meta": {
        "profile": [ "http://hl7.org/fhir/us/qicore/StructureDefinition/qicore-practitioner" ]
      },
      "identifier": [ {
        "system": "http://hl7.org/fhir/sid/us-npi",
        "value": "9999999896"
      } ],
      "active": true,
      "name": [ {
        "family": "Ramires",
        "given": [ "Alma" ],
        "prefix": [ "Dr" ]
      } ],
      "address": [ {
        "use": "home",
        "line": [ "534 Erewhon St" ],
        "city": "Netherville",
        "state": "IN",
        "postalCode": "46131"
      } ],
      "qualification": [ {
        "identifier": [ {
          "system": "http://goodhealth.org/prIdentifier",
          "value": "12345"
        } ],
        "code": {
          "coding": [ {
            "system": "http://terminology.hl7.org/CodeSystem/v2-0360|2.7",
            "code": "BS",
            "display": "Bachelor of Science"
          } ],
          "text": "Bachelor of Science"
        },
        "period": {
          "start": "1995"
        },
        "issuer": {
          "display": "Example University"
        }
      } ]
    },
    "request": {
      "method": "PUT",
      "url": "Practitioner/ab4774c7-869c-4aa2-9a68-d6b2d03c2e25"
    }
  }, {
    "fullUrl": "https://madie.cms.gov/MedicationRequest/b4b093c5-e54e-4242-80c0-860604856fd5",
    "resource": {
      "resourceType": "MedicationRequest",
      "id": "b4b093c5-e54e-4242-80c0-860604856fd5",
      "meta": {
        "profile": [ "http://hl7.org/fhir/us/qicore/StructureDefinition/qicore-medicationrequest" ]
      },
      "status": "active",
      "intent": "order",
      "category": [ {
        "coding": [ {
          "system": "http://terminology.hl7.org/CodeSystem/medicationrequest-category",
          "code": "discharge",
          "display": "Discharge",
          "userSelected": true
        } ]
      } ],
      "doNotPerform": false,
      "medicationCodeableConcept": {
        "coding": [ {
          "system": "http://www.nlm.nih.gov/research/umls/rxnorm",
          "code": "1014632",
          "display": "acetaminophen 300 MG / oxycodone hydrochloride 7.5 MG Oral Tablet",
          "userSelected": true
        } ]
      },
      "subject": {
        "reference": "Patient/55a556cf-2cfa-4bc1-99cf-b3faa7a554ba"
      },
      "authoredOn": "2026-12-31T23:58:00.000+00:00",
      "requester": {
        "reference": "Practitioner/ab4774c7-869c-4aa2-9a68-d6b2d03c2e25"
      }
    },
    "request": {
      "method": "PUT",
      "url": "MedicationRequest/b4b093c5-e54e-4242-80c0-860604856fd5"
    }
  }, {
    "fullUrl": "https://madie.cms.gov/Coverage/5839d9a1-a0da-4358-b571-34fd8d43a460",
    "resource": {
      "resourceType": "Coverage",
      "id": "5839d9a1-a0da-4358-b571-34fd8d43a460",
      "meta": {
        "profile": [ "http://hl7.org/fhir/us/qicore/StructureDefinition/qicore-coverage" ]
      },
      "status": "active",
      "subscriberId": "523435",
      "beneficiary": {
        "reference": "Patient/55a556cf-2cfa-4bc1-99cf-b3faa7a554ba"
      },
      "relationship": {
        "coding": [ {
          "system": "http://terminology.hl7.org/CodeSystem/subscriber-relationship",
          "code": "self"
        } ]
      },
      "payor": [ {
        "reference": "Organization/63ab8fe4-3dac-41fa-b638-34992c13c615"
      } ]
    },
    "request": {
      "method": "PUT",
      "url": "Coverage/5839d9a1-a0da-4358-b571-34fd8d43a460"
    }
  }, {
    "fullUrl": "https://madie.cms.gov/Organization/63ab8fe4-3dac-41fa-b638-34992c13c615",
    "resource": {
      "resourceType": "Organization",
      "id": "63ab8fe4-3dac-41fa-b638-34992c13c615",
      "meta": {
        "profile": [ "http://hl7.org/fhir/us/qicore/StructureDefinition/qicore-organization" ]
      },
      "identifier": [ {
        "use": "temp",
        "system": "urn:oid:2.16.840.1.113883.4.4",
        "value": "21-3259825"
      } ],
      "active": true,
      "type": [ {
        "coding": [ {
          "system": "http://terminology.hl7.org/CodeSystem/organization-type",
          "code": "pay",
          "display": "Payer"
        } ]
      } ],
      "name": "Blue Cross Blue Shield of Texas",
      "telecom": [ {
        "system": "phone",
        "value": "(+1) 972-766-6900"
      } ],
      "address": [ {
        "use": "billing",
        "type": "postal",
        "line": [ "P.O. Box 660044" ],
        "city": "Dallas",
        "state": "TX",
        "postalCode": "75266-0044",
        "country": "USA"
      } ]
    },
    "request": {
      "method": "PUT",
      "url": "Organization/63ab8fe4-3dac-41fa-b638-34992c13c615"
    }
  }, {
    "fullUrl": "https://madie.cms.gov/MeasureReport/c01fc443-bdca-4a09-8e42-a8968c09a5d4",
    "resource": {
      "resourceType": "MeasureReport",
      "id": "c01fc443-bdca-4a09-8e42-a8968c09a5d4",
      "meta": {
        "profile": [ "http://hl7.org/fhir/us/cqfmeasures/StructureDefinition/test-case-cqfm" ]
      },
      "contained": [ {
        "resourceType": "Parameters",
        "id": "c3ef5dfb-961a-4cfe-a170-1f4d25c586a9-parameters",
        "parameter": [ {
          "name": "subject",
          "valueString": "55a556cf-2cfa-4bc1-99cf-b3faa7a554ba"
        } ]
      } ],
      "extension": [ {
        "url": "http://hl7.org/fhir/StructureDefinition/cqf-inputParameters",
        "valueReference": {
          "reference": "#c3ef5dfb-961a-4cfe-a170-1f4d25c586a9-parameters"
        }
      }, {
        "url": "http://hl7.org/fhir/us/cqfmeasures/StructureDefinition/cqfm-testCaseDescription",
        "valueMarkdown": "Encounter  12/29-12/31,  2 opioids, same RxNorm code (not distinct)"
      } ],
      "modifierExtension": [ {
        "url": "http://hl7.org/fhir/us/cqfmeasures/StructureDefinition/cqfm-isTestCase",
        "valueBoolean": true
      } ],
      "status": "complete",
      "type": "individual",
      "measure": "https://madie.cms.gov/Measure/CMS506FHIRSafeUseofOpioids",
      "period": {
        "start": "2026-01-01",
        "end": "2026-12-31"
      },
      "group": [ {
        "id": "Group_1",
        "population": [ {
          "id": "InitialPopulation_1",
          "code": {
            "coding": [ {
              "system": "http://terminology.hl7.org/CodeSystem/measure-population",
              "code": "initial-population",
              "display": "Initial Population"
            } ]
          },
          "count": 1
        }, {
          "id": "Denominator_1",
          "code": {
            "coding": [ {
              "system": "http://terminology.hl7.org/CodeSystem/measure-population",
              "code": "denominator",
              "display": "Denominator"
            } ]
          },
          "count": 1
        }, {
          "id": "DenominatorExclusion_1",
          "code": {
            "coding": [ {
              "system": "http://terminology.hl7.org/CodeSystem/measure-population",
              "code": "denominator-exclusion",
              "display": "Denominator Exclusion"
            } ]
          },
          "count": 0
        }, {
          "id": "Numerator_1",
          "code": {
            "coding": [ {
              "system": "http://terminology.hl7.org/CodeSystem/measure-population",
              "code": "numerator",
              "display": "Numerator"
            } ]
          },
          "count": 0
        } ],
        "measureScore": {
          "value": 0.0
        }
      } ],
      "evaluatedResource": [ {
        "reference": "Patient/55a556cf-2cfa-4bc1-99cf-b3faa7a554ba"
      }, {
        "reference": "Encounter/7e65fc28-f540-437d-a746-8cad2efab14f"
      }, {
        "reference": "MedicationRequest/ee2d0a25-5377-47eb-9d10-37d5a3843473"
      }, {
        "reference": "Practitioner/ab4774c7-869c-4aa2-9a68-d6b2d03c2e25"
      }, {
        "reference": "MedicationRequest/b4b093c5-e54e-4242-80c0-860604856fd5"
      }, {
        "reference": "Coverage/5839d9a1-a0da-4358-b571-34fd8d43a460"
      }, {
        "reference": "Organization/63ab8fe4-3dac-41fa-b638-34992c13c615"
      } ]
    },
    "request": {
      "method": "PUT",
      "url": "MeasureReport/c01fc443-bdca-4a09-8e42-a8968c09a5d4"
    }
  } ]
}