{
  "resourceType": "Bundle",
  "id": "63487c2f0968f80122540198",
  "type": "transaction",
  "entry": [ {
    "fullUrl": "https://madie.cms.gov/Patient/fb35958d-f564-47d5-a75f-925b67b22f28",
    "resource": {
      "resourceType": "Patient",
      "id": "fb35958d-f564-47d5-a75f-925b67b22f28",
      "meta": {
        "profile": [ "http://hl7.org/fhir/us/qicore/StructureDefinition/qicore-patient" ]
      },
      "text": {
        "status": "generated",
        "div": "<div xmlns=\"http://www.w3.org/1999/xhtml\"><div class=\"hapiHeaderText\">AssessGATime24HrsB4TimeOfDeliv <b>DENPASS </b></div><table class=\"hapiPropertyTable\"><tbody><tr><td>Identifier</td><td>399eb1d15b18a70b0a1fc126870ee45fba3a6862e3faa339c35b816b8fe113c4</td></tr><tr><td>Date of birth</td><td><span>14 February 1985</span></td></tr></tbody></table></div>"
      },
      "extension": [ {
        "url": "http://hl7.org/fhir/us/core/StructureDefinition/us-core-race",
        "extension": [ {
          "url": "ombCategory",
          "valueCoding": {
            "system": "urn:oid:2.16.840.1.113883.6.238",
            "code": "1002-5",
            "display": "American Indian or Alaska Native",
            "userSelected": true
          }
        }, {
          "url": "text",
          "valueString": "American Indian or Alaska Native"
        } ]
      }, {
        "url": "http://hl7.org/fhir/us/core/StructureDefinition/us-core-ethnicity",
        "extension": [ {
          "url": "ombCategory",
          "valueCoding": {
            "system": "urn:oid:2.16.840.1.113883.6.238",
            "code": "2135-2",
            "display": "Hispanic or Latino",
            "userSelected": true
          }
        }, {
          "url": "text",
          "valueString": "Hispanic or Latino"
        } ]
      } ],
      "identifier": [ {
        "type": {
          "coding": [ {
            "system": "http://terminology.hl7.org/CodeSystem/v2-0203",
            "code": "MR"
          } ]
        },
        "system": "https://bonnie-fhir.healthit.gov/",
        "value": "63487c2f0968f80122540198"
      } ],
      "active": true,
      "name": [ {
        "use": "usual",
        "family": "DENPass",
        "given": [ "AssessGATime24HrsB4TimeOfDeliv" ]
      } ],
      "gender": "female",
      "birthDate": "1998-02-14"
    },
    "request": {
      "method": "PUT",
      "url": "Patient/fb35958d-f564-47d5-a75f-925b67b22f28"
    }
  }, {
    "fullUrl": "https://madie.cms.gov/Observation/22526e7f-f272-4026-bee1-53100131abec",
    "resource": {
      "resourceType": "Observation",
      "id": "22526e7f-f272-4026-bee1-53100131abec",
      "meta": {
        "profile": [ "http://hl7.org/fhir/us/qicore/StructureDefinition/qicore-simple-observation" ]
      },
      "status": "final",
      "category": [ {
        "coding": [ {
          "system": "http://terminology.hl7.org/CodeSystem/observation-category",
          "code": "exam",
          "display": "exam",
          "userSelected": true
        } ]
      } ],
      "code": {
        "coding": [ {
          "system": "http://loinc.org",
          "code": "11884-4"
        } ]
      },
      "subject": {
        "reference": "Patient/fb35958d-f564-47d5-a75f-925b67b22f28"
      },
      "effectiveDateTime": "2026-06-07T09:15:00.000+00:00",
      "valueQuantity": {
        "value": 37,
        "system": "http://unitsofmeasure.org",
        "code": "wk"
      }
    },
    "request": {
      "method": "PUT",
      "url": "Observation/22526e7f-f272-4026-bee1-53100131abec"
    }
  }, {
    "fullUrl": "https://madie.cms.gov/Observation/58168812-8ca9-44de-8126-8a9dcc5c9392",
    "resource": {
      "resourceType": "Observation",
      "id": "58168812-8ca9-44de-8126-8a9dcc5c9392",
      "meta": {
        "profile": [ "http://hl7.org/fhir/us/qicore/StructureDefinition/qicore-simple-observation" ]
      },
      "status": "final",
      "category": [ {
        "coding": [ {
          "system": "http://terminology.hl7.org/CodeSystem/observation-category",
          "code": "exam",
          "display": "exam",
          "userSelected": true
        } ]
      } ],
      "code": {
        "coding": [ {
          "system": "http://loinc.org",
          "code": "11996-6"
        } ]
      },
      "subject": {
        "reference": "Patient/fb35958d-f564-47d5-a75f-925b67b22f28"
      },
      "effectiveDateTime": "2026-06-08T08:00:00.000+00:00",
      "valueInteger": 1
    },
    "request": {
      "method": "PUT",
      "url": "Observation/58168812-8ca9-44de-8126-8a9dcc5c9392"
    }
  }, {
    "fullUrl": "https://madie.cms.gov/Observation/e927a0d5-2420-4660-93e6-267eefb0a919",
    "resource": {
      "resourceType": "Observation",
      "id": "e927a0d5-2420-4660-93e6-267eefb0a919",
      "meta": {
        "profile": [ "http://hl7.org/fhir/us/qicore/StructureDefinition/qicore-simple-observation" ]
      },
      "status": "final",
      "category": [ {
        "coding": [ {
          "system": "http://terminology.hl7.org/CodeSystem/observation-category",
          "code": "exam",
          "display": "exam",
          "userSelected": true
        } ]
      } ],
      "code": {
        "coding": [ {
          "system": "http://loinc.org",
          "code": "93857-1"
        } ]
      },
      "subject": {
        "reference": "Patient/fb35958d-f564-47d5-a75f-925b67b22f28"
      },
      "effectiveDateTime": "2026-06-08T09:15:00.000+00:00",
      "valueDateTime": "2026-06-08T09:15:00.000+00:00"
    },
    "request": {
      "method": "PUT",
      "url": "Observation/e927a0d5-2420-4660-93e6-267eefb0a919"
    }
  }, {
    "fullUrl": "https://madie.cms.gov/Encounter/754a8f35-83ed-4be6-ae4b-6be13a8aad6e",
    "resource": {
      "resourceType": "Encounter",
      "id": "754a8f35-83ed-4be6-ae4b-6be13a8aad6e",
      "meta": {
        "profile": [ "http://hl7.org/fhir/us/qicore/StructureDefinition/qicore-encounter" ]
      },
      "status": "finished",
      "class": {
        "system": "http://terminology.hl7.org/CodeSystem/v3-ActCode",
        "code": "IMP",
        "display": "inpatient encounter"
      },
      "type": [ {
        "coding": [ {
          "system": "http://snomed.info/sct",
          "code": "183452005"
        } ]
      } ],
      "subject": {
        "reference": "Patient/fb35958d-f564-47d5-a75f-925b67b22f28"
      },
      "period": {
        "start": "2026-06-08T08:00:00.000+00:00",
        "end": "2026-06-10T08:15:00.000+00:00"
      },
      "length": {
        "value": 2,
        "unit": "days"
      },
      "reasonReference": [ {
        "reference": "Condition/dcd3c0e2-fc44-4147-a3ad-58d36195ce2f"
      } ]
    },
    "request": {
      "method": "PUT",
      "url": "Encounter/754a8f35-83ed-4be6-ae4b-6be13a8aad6e"
    }
  }, {
    "fullUrl": "https://madie.cms.gov/Coverage/d831493a-0bda-441c-9d6d-183af99015fd",
    "resource": {
      "resourceType": "Coverage",
      "id": "d831493a-0bda-441c-9d6d-183af99015fd",
      "meta": {
        "profile": [ "http://hl7.org/fhir/us/qicore/StructureDefinition/qicore-coverage" ]
      },
      "status": "active",
      "subscriberId": "523435",
      "beneficiary": {
        "reference": "Patient/fb35958d-f564-47d5-a75f-925b67b22f28"
      },
      "relationship": {
        "coding": [ {
          "system": "http://terminology.hl7.org/CodeSystem/subscriber-relationship",
          "code": "self"
        } ]
      },
      "period": {
        "start": "1986-02-14T08:00:00.000+00:00"
      },
      "payor": [ {
        "reference": "Organization/afd59b10-ee0f-48c4-97cd-1700ea65d4a4"
      } ]
    },
    "request": {
      "method": "PUT",
      "url": "Coverage/d831493a-0bda-441c-9d6d-183af99015fd"
    }
  }, {
    "fullUrl": "https://madie.cms.gov/Procedure/c5632246-8767-4abd-aa5a-d7cd90e3870a",
    "resource": {
      "resourceType": "Procedure",
      "id": "c5632246-8767-4abd-aa5a-d7cd90e3870a",
      "meta": {
        "profile": [ "http://hl7.org/fhir/us/qicore/StructureDefinition/qicore-procedure" ]
      },
      "extension": [ {
        "url": "http://hl7.org/fhir/us/qicore/StructureDefinition/qicore-recorded",
        "valueDateTime": "2014-04-05T13:35:00.000+00:00"
      } ],
      "status": "completed",
      "code": {
        "coding": [ {
          "system": "http://www.cms.gov/Medicare/Coding/ICD10",
          "code": "10D07Z3"
        } ]
      },
      "subject": {
        "reference": "Patient/fb35958d-f564-47d5-a75f-925b67b22f28"
      },
      "performedPeriod": {
        "start": "2026-06-08T08:00:00.000+00:00",
        "end": "2026-06-08T09:15:00.000+00:00"
      }
    },
    "request": {
      "method": "PUT",
      "url": "Procedure/c5632246-8767-4abd-aa5a-d7cd90e3870a"
    }
  }, {
    "fullUrl": "https://madie.cms.gov/Condition/dcd3c0e2-fc44-4147-a3ad-58d36195ce2f",
    "resource": {
      "resourceType": "Condition",
      "id": "dcd3c0e2-fc44-4147-a3ad-58d36195ce2f",
      "meta": {
        "profile": [ "http://hl7.org/fhir/us/qicore/StructureDefinition/qicore-condition-encounter-diagnosis" ]
      },
      "category": [ {
        "coding": [ {
          "system": "http://terminology.hl7.org/CodeSystem/condition-category",
          "code": "encounter-diagnosis",
          "display": "Encounter Diagnosis"
        } ]
      } ],
      "code": {
        "coding": [ {
          "system": "http://snomed.info/sct",
          "version": "2022-09",
          "code": "169826009",
          "display": "Single live birth from singleton pregnancy (finding)",
          "userSelected": true
        } ]
      },
      "subject": {
        "reference": "Patient/fb35958d-f564-47d5-a75f-925b67b22f28"
      },
      "encounter": {
        "reference": "Encounter/754a8f35-83ed-4be6-ae4b-6be13a8aad6e"
      },
      "recordedDate": "2026-10-20T08:00:00.000+00:00"
    },
    "request": {
      "method": "PUT",
      "url": "Condition/dcd3c0e2-fc44-4147-a3ad-58d36195ce2f"
    }
  }, {
    "fullUrl": "https://madie.cms.gov/Organization/afd59b10-ee0f-48c4-97cd-1700ea65d4a4",
    "resource": {
      "resourceType": "Organization",
      "id": "afd59b10-ee0f-48c4-97cd-1700ea65d4a4",
      "meta": {
        "profile": [ "http://hl7.org/fhir/us/qicore/StructureDefinition/qicore-organization" ]
      },
      "identifier": [ {
        "use": "temp",
        "system": "urn:oid:2.16.840.1.113883.4.4",
        "value": "21-3259825"
      } ],
      "active": true,
      "type": [ {
        "coding": [ {
          "system": "http://terminology.hl7.org/CodeSystem/organization-type",
          "code": "pay",
          "display": "Payer"
        } ]
      } ],
      "name": "Blue Cross Blue Shield of Texas",
      "telecom": [ {
        "system": "phone",
        "value": "(+1) 972-766-6900"
      } ],
      "address": [ {
        "use": "billing",
        "type": "postal",
        "line": [ "P.O. Box 660044" ],
        "city": "Dallas",
        "state": "TX",
        "postalCode": "75266-0044",
        "country": "USA"
      } ]
    },
    "request": {
      "method": "PUT",
      "url": "Organization/afd59b10-ee0f-48c4-97cd-1700ea65d4a4"
    }
  }, {
    "fullUrl": "https://madie.cms.gov/Practitioner/59238e69-3b8b-4a3e-b3ce-0f4dc15dc9c4",
    "resource": {
      "resourceType": "Practitioner",
      "id": "59238e69-3b8b-4a3e-b3ce-0f4dc15dc9c4",
      "meta": {
        "profile": [ "http://hl7.org/fhir/us/qicore/StructureDefinition/qicore-practitioner" ]
      },
      "identifier": [ {
        "system": "http://hl7.org/fhir/sid/us-npi",
        "value": "1234567890"
      } ],
      "name": [ {
        "family": "Evil",
        "prefix": [ "Dr" ]
      } ]
    },
    "request": {
      "method": "PUT",
      "url": "Practitioner/59238e69-3b8b-4a3e-b3ce-0f4dc15dc9c4"
    }
  }, {
    "fullUrl": "https://madie.cms.gov/MeasureReport/958b3b79-f943-4c0b-b42b-5a490d5d28ba",
    "resource": {
      "resourceType": "MeasureReport",
      "id": "958b3b79-f943-4c0b-b42b-5a490d5d28ba",
      "meta": {
        "profile": [ "http://hl7.org/fhir/us/cqfmeasures/StructureDefinition/test-case-cqfm" ]
      },
      "contained": [ {
        "resourceType": "Parameters",
        "id": "2ddd2281-19dc-47a6-9c87-ebb63b516dcd-parameters",
        "parameter": [ {
          "name": "subject",
          "valueString": "fb35958d-f564-47d5-a75f-925b67b22f28"
        } ]
      } ],
      "extension": [ {
        "url": "http://hl7.org/fhir/StructureDefinition/cqf-inputParameters",
        "valueReference": {
          "reference": "#2ddd2281-19dc-47a6-9c87-ebb63b516dcd-parameters"
        }
      }, {
        "url": "http://hl7.org/fhir/us/cqfmeasures/StructureDefinition/cqfm-testCaseDescription",
        "valueMarkdown": "Passes: IP, Pt is 27 years of age,  encounter dx of delivery of singleton,, EGA @ 37 weeks  24 hours before TmDelivery.  \n"
      } ],
      "modifierExtension": [ {
        "url": "http://hl7.org/fhir/us/cqfmeasures/StructureDefinition/cqfm-isTestCase",
        "valueBoolean": true
      } ],
      "status": "complete",
      "type": "individual",
      "measure": "https://madie.cms.gov/Measure/CMS0334FHIRPCCesareanBirth",
      "period": {
        "start": "2026-01-01",
        "end": "2026-12-31"
      },
      "group": [ {
        "id": "Group_1",
        "population": [ {
          "id": "InitialPopulation_1",
          "code": {
            "coding": [ {
              "system": "http://terminology.hl7.org/CodeSystem/measure-population",
              "code": "initial-population",
              "display": "Initial Population"
            } ]
          },
          "count": 1
        }, {
          "id": "Denominator_1",
          "code": {
            "coding": [ {
              "system": "http://terminology.hl7.org/CodeSystem/measure-population",
              "code": "denominator",
              "display": "Denominator"
            } ]
          },
          "count": 1
        }, {
          "id": "DenominatorExclusion_1",
          "code": {
            "coding": [ {
              "system": "http://terminology.hl7.org/CodeSystem/measure-population",
              "code": "denominator-exclusion",
              "display": "Denominator Exclusion"
            } ]
          },
          "count": 0
        }, {
          "id": "Numerator_1",
          "code": {
            "coding": [ {
              "system": "http://terminology.hl7.org/CodeSystem/measure-population",
              "code": "numerator",
              "display": "Numerator"
            } ]
          },
          "count": 0
        } ],
        "measureScore": {
          "value": 0.0
        }
      } ],
      "evaluatedResource": [ {
        "reference": "Patient/fb35958d-f564-47d5-a75f-925b67b22f28"
      }, {
        "reference": "Observation/22526e7f-f272-4026-bee1-53100131abec"
      }, {
        "reference": "Observation/58168812-8ca9-44de-8126-8a9dcc5c9392"
      }, {
        "reference": "Observation/e927a0d5-2420-4660-93e6-267eefb0a919"
      }, {
        "reference": "Encounter/754a8f35-83ed-4be6-ae4b-6be13a8aad6e"
      }, {
        "reference": "Coverage/d831493a-0bda-441c-9d6d-183af99015fd"
      }, {
        "reference": "Procedure/c5632246-8767-4abd-aa5a-d7cd90e3870a"
      }, {
        "reference": "Condition/dcd3c0e2-fc44-4147-a3ad-58d36195ce2f"
      }, {
        "reference": "Organization/afd59b10-ee0f-48c4-97cd-1700ea65d4a4"
      }, {
        "reference": "Practitioner/59238e69-3b8b-4a3e-b3ce-0f4dc15dc9c4"
      } ]
    },
    "request": {
      "method": "PUT",
      "url": "MeasureReport/958b3b79-f943-4c0b-b42b-5a490d5d28ba"
    }
  } ]
}