{
  "resourceType": "Bundle",
  "id": "6356dca654e383debade75aa",
  "type": "transaction",
  "entry": [ {
    "fullUrl": "https://madie.cms.gov/Patient/42372627-bae0-459e-b677-c53169863113",
    "resource": {
      "resourceType": "Patient",
      "id": "42372627-bae0-459e-b677-c53169863113",
      "meta": {
        "profile": [ "http://hl7.org/fhir/us/qicore/StructureDefinition/qicore-patient" ]
      },
      "text": {
        "status": "generated",
        "div": "<div xmlns=\"http://www.w3.org/1999/xhtml\"><div class=\"hapiHeaderText\">RISKCalcGestAgeEQ22Wks <b>RISKPass </b></div><table class=\"hapiPropertyTable\"><tbody><tr><td>Date of birth</td><td><span>01 February 2004</span></td></tr></tbody></table></div>"
      },
      "extension": [ {
        "url": "http://hl7.org/fhir/us/core/StructureDefinition/us-core-race",
        "extension": [ {
          "url": "ombCategory",
          "valueCoding": {
            "system": "urn:oid:2.16.840.1.113883.6.238",
            "code": "1002-5",
            "display": "American Indian or Alaska Native",
            "userSelected": true
          }
        }, {
          "url": "text",
          "valueString": "American Indian or Alaska Native"
        } ]
      }, {
        "url": "http://hl7.org/fhir/us/core/StructureDefinition/us-core-ethnicity",
        "extension": [ {
          "url": "ombCategory",
          "valueCoding": {
            "system": "urn:oid:2.16.840.1.113883.6.238",
            "code": "2135-2",
            "display": "Hispanic or Latino",
            "userSelected": true
          }
        }, {
          "url": "text",
          "valueString": "Hispanic or Latino"
        } ]
      } ],
      "identifier": [ {
        "type": {
          "coding": [ {
            "system": "http://terminology.hl7.org/CodeSystem/v2-0203",
            "code": "MR"
          } ]
        },
        "system": "https://bonnie-fhir.healthit.gov/",
        "value": "6356dca654e383debade75aa"
      } ],
      "active": true,
      "name": [ {
        "use": "usual",
        "family": "RISKPass",
        "given": [ "RISKCalcGestAgeEQ22Wks" ]
      } ],
      "gender": "female",
      "birthDate": "2005-02-01"
    },
    "request": {
      "method": "PUT",
      "url": "Patient/42372627-bae0-459e-b677-c53169863113"
    }
  }, {
    "fullUrl": "https://madie.cms.gov/Observation/b4d6bab3-1714-43ec-98d8-b0ab6170c225",
    "resource": {
      "resourceType": "Observation",
      "id": "b4d6bab3-1714-43ec-98d8-b0ab6170c225",
      "meta": {
        "profile": [ "http://hl7.org/fhir/us/qicore/StructureDefinition/qicore-simple-observation" ]
      },
      "status": "final",
      "category": [ {
        "coding": [ {
          "system": "http://terminology.hl7.org/CodeSystem/observation-category",
          "code": "exam",
          "display": "exam",
          "userSelected": true
        } ]
      } ],
      "code": {
        "coding": [ {
          "system": "http://loinc.org",
          "code": "93857-1"
        } ]
      },
      "subject": {
        "reference": "Patient/42372627-bae0-459e-b677-c53169863113"
      },
      "effectiveDateTime": "2026-02-01T08:00:00.000+00:00",
      "valueDateTime": "2026-02-01T08:00:00.000+00:00"
    },
    "request": {
      "method": "PUT",
      "url": "Observation/b4d6bab3-1714-43ec-98d8-b0ab6170c225"
    }
  }, {
    "fullUrl": "https://madie.cms.gov/Observation/e08b2f17-9e49-4fd9-95bb-63cdba36b8a1",
    "resource": {
      "resourceType": "Observation",
      "id": "e08b2f17-9e49-4fd9-95bb-63cdba36b8a1",
      "meta": {
        "profile": [ "http://hl7.org/fhir/us/qicore/StructureDefinition/qicore-simple-observation" ]
      },
      "status": "final",
      "category": [ {
        "coding": [ {
          "system": "http://terminology.hl7.org/CodeSystem/observation-category",
          "code": "exam",
          "display": "exam",
          "userSelected": true
        } ]
      } ],
      "code": {
        "coding": [ {
          "system": "http://loinc.org",
          "code": "11778-8"
        } ]
      },
      "subject": {
        "reference": "Patient/42372627-bae0-459e-b677-c53169863113"
      },
      "effectiveDateTime": "2026-02-01T08:00:00.000+00:00",
      "valueDateTime": "2026-06-01T08:00:00.000+00:00"
    },
    "request": {
      "method": "PUT",
      "url": "Observation/e08b2f17-9e49-4fd9-95bb-63cdba36b8a1"
    }
  }, {
    "fullUrl": "https://madie.cms.gov/Encounter/d4ffc7c1-c8f8-4d27-b51c-5f939d5751d5",
    "resource": {
      "resourceType": "Encounter",
      "id": "d4ffc7c1-c8f8-4d27-b51c-5f939d5751d5",
      "meta": {
        "profile": [ "http://hl7.org/fhir/us/qicore/StructureDefinition/qicore-encounter" ]
      },
      "status": "finished",
      "class": {
        "system": "http://terminology.hl7.org/CodeSystem/v3-ActCode",
        "code": "IMP",
        "display": "inpatient encounter"
      },
      "type": [ {
        "coding": [ {
          "system": "http://snomed.info/sct",
          "code": "183452005"
        } ]
      } ],
      "subject": {
        "reference": "Patient/42372627-bae0-459e-b677-c53169863113"
      },
      "period": {
        "start": "2026-02-01T08:00:00.000+00:00",
        "end": "2026-02-05T08:15:00.000+00:00"
      },
      "reasonReference": [ {
        "reference": "Condition/5bce3a3f-38b8-48bc-ba84-cf636a3eaf4e"
      } ]
    },
    "request": {
      "method": "PUT",
      "url": "Encounter/d4ffc7c1-c8f8-4d27-b51c-5f939d5751d5"
    }
  }, {
    "fullUrl": "https://madie.cms.gov/Procedure/3194877d-7e22-47ff-bd9b-f0b99b4c173c",
    "resource": {
      "resourceType": "Procedure",
      "id": "3194877d-7e22-47ff-bd9b-f0b99b4c173c",
      "meta": {
        "profile": [ "http://hl7.org/fhir/us/qicore/StructureDefinition/qicore-procedure" ]
      },
      "extension": [ {
        "url": "http://hl7.org/fhir/us/qicore/StructureDefinition/qicore-recorded",
        "valueDateTime": "2014-04-05T13:35:00.000+00:00"
      } ],
      "status": "completed",
      "code": {
        "coding": [ {
          "system": "http://snomed.info/sct",
          "code": "10745001"
        } ]
      },
      "subject": {
        "reference": "Patient/42372627-bae0-459e-b677-c53169863113"
      },
      "performedPeriod": {
        "start": "2026-02-01T08:00:00.000+00:00",
        "end": "2026-02-05T08:15:00.000+00:00"
      }
    },
    "request": {
      "method": "PUT",
      "url": "Procedure/3194877d-7e22-47ff-bd9b-f0b99b4c173c"
    }
  }, {
    "fullUrl": "https://madie.cms.gov/Condition/5bce3a3f-38b8-48bc-ba84-cf636a3eaf4e",
    "resource": {
      "resourceType": "Condition",
      "id": "5bce3a3f-38b8-48bc-ba84-cf636a3eaf4e",
      "meta": {
        "profile": [ "http://hl7.org/fhir/us/qicore/StructureDefinition/qicore-condition-encounter-diagnosis" ]
      },
      "category": [ {
        "coding": [ {
          "system": "http://terminology.hl7.org/CodeSystem/condition-category",
          "code": "encounter-diagnosis",
          "display": "Encounter Diagnosis"
        } ]
      } ],
      "code": {
        "coding": [ {
          "system": "http://hl7.org/fhir/sid/icd-10-cm",
          "version": "2023",
          "code": "Z3A.20",
          "display": "20 weeks gestation",
          "userSelected": true
        } ]
      },
      "subject": {
        "reference": "Patient/42372627-bae0-459e-b677-c53169863113"
      },
      "recordedDate": "2026-10-26T08:00:00.000+00:00"
    },
    "request": {
      "method": "PUT",
      "url": "Condition/5bce3a3f-38b8-48bc-ba84-cf636a3eaf4e"
    }
  }, {
    "fullUrl": "https://madie.cms.gov/Coverage/01605be8-e44b-4a36-aa8c-478f9110cc7e",
    "resource": {
      "resourceType": "Coverage",
      "id": "01605be8-e44b-4a36-aa8c-478f9110cc7e",
      "meta": {
        "profile": [ "http://hl7.org/fhir/us/qicore/StructureDefinition/qicore-coverage" ]
      },
      "status": "active",
      "beneficiary": {
        "reference": "Patient/42372627-bae0-459e-b677-c53169863113"
      },
      "payor": [ {
        "reference": "Organization/0ab59d91-4caf-40cf-a957-785d19a6fcdc"
      } ]
    },
    "request": {
      "method": "PUT",
      "url": "Coverage/01605be8-e44b-4a36-aa8c-478f9110cc7e"
    }
  }, {
    "fullUrl": "https://madie.cms.gov/Organization/0ab59d91-4caf-40cf-a957-785d19a6fcdc",
    "resource": {
      "resourceType": "Organization",
      "id": "0ab59d91-4caf-40cf-a957-785d19a6fcdc",
      "meta": {
        "profile": [ "http://hl7.org/fhir/us/qicore/StructureDefinition/qicore-organization" ]
      },
      "identifier": [ {
        "use": "temp",
        "system": "urn:oid:2.16.840.1.113883.4.4",
        "value": "21-3259825"
      } ],
      "active": true,
      "type": [ {
        "coding": [ {
          "system": "http://terminology.hl7.org/CodeSystem/organization-type",
          "code": "pay",
          "display": "Payer"
        } ]
      } ],
      "name": "Blue Cross Blue Shield of Texas",
      "telecom": [ {
        "system": "phone",
        "value": "(+1) 972-766-6900"
      } ],
      "address": [ {
        "use": "billing",
        "type": "postal",
        "line": [ "P.O. Box 660044" ],
        "city": "Dallas",
        "state": "TX",
        "postalCode": "75266-0044",
        "country": "USA"
      } ]
    },
    "request": {
      "method": "PUT",
      "url": "Organization/0ab59d91-4caf-40cf-a957-785d19a6fcdc"
    }
  }, {
    "fullUrl": "https://madie.cms.gov/Practitioner/98d30e95-31ef-4e5b-b6d0-0ae143606258",
    "resource": {
      "resourceType": "Practitioner",
      "id": "98d30e95-31ef-4e5b-b6d0-0ae143606258",
      "identifier": [ {
        "system": "http://hl7.org/fhir/sid/us-npi",
        "value": "123456"
      } ],
      "name": [ {
        "family": "Evil",
        "prefix": [ "Dr" ]
      } ]
    },
    "request": {
      "method": "PUT",
      "url": "Practitioner/98d30e95-31ef-4e5b-b6d0-0ae143606258"
    }
  }, {
    "fullUrl": "https://madie.cms.gov/MeasureReport/7f361d9c-c30e-4936-9991-437f85f35909",
    "resource": {
      "resourceType": "MeasureReport",
      "id": "7f361d9c-c30e-4936-9991-437f85f35909",
      "meta": {
        "profile": [ "http://hl7.org/fhir/us/cqfmeasures/StructureDefinition/test-case-cqfm" ]
      },
      "contained": [ {
        "resourceType": "Parameters",
        "id": "cb007baa-95a1-4801-a6b4-3b20f451685e-parameters",
        "parameter": [ {
          "name": "subject",
          "valueString": "42372627-bae0-459e-b677-c53169863113"
        } ]
      } ],
      "extension": [ {
        "url": "http://hl7.org/fhir/StructureDefinition/cqf-inputParameters",
        "valueReference": {
          "reference": "#cb007baa-95a1-4801-a6b4-3b20f451685e-parameters"
        }
      }, {
        "url": "http://hl7.org/fhir/us/cqfmeasures/StructureDefinition/cqfm-testCaseDescription",
        "valueMarkdown": "\"Risk variable of preterm birth. CGA is 22 weeks.\n.\"\n"
      } ],
      "modifierExtension": [ {
        "url": "http://hl7.org/fhir/us/cqfmeasures/StructureDefinition/cqfm-isTestCase",
        "valueBoolean": true
      } ],
      "status": "complete",
      "type": "individual",
      "measure": "https://madie.cms.gov/Measure/CMS1028FHIRPCSevereOBComps",
      "period": {
        "start": "2026-01-01",
        "end": "2026-12-31"
      },
      "group": [ {
        "id": "Group_1",
        "population": [ {
          "id": "InitialPopulation_1",
          "code": {
            "coding": [ {
              "system": "http://terminology.hl7.org/CodeSystem/measure-population",
              "code": "initial-population",
              "display": "Initial Population"
            } ]
          },
          "count": 1
        }, {
          "id": "Denominator_1",
          "code": {
            "coding": [ {
              "system": "http://terminology.hl7.org/CodeSystem/measure-population",
              "code": "denominator",
              "display": "Denominator"
            } ]
          },
          "count": 1
        }, {
          "id": "Numerator_1",
          "code": {
            "coding": [ {
              "system": "http://terminology.hl7.org/CodeSystem/measure-population",
              "code": "numerator",
              "display": "Numerator"
            } ]
          },
          "count": 0
        }, {
          "id": "NumeratorExclusion_1",
          "code": {
            "coding": [ {
              "system": "http://terminology.hl7.org/CodeSystem/measure-population",
              "code": "numerator-exclusion",
              "display": "Numerator Exclusion"
            } ]
          },
          "count": 0
        } ],
        "measureScore": {
          "value": 0.0
        }
      }, {
        "id": "Group_2",
        "population": [ {
          "id": "InitialPopulation_2",
          "code": {
            "coding": [ {
              "system": "http://terminology.hl7.org/CodeSystem/measure-population",
              "code": "initial-population",
              "display": "Initial Population"
            } ]
          },
          "count": 1
        }, {
          "id": "Denominator_2",
          "code": {
            "coding": [ {
              "system": "http://terminology.hl7.org/CodeSystem/measure-population",
              "code": "denominator",
              "display": "Denominator"
            } ]
          },
          "count": 1
        }, {
          "id": "Numerator_2",
          "code": {
            "coding": [ {
              "system": "http://terminology.hl7.org/CodeSystem/measure-population",
              "code": "numerator",
              "display": "Numerator"
            } ]
          },
          "count": 0
        }, {
          "id": "NumeratorExclusion_2",
          "code": {
            "coding": [ {
              "system": "http://terminology.hl7.org/CodeSystem/measure-population",
              "code": "numerator-exclusion",
              "display": "Numerator Exclusion"
            } ]
          },
          "count": 0
        } ],
        "measureScore": {
          "value": 0.0
        }
      } ],
      "evaluatedResource": [ {
        "reference": "Patient/42372627-bae0-459e-b677-c53169863113"
      }, {
        "reference": "Observation/b4d6bab3-1714-43ec-98d8-b0ab6170c225"
      }, {
        "reference": "Observation/e08b2f17-9e49-4fd9-95bb-63cdba36b8a1"
      }, {
        "reference": "Encounter/d4ffc7c1-c8f8-4d27-b51c-5f939d5751d5"
      }, {
        "reference": "Procedure/3194877d-7e22-47ff-bd9b-f0b99b4c173c"
      }, {
        "reference": "Condition/5bce3a3f-38b8-48bc-ba84-cf636a3eaf4e"
      }, {
        "reference": "Coverage/01605be8-e44b-4a36-aa8c-478f9110cc7e"
      }, {
        "reference": "Organization/0ab59d91-4caf-40cf-a957-785d19a6fcdc"
      }, {
        "reference": "Practitioner/98d30e95-31ef-4e5b-b6d0-0ae143606258"
      } ]
    },
    "request": {
      "method": "PUT",
      "url": "MeasureReport/7f361d9c-c30e-4936-9991-437f85f35909"
    }
  } ]
}