{
  "resourceType": "Bundle",
  "id": "627a80a15a0d870123c7253e",
  "type": "transaction",
  "entry": [ {
    "fullUrl": "https://madie.cms.gov/Patient/93064568-a739-403d-853f-a3150bd8f752",
    "resource": {
      "resourceType": "Patient",
      "id": "93064568-a739-403d-853f-a3150bd8f752",
      "meta": {
        "profile": [ "http://hl7.org/fhir/us/qicore/StructureDefinition/qicore-patient" ]
      },
      "text": {
        "status": "generated",
        "div": "<div xmlns=\"http://www.w3.org/1999/xhtml\"><div class=\"hapiHeaderText\">Opioid exactly 12 hrs before Naloxone <b>NUMERPASS </b></div><table class=\"hapiPropertyTable\"><tbody><tr><td>Date of birth</td><td><span>14 November 1980</span></td></tr></tbody></table></div>"
      },
      "identifier": [ {
        "type": {
          "coding": [ {
            "system": "http://terminology.hl7.org/CodeSystem/v2-0203",
            "code": "MR"
          } ]
        },
        "system": "https://bonnie-fhir.healthit.gov/",
        "value": "627a80a15a0d870123c7253e"
      } ],
      "active": true,
      "name": [ {
        "use": "usual",
        "family": "NUMERPass",
        "given": [ "NonOralOpioidLT12hrsBeforeAntag" ]
      } ],
      "gender": "female",
      "birthDate": "1981-11-14"
    },
    "request": {
      "method": "PUT",
      "url": "Patient/93064568-a739-403d-853f-a3150bd8f752"
    }
  }, {
    "fullUrl": "https://madie.cms.gov/Encounter/4be393cf-390a-4506-84bb-96693a434bd9",
    "resource": {
      "resourceType": "Encounter",
      "id": "4be393cf-390a-4506-84bb-96693a434bd9",
      "meta": {
        "profile": [ "http://hl7.org/fhir/us/qicore/StructureDefinition/qicore-encounter" ]
      },
      "status": "finished",
      "class": {
        "system": "http://terminology.hl7.org/CodeSystem/v3-ActCode",
        "code": "IMP",
        "display": "inpatient encounter"
      },
      "type": [ {
        "coding": [ {
          "system": "http://snomed.info/sct",
          "code": "183452005",
          "display": "Inpatient encounter"
        } ]
      } ],
      "subject": {
        "reference": "Patient/93064568-a739-403d-853f-a3150bd8f752"
      },
      "period": {
        "start": "2026-08-11T08:00:00.000+00:00",
        "end": "2026-08-14T08:15:00.000+00:00"
      }
    },
    "request": {
      "method": "PUT",
      "url": "Encounter/4be393cf-390a-4506-84bb-96693a434bd9"
    }
  }, {
    "fullUrl": "https://madie.cms.gov/MedicationAdministration/d0a38228-55c2-4527-b639-f3b28be86587",
    "resource": {
      "resourceType": "MedicationAdministration",
      "id": "d0a38228-55c2-4527-b639-f3b28be86587",
      "meta": {
        "profile": [ "http://hl7.org/fhir/us/qicore/StructureDefinition/qicore-medicationadministration" ]
      },
      "status": "completed",
      "medicationCodeableConcept": {
        "coding": [ {
          "system": "http://www.nlm.nih.gov/research/umls/rxnorm",
          "code": "1010600",
          "display": "Opioid"
        } ]
      },
      "subject": {
        "reference": "Patient/93064568-a739-403d-853f-a3150bd8f752"
      },
      "effectivePeriod": {
        "start": "2026-08-11T08:00:00.000+00:00",
        "end": "2026-08-11T08:15:00.000+00:00"
      },
      "dosage": {
        "route": {
          "coding": [ {
            "system": "http://snomed.info/sct",
            "code": "34206005",
            "display": "Subcutaneous route (qualifier value)"
          } ]
        }
      }
    },
    "request": {
      "method": "PUT",
      "url": "MedicationAdministration/d0a38228-55c2-4527-b639-f3b28be86587"
    }
  }, {
    "fullUrl": "https://madie.cms.gov/MedicationAdministration/99f01a44-5c90-4afc-a9aa-5b8ea64efb21",
    "resource": {
      "resourceType": "MedicationAdministration",
      "id": "99f01a44-5c90-4afc-a9aa-5b8ea64efb21",
      "meta": {
        "profile": [ "http://hl7.org/fhir/us/qicore/StructureDefinition/qicore-medicationadministration" ]
      },
      "status": "completed",
      "medicationCodeableConcept": {
        "coding": [ {
          "system": "http://www.nlm.nih.gov/research/umls/rxnorm",
          "code": "2540703",
          "display": "Opioid Antagonist"
        } ]
      },
      "subject": {
        "reference": "Patient/93064568-a739-403d-853f-a3150bd8f752"
      },
      "effectivePeriod": {
        "start": "2026-08-11T20:14:00.000+00:00"
      },
      "dosage": {
        "route": {
          "coding": [ {
            "system": "http://snomed.info/sct",
            "code": "34206005",
            "display": "Subcutaneous route (qualifier value)"
          } ]
        }
      }
    },
    "request": {
      "method": "PUT",
      "url": "MedicationAdministration/99f01a44-5c90-4afc-a9aa-5b8ea64efb21"
    }
  }, {
    "fullUrl": "https://madie.cms.gov/MeasureReport/5cb8e28a-5928-471d-bb34-aeaf2f862699",
    "resource": {
      "resourceType": "MeasureReport",
      "id": "5cb8e28a-5928-471d-bb34-aeaf2f862699",
      "meta": {
        "profile": [ "http://hl7.org/fhir/us/cqfmeasures/StructureDefinition/test-case-cqfm" ]
      },
      "contained": [ {
        "resourceType": "Parameters",
        "id": "e400f31a-0455-4e32-8e52-19e6ae638782-parameters",
        "parameter": [ {
          "name": "subject",
          "valueString": "93064568-a739-403d-853f-a3150bd8f752"
        } ]
      } ],
      "extension": [ {
        "url": "http://hl7.org/fhir/StructureDefinition/cqf-inputParameters",
        "valueReference": {
          "reference": "#e400f31a-0455-4e32-8e52-19e6ae638782-parameters"
        }
      }, {
        "url": "http://hl7.org/fhir/us/cqfmeasures/StructureDefinition/cqfm-testCaseDescription",
        "valueMarkdown": "Patient given opioid 8:15AM. Naloxone (nonoral) given 8:14PM,  11 hours and 59 minutes after opioid. Meets num criteria."
      } ],
      "modifierExtension": [ {
        "url": "http://hl7.org/fhir/us/cqfmeasures/StructureDefinition/cqfm-isTestCase",
        "valueBoolean": true
      } ],
      "status": "complete",
      "type": "individual",
      "measure": "https://madie.cms.gov/Measure/CMS819FHIRHHORAE",
      "period": {
        "start": "2026-01-01",
        "end": "2026-12-31"
      },
      "group": [ {
        "id": "Group_1",
        "population": [ {
          "id": "InitialPopulation_1",
          "code": {
            "coding": [ {
              "system": "http://terminology.hl7.org/CodeSystem/measure-population",
              "code": "initial-population",
              "display": "Initial Population"
            } ]
          },
          "count": 1
        }, {
          "id": "Denominator_1",
          "code": {
            "coding": [ {
              "system": "http://terminology.hl7.org/CodeSystem/measure-population",
              "code": "denominator",
              "display": "Denominator"
            } ]
          },
          "count": 1
        }, {
          "id": "Numerator_1",
          "code": {
            "coding": [ {
              "system": "http://terminology.hl7.org/CodeSystem/measure-population",
              "code": "numerator",
              "display": "Numerator"
            } ]
          },
          "count": 1
        } ],
        "measureScore": {
          "value": 0.0
        }
      } ],
      "evaluatedResource": [ {
        "reference": "Patient/93064568-a739-403d-853f-a3150bd8f752"
      }, {
        "reference": "Encounter/4be393cf-390a-4506-84bb-96693a434bd9"
      }, {
        "reference": "MedicationAdministration/d0a38228-55c2-4527-b639-f3b28be86587"
      }, {
        "reference": "MedicationAdministration/99f01a44-5c90-4afc-a9aa-5b8ea64efb21"
      } ]
    },
    "request": {
      "method": "PUT",
      "url": "MeasureReport/5cb8e28a-5928-471d-bb34-aeaf2f862699"
    }
  } ]
}