{
  "resourceType": "Bundle",
  "id": "6494622ed09ece2c2e9bf910",
  "type": "collection",
  "entry": [ {
    "fullUrl": "https://madie.cms.gov/Patient/e9ba11fb-9983-4077-ac26-57204f8f9e1a",
    "resource": {
      "resourceType": "Patient",
      "id": "e9ba11fb-9983-4077-ac26-57204f8f9e1a",
      "meta": {
        "profile": [ "http://hl7.org/fhir/us/qicore/StructureDefinition/qicore-patient" ]
      },
      "extension": [ {
        "url": "http://hl7.org/fhir/us/core/StructureDefinition/us-core-race",
        "extension": [ {
          "url": "ombCategory",
          "valueCoding": {
            "system": "urn:oid:2.16.840.1.113883.6.238",
            "code": "2106-3",
            "display": "White",
            "userSelected": true
          }
        }, {
          "url": "text",
          "valueString": "White"
        } ]
      }, {
        "url": "http://hl7.org/fhir/us/core/StructureDefinition/us-core-ethnicity",
        "extension": [ {
          "url": "ombCategory",
          "valueCoding": {
            "system": "urn:oid:2.16.840.1.113883.6.238",
            "code": "2186-5",
            "display": "Not Hispanic or Latino",
            "userSelected": true
          }
        }, {
          "url": "text",
          "valueString": "Not Hispanic or Latino"
        } ]
      }, {
        "url": "http://hl7.org/fhir/us/core/StructureDefinition/us-core-sex",
        "valueCode": "248152002"
      } ],
      "identifier": [ {
        "type": {
          "coding": [ {
            "system": "http://terminology.hl7.org/CodeSystem/v2-0203",
            "code": "MR"
          } ]
        },
        "system": "https://bonnie-fhir.healthit.gov/",
        "value": "6494622ed09ece2c2e9bf910"
      } ],
      "name": [ {
        "family": "9NumFail",
        "given": [ "VLduringMPwithEncAfter90Days" ]
      } ],
      "gender": "female",
      "birthDate": "2017-05-12"
    }
  }, {
    "fullUrl": "https://madie.cms.gov/Condition/1a4ffad7-4d00-4971-a023-0888dda02229",
    "resource": {
      "resourceType": "Condition",
      "id": "1a4ffad7-4d00-4971-a023-0888dda02229",
      "meta": {
        "profile": [ "http://hl7.org/fhir/us/qicore/StructureDefinition/qicore-condition-problems-health-concerns" ]
      },
      "clinicalStatus": {
        "coding": [ {
          "system": "http://terminology.hl7.org/CodeSystem/condition-clinical",
          "code": "active",
          "display": "active",
          "userSelected": true
        } ]
      },
      "category": [ {
        "coding": [ {
          "system": "http://terminology.hl7.org/CodeSystem/condition-category",
          "code": "problem-list-item",
          "display": "Problem List Item"
        } ]
      } ],
      "code": {
        "coding": [ {
          "system": "http://hl7.org/fhir/sid/icd-9-cm",
          "version": "2013",
          "code": "042",
          "display": "Human immunodeficiency virus [HIV] disease",
          "userSelected": true
        }, {
          "system": "http://snomed.info/sct",
          "version": "http://snomed.info/sct/731000124108/version/20250301",
          "code": "165816005",
          "userSelected": true
        } ]
      },
      "subject": {
        "reference": "Patient/e9ba11fb-9983-4077-ac26-57204f8f9e1a"
      },
      "onsetDateTime": "2020-05-12T08:00:00.000+00:00",
      "recordedDate": "2020-05-13T09:00:00.000+00:00"
    }
  }, {
    "fullUrl": "https://madie.cms.gov/Observation/eab09649-1bdd-4f54-b8e6-24c5e897b803",
    "resource": {
      "resourceType": "Observation",
      "id": "eab09649-1bdd-4f54-b8e6-24c5e897b803",
      "meta": {
        "profile": [ "http://hl7.org/fhir/us/qicore/StructureDefinition/qicore-observation-lab" ]
      },
      "status": "final",
      "category": [ {
        "coding": [ {
          "system": "http://terminology.hl7.org/CodeSystem/observation-category",
          "code": "laboratory",
          "display": "Laboratory"
        } ]
      }, {
        "coding": [ {
          "system": "http://terminology.hl7.org/CodeSystem/observation-category",
          "code": "survey"
        } ]
      } ],
      "code": {
        "coding": [ {
          "system": "http://loinc.org",
          "version": "2.73",
          "code": "10351-5",
          "display": "HIV 1 RNA [Units/volume] (viral load) in Serum or Plasma by Probe with amplification",
          "userSelected": true
        } ]
      },
      "subject": {
        "reference": "Patient/e9ba11fb-9983-4077-ac26-57204f8f9e1a"
      },
      "effectivePeriod": {
        "start": "2026-06-02T09:30:10.000+00:00",
        "end": "2026-06-05T09:30:10.000+00:00"
      },
      "issued": "2026-06-03T14:30:10.000+00:00",
      "dataAbsentReason": {
        "coding": [ {
          "system": "http://terminology.hl7.org/CodeSystem/data-absent-reason",
          "code": "unknown",
          "display": "Unknown"
        } ]
      }
    }
  }, {
    "fullUrl": "https://madie.cms.gov/Encounter/7564990c-99f8-4e56-960a-2c733f17397b",
    "resource": {
      "resourceType": "Encounter",
      "id": "7564990c-99f8-4e56-960a-2c733f17397b",
      "meta": {
        "profile": [ "http://hl7.org/fhir/us/qicore/StructureDefinition/qicore-encounter" ]
      },
      "status": "finished",
      "class": {
        "system": "http://terminology.hl7.org/CodeSystem/v3-ActCode",
        "code": "AMB",
        "display": "ambulatory"
      },
      "type": [ {
        "coding": [ {
          "system": "http://snomed.info/sct",
          "version": "2022-09",
          "code": "185463005",
          "display": "Visit out of hours (procedure)",
          "userSelected": true
        } ]
      } ],
      "subject": {
        "reference": "Patient/e9ba11fb-9983-4077-ac26-57204f8f9e1a"
      },
      "period": {
        "start": "2026-06-22T08:00:00.000+00:00",
        "end": "2026-06-22T08:15:00.000+00:00"
      }
    }
  }, {
    "fullUrl": "https://madie.cms.gov/Coverage/750aa3fd-b16f-4cb8-840e-ef3f97a4baba",
    "resource": {
      "resourceType": "Coverage",
      "id": "750aa3fd-b16f-4cb8-840e-ef3f97a4baba",
      "meta": {
        "profile": [ "http://hl7.org/fhir/us/qicore/StructureDefinition/qicore-coverage" ]
      },
      "status": "active",
      "subscriberId": "123456",
      "beneficiary": {
        "reference": "Patient/e9ba11fb-9983-4077-ac26-57204f8f9e1a"
      },
      "relationship": {
        "coding": [ {
          "system": "http://terminology.hl7.org/CodeSystem/subscriber-relationship",
          "code": "self",
          "display": "Self"
        } ]
      },
      "payor": [ {
        "reference": "Organization/06e90fc8-01d9-4caa-89e8-725ce7573cdc"
      } ]
    }
  }, {
    "fullUrl": "https://madie.cms.gov/Organization/06e90fc8-01d9-4caa-89e8-725ce7573cdc",
    "resource": {
      "resourceType": "Organization",
      "id": "06e90fc8-01d9-4caa-89e8-725ce7573cdc",
      "meta": {
        "profile": [ "http://hl7.org/fhir/us/qicore/StructureDefinition/qicore-organization" ]
      },
      "identifier": [ {
        "use": "temp",
        "system": "urn:oid:2.16.840.1.113883.4.4",
        "value": "21-3259825"
      } ],
      "active": true,
      "type": [ {
        "coding": [ {
          "system": "http://terminology.hl7.org/CodeSystem/organization-type",
          "code": "pay",
          "display": "Payer"
        } ]
      } ],
      "name": "Blue Cross Blue Shield of Texas",
      "telecom": [ {
        "system": "phone",
        "value": "(+1) 972-766-6900"
      } ],
      "address": [ {
        "use": "billing",
        "type": "postal",
        "line": [ "P.O. Box 660044" ],
        "city": "Dallas",
        "state": "TX",
        "postalCode": "75266-0044",
        "country": "USA"
      } ]
    }
  }, {
    "fullUrl": "https://madie.cms.gov/Practitioner/86db666f-9d14-4208-9f19-d665f7b9f366",
    "resource": {
      "resourceType": "Practitioner",
      "id": "86db666f-9d14-4208-9f19-d665f7b9f366",
      "meta": {
        "profile": [ "http://hl7.org/fhir/us/qicore/StructureDefinition/qicore-practitioner" ]
      },
      "identifier": [ {
        "system": "http://hl7.org/fhir/sid/us-npi",
        "value": "1689411712"
      } ],
      "name": [ {
        "family": "Evil",
        "prefix": [ "Dr" ]
      } ]
    }
  }, {
    "fullUrl": "https://madie.cms.gov/MeasureReport/d577d09a-d353-484a-adec-1502a3faecdf",
    "resource": {
      "resourceType": "MeasureReport",
      "id": "d577d09a-d353-484a-adec-1502a3faecdf",
      "meta": {
        "profile": [ "http://hl7.org/fhir/us/cqfmeasures/StructureDefinition/test-case-cqfm" ]
      },
      "contained": [ {
        "resourceType": "Parameters",
        "id": "8c755165-cc60-4066-96ce-cb65e53615d7-parameters",
        "parameter": [ {
          "name": "subject",
          "valueString": "e9ba11fb-9983-4077-ac26-57204f8f9e1a"
        } ]
      } ],
      "extension": [ {
        "url": "http://hl7.org/fhir/StructureDefinition/cqf-inputParameters",
        "valueReference": {
          "reference": "#8c755165-cc60-4066-96ce-cb65e53615d7-parameters"
        }
      }, {
        "url": "http://hl7.org/fhir/us/cqfmeasures/StructureDefinition/cqfm-testCaseDescription",
        "valueMarkdown": "Encounter occurs 17 days after VL test."
      } ],
      "modifierExtension": [ {
        "url": "http://hl7.org/fhir/us/cqfmeasures/StructureDefinition/cqfm-isTestCase",
        "valueBoolean": true
      } ],
      "status": "complete",
      "type": "individual",
      "measure": "https://madie.cms.gov/Measure/CMS1157FHIRHIVRetention",
      "period": {
        "start": "2026-01-01",
        "end": "2026-12-31"
      },
      "group": [ {
        "id": "Group_1",
        "population": [ {
          "id": "InitialPopulation_1",
          "code": {
            "coding": [ {
              "system": "http://terminology.hl7.org/CodeSystem/measure-population",
              "code": "initial-population",
              "display": "Initial Population"
            } ]
          },
          "count": 1
        }, {
          "id": "Denominator_1",
          "code": {
            "coding": [ {
              "system": "http://terminology.hl7.org/CodeSystem/measure-population",
              "code": "denominator",
              "display": "Denominator"
            } ]
          },
          "count": 1
        }, {
          "id": "Numerator_1",
          "code": {
            "coding": [ {
              "system": "http://terminology.hl7.org/CodeSystem/measure-population",
              "code": "numerator",
              "display": "Numerator"
            } ]
          },
          "count": 0
        } ],
        "measureScore": {
          "value": 1.0
        }
      } ],
      "evaluatedResource": [ {
        "reference": "Patient/e9ba11fb-9983-4077-ac26-57204f8f9e1a"
      }, {
        "reference": "Condition/1a4ffad7-4d00-4971-a023-0888dda02229"
      }, {
        "reference": "Observation/eab09649-1bdd-4f54-b8e6-24c5e897b803"
      }, {
        "reference": "Encounter/7564990c-99f8-4e56-960a-2c733f17397b"
      }, {
        "reference": "Coverage/750aa3fd-b16f-4cb8-840e-ef3f97a4baba"
      }, {
        "reference": "Organization/06e90fc8-01d9-4caa-89e8-725ce7573cdc"
      }, {
        "reference": "Practitioner/86db666f-9d14-4208-9f19-d665f7b9f366"
      } ]
    }
  } ]
}