{
  "resourceType": "Bundle",
  "id": "6109658e98086b538055b9e2",
  "type": "collection",
  "entry": [ {
    "fullUrl": "https://madie.cms.gov/Patient/e4efaf8d-368e-4aff-9b5c-bbc074489b67",
    "resource": {
      "resourceType": "Patient",
      "id": "e4efaf8d-368e-4aff-9b5c-bbc074489b67",
      "meta": {
        "profile": [ "http://hl7.org/fhir/us/qicore/StructureDefinition/qicore-patient" ]
      },
      "extension": [ {
        "url": "http://hl7.org/fhir/us/core/StructureDefinition/us-core-race",
        "extension": [ {
          "url": "ombCategory",
          "valueCoding": {
            "system": "urn:oid:2.16.840.1.113883.6.238",
            "code": "2028-9",
            "display": "Asian",
            "userSelected": true
          }
        }, {
          "url": "text",
          "valueString": "Asian"
        } ]
      }, {
        "url": "http://hl7.org/fhir/us/core/StructureDefinition/us-core-ethnicity",
        "extension": [ {
          "url": "ombCategory",
          "valueCoding": {
            "system": "urn:oid:2.16.840.1.113883.6.238",
            "code": "2186-5",
            "display": "Not Hispanic or Latino",
            "userSelected": true
          }
        }, {
          "url": "text",
          "valueString": "Not Hispanic or Latino"
        } ]
      } ],
      "identifier": [ {
        "type": {
          "coding": [ {
            "system": "http://terminology.hl7.org/CodeSystem/v2-0203",
            "code": "MR"
          } ]
        },
        "system": "https://bonnie-fhir.healthit.gov/",
        "value": "6109658e98086b538055b9e2"
      } ],
      "active": true,
      "name": [ {
        "use": "usual",
        "family": "NUMERPass",
        "given": [ "DiscExamswithResultsOV" ]
      } ],
      "gender": "male",
      "birthDate": "1964-08-16"
    }
  }, {
    "fullUrl": "https://madie.cms.gov/Condition/cbba6045-1bbb-4a9a-b700-f2fdeedfbae7",
    "resource": {
      "resourceType": "Condition",
      "id": "cbba6045-1bbb-4a9a-b700-f2fdeedfbae7",
      "meta": {
        "profile": [ "http://hl7.org/fhir/us/qicore/StructureDefinition/qicore-condition-problems-health-concerns" ]
      },
      "clinicalStatus": {
        "coding": [ {
          "system": "http://terminology.hl7.org/CodeSystem/condition-clinical",
          "code": "active",
          "display": "active",
          "userSelected": true
        } ]
      },
      "category": [ {
        "coding": [ {
          "system": "http://terminology.hl7.org/CodeSystem/condition-category",
          "code": "problem-list-item",
          "display": "Problem List Item",
          "userSelected": true
        } ]
      } ],
      "code": {
        "coding": [ {
          "system": "http://hl7.org/fhir/sid/icd-10-cm",
          "version": "2023",
          "code": "H40.10X0"
        } ]
      },
      "subject": {
        "reference": "Patient/e4efaf8d-368e-4aff-9b5c-bbc074489b67"
      },
      "onsetDateTime": "2014-09-27T12:45:00.000+00:00"
    }
  }, {
    "fullUrl": "https://madie.cms.gov/Observation/8ffffee9-a980-4776-9f7f-124c939ba9c6",
    "resource": {
      "resourceType": "Observation",
      "id": "8ffffee9-a980-4776-9f7f-124c939ba9c6",
      "meta": {
        "profile": [ "http://hl7.org/fhir/us/qicore/StructureDefinition/qicore-observation-clinical-result" ]
      },
      "status": "final",
      "category": [ {
        "coding": [ {
          "system": "http://terminology.hl7.org/CodeSystem/observation-category",
          "code": "laboratory",
          "display": "laboratory",
          "userSelected": true
        } ]
      }, {
        "coding": [ {
          "system": "http://terminology.hl7.org/CodeSystem/observation-category",
          "code": "survey"
        } ]
      } ],
      "code": {
        "coding": [ {
          "system": "http://loinc.org",
          "code": "71484-0"
        } ]
      },
      "subject": {
        "reference": "Patient/e4efaf8d-368e-4aff-9b5c-bbc074489b67"
      },
      "effectivePeriod": {
        "start": "2026-03-09T12:40:00.000+00:00",
        "end": "2026-03-09T13:40:00.000+00:00"
      },
      "valueQuantity": {
        "value": 0.7
      }
    }
  }, {
    "fullUrl": "https://madie.cms.gov/Observation/9554d7ca-d714-449f-9b40-bbc50b421b17",
    "resource": {
      "resourceType": "Observation",
      "id": "9554d7ca-d714-449f-9b40-bbc50b421b17",
      "meta": {
        "profile": [ "http://hl7.org/fhir/us/qicore/StructureDefinition/qicore-observation-clinical-result" ]
      },
      "status": "final",
      "category": [ {
        "coding": [ {
          "system": "http://terminology.hl7.org/CodeSystem/observation-category",
          "code": "laboratory",
          "display": "laboratory",
          "userSelected": true
        } ]
      }, {
        "coding": [ {
          "system": "http://terminology.hl7.org/CodeSystem/observation-category",
          "code": "survey"
        } ]
      } ],
      "code": {
        "coding": [ {
          "system": "http://loinc.org",
          "version": "2.73",
          "code": "71486-5"
        } ]
      },
      "subject": {
        "reference": "Patient/e4efaf8d-368e-4aff-9b5c-bbc074489b67"
      },
      "effectivePeriod": {
        "start": "2026-03-09T12:40:00.000+00:00",
        "end": "2026-03-09T13:40:00.000+00:00"
      },
      "valueCodeableConcept": {
        "coding": [ {
          "system": "http://loinc.org",
          "code": "71486-5",
          "display": "Left eye Optic disc or retinal nerve fiber layer structural abnormalities by Ophthalmoscopy"
        } ]
      }
    }
  }, {
    "fullUrl": "https://madie.cms.gov/Encounter/2a92896e-2a77-4f5f-91fa-fc7ef05cea7d",
    "resource": {
      "resourceType": "Encounter",
      "id": "2a92896e-2a77-4f5f-91fa-fc7ef05cea7d",
      "meta": {
        "profile": [ "http://hl7.org/fhir/us/qicore/StructureDefinition/qicore-encounter" ]
      },
      "status": "finished",
      "class": {
        "system": "http://terminology.hl7.org/CodeSystem/v3-ActCode",
        "code": "AMB",
        "display": "ambulatory",
        "userSelected": true
      },
      "type": [ {
        "coding": [ {
          "system": "http://www.ama-assn.org/go/cpt",
          "version": "2023",
          "code": "99213"
        } ]
      } ],
      "subject": {
        "reference": "Patient/e4efaf8d-368e-4aff-9b5c-bbc074489b67"
      },
      "period": {
        "start": "2026-03-09T12:40:00.000+00:00",
        "end": "2026-03-09T13:40:00.000+00:00"
      },
      "length": {
        "value": 0.0,
        "unit": "days"
      }
    }
  }, {
    "fullUrl": "https://madie.cms.gov/Coverage/2582ca53-40fa-45e7-8404-7ed3faf37dda",
    "resource": {
      "resourceType": "Coverage",
      "id": "2582ca53-40fa-45e7-8404-7ed3faf37dda",
      "meta": {
        "profile": [ "http://hl7.org/fhir/us/qicore/StructureDefinition/qicore-coverage" ]
      },
      "identifier": [ {
        "system": "http://benefitsinc.com/certificate",
        "value": "12345"
      } ],
      "status": "active",
      "type": {
        "coding": [ {
          "system": "https://nahdo.org/sopt",
          "version": "9.2",
          "code": "59",
          "display": "Other Private Insurance"
        } ]
      },
      "subscriberId": "123456",
      "beneficiary": {
        "reference": "Patient/e4efaf8d-368e-4aff-9b5c-bbc074489b67"
      },
      "dependent": "0",
      "relationship": {
        "coding": [ {
          "system": "http://terminology.hl7.org/CodeSystem/subscriber-relationship",
          "code": "self"
        } ]
      },
      "period": {
        "start": "2017-05-23",
        "end": "2027-05-23"
      },
      "payor": [ {
        "reference": "Organization/6a803de5-f177-4de0-88c9-53fdb383b52f"
      } ],
      "order": 9
    }
  }, {
    "fullUrl": "https://madie.cms.gov/Organization/6a803de5-f177-4de0-88c9-53fdb383b52f",
    "resource": {
      "resourceType": "Organization",
      "id": "6a803de5-f177-4de0-88c9-53fdb383b52f",
      "meta": {
        "profile": [ "http://hl7.org/fhir/us/qicore/StructureDefinition/qicore-organization" ]
      },
      "identifier": [ {
        "use": "temp",
        "system": "http://terminology.hl7.org/NamingSystem/USEIN",
        "value": "48915164351354"
      } ],
      "active": true,
      "type": [ {
        "coding": [ {
          "system": "http://terminology.hl7.org/CodeSystem/organization-type",
          "code": "team",
          "display": "Organizational team"
        } ]
      } ],
      "name": "Good Healthcare, LLC",
      "telecom": [ {
        "system": "phone",
        "value": "(+1) 901-683-7777"
      }, {
        "system": "fax",
        "value": "(+1) 901-683-6622"
      }, {
        "system": "email",
        "value": "BetterYourHealth@GoodHealthcare.com"
      } ],
      "address": [ {
        "line": [ "3651 Wentrow Blvd, Suite 227" ],
        "city": "Germantown",
        "state": "TN",
        "postalCode": "38138",
        "country": "USA"
      } ]
    }
  }, {
    "fullUrl": "https://madie.cms.gov/MeasureReport/66528732-95a1-4ddf-b793-8b44d8c6d489",
    "resource": {
      "resourceType": "MeasureReport",
      "id": "66528732-95a1-4ddf-b793-8b44d8c6d489",
      "meta": {
        "profile": [ "http://hl7.org/fhir/us/cqfmeasures/StructureDefinition/test-case-cqfm" ]
      },
      "contained": [ {
        "resourceType": "Parameters",
        "id": "3429d8b8-7b13-4aa1-95d9-377918ce4177-parameters",
        "parameter": [ {
          "name": "subject",
          "valueString": "e4efaf8d-368e-4aff-9b5c-bbc074489b67"
        } ]
      } ],
      "extension": [ {
        "url": "http://hl7.org/fhir/StructureDefinition/cqf-inputParameters",
        "valueReference": {
          "reference": "#3429d8b8-7b13-4aa1-95d9-377918ce4177-parameters"
        }
      }, {
        "url": "http://hl7.org/fhir/us/cqfmeasures/StructureDefinition/cqfm-testCaseDescription",
        "valueMarkdown": "Patient with glaucoma, office visit with both exams performed"
      } ],
      "modifierExtension": [ {
        "url": "http://hl7.org/fhir/us/cqfmeasures/StructureDefinition/cqfm-isTestCase",
        "valueBoolean": true
      } ],
      "status": "complete",
      "type": "individual",
      "measure": "https://madie.cms.gov/Measure/CMS143FHIRPOAGOpticNerveEval",
      "period": {
        "start": "2026-01-01",
        "end": "2026-12-31"
      },
      "group": [ {
        "id": "Group_1",
        "population": [ {
          "id": "InitialPopulation_1",
          "code": {
            "coding": [ {
              "system": "http://terminology.hl7.org/CodeSystem/measure-population",
              "code": "initial-population",
              "display": "Initial Population"
            } ]
          },
          "count": 1
        }, {
          "id": "Denominator_1",
          "code": {
            "coding": [ {
              "system": "http://terminology.hl7.org/CodeSystem/measure-population",
              "code": "denominator",
              "display": "Denominator"
            } ]
          },
          "count": 1
        }, {
          "id": "Numerator_1",
          "code": {
            "coding": [ {
              "system": "http://terminology.hl7.org/CodeSystem/measure-population",
              "code": "numerator",
              "display": "Numerator"
            } ]
          },
          "count": 1
        }, {
          "id": "DenominatorException_1",
          "code": {
            "coding": [ {
              "system": "http://terminology.hl7.org/CodeSystem/measure-population",
              "code": "denominator-exception",
              "display": "Denominator Exception"
            } ]
          },
          "count": 0
        } ],
        "measureScore": {
          "value": 1.0
        }
      } ],
      "evaluatedResource": [ {
        "reference": "Patient/e4efaf8d-368e-4aff-9b5c-bbc074489b67"
      }, {
        "reference": "Condition/cbba6045-1bbb-4a9a-b700-f2fdeedfbae7"
      }, {
        "reference": "Observation/8ffffee9-a980-4776-9f7f-124c939ba9c6"
      }, {
        "reference": "Observation/9554d7ca-d714-449f-9b40-bbc50b421b17"
      }, {
        "reference": "Encounter/2a92896e-2a77-4f5f-91fa-fc7ef05cea7d"
      }, {
        "reference": "Coverage/2582ca53-40fa-45e7-8404-7ed3faf37dda"
      }, {
        "reference": "Organization/6a803de5-f177-4de0-88c9-53fdb383b52f"
      } ]
    }
  } ]
}