{
  "resourceType": "Bundle",
  "id": "612e6b9302c62a011f2ee63c",
  "type": "transaction",
  "entry": [ {
    "fullUrl": "https://madie.cms.gov/Patient/5f739500-ee12-4662-8980-ef95d8fa74c8",
    "resource": {
      "resourceType": "Patient",
      "id": "5f739500-ee12-4662-8980-ef95d8fa74c8",
      "meta": {
        "profile": [ "http://hl7.org/fhir/us/qicore/StructureDefinition/qicore-patient" ]
      },
      "text": {
        "status": "generated",
        "div": "<div xmlns=\"http://www.w3.org/1999/xhtml\"><div class=\"hapiHeaderText\">PtRefDOVFPTaskReject <b>NUMERPASS </b></div><table class=\"hapiPropertyTable\"><tbody><tr><td>Identifier</td><td>24fc1ce85ce14557dd4d9eba17df9f17</td></tr><tr><td>Date of birth</td><td><span>02 January 1974</span></td></tr></tbody></table></div>"
      },
      "extension": [ {
        "url": "http://hl7.org/fhir/us/core/StructureDefinition/us-core-race",
        "extension": [ {
          "url": "ombCategory",
          "valueCoding": {
            "system": "urn:oid:2.16.840.1.113883.6.238",
            "code": "1002-5",
            "display": "American Indian or Alaska Native",
            "userSelected": true
          }
        }, {
          "url": "text",
          "valueString": "American Indian or Alaska Native"
        } ]
      }, {
        "url": "http://hl7.org/fhir/us/core/StructureDefinition/us-core-ethnicity",
        "extension": [ {
          "url": "ombCategory",
          "valueCoding": {
            "system": "urn:oid:2.16.840.1.113883.6.238",
            "code": "2135-2",
            "display": "Hispanic or Latino",
            "userSelected": true
          }
        }, {
          "url": "text",
          "valueString": "Hispanic or Latino"
        } ]
      } ],
      "identifier": [ {
        "type": {
          "coding": [ {
            "system": "http://terminology.hl7.org/CodeSystem/v2-0203",
            "code": "MR"
          } ]
        },
        "system": "https://bonnie-fhir.healthit.gov/",
        "value": "612e6b9302c62a011f2ee63c"
      } ],
      "active": true,
      "name": [ {
        "use": "usual",
        "family": "NUMERPass",
        "given": [ "PtRefDOVFPTaskReject" ]
      } ],
      "gender": "male",
      "birthDate": "1975-01-02"
    },
    "request": {
      "method": "PUT",
      "url": "Patient/5f739500-ee12-4662-8980-ef95d8fa74c8"
    }
  }, {
    "fullUrl": "https://madie.cms.gov/Encounter/c6631608-4907-4601-b9a8-aa389d82ba10",
    "resource": {
      "resourceType": "Encounter",
      "id": "c6631608-4907-4601-b9a8-aa389d82ba10",
      "meta": {
        "profile": [ "http://hl7.org/fhir/us/qicore/StructureDefinition/qicore-encounter" ]
      },
      "status": "finished",
      "class": {
        "system": "http://terminology.hl7.org/CodeSystem/v3-ActCode",
        "code": "IMP",
        "display": "inpatient encounter"
      },
      "type": [ {
        "coding": [ {
          "system": "http://snomed.info/sct",
          "code": "8715000"
        } ]
      } ],
      "subject": {
        "reference": "Patient/5f739500-ee12-4662-8980-ef95d8fa74c8"
      },
      "period": {
        "start": "2026-11-01T08:00:00.000+00:00",
        "end": "2026-11-26T08:15:00.000+00:00"
      },
      "length": {
        "value": 25,
        "unit": "days"
      }
    },
    "request": {
      "method": "PUT",
      "url": "Encounter/c6631608-4907-4601-b9a8-aa389d82ba10"
    }
  }, {
    "fullUrl": "https://madie.cms.gov/Coverage/2b4ff538-c0b9-4c1a-85bd-cacc88ac0257",
    "resource": {
      "resourceType": "Coverage",
      "id": "2b4ff538-c0b9-4c1a-85bd-cacc88ac0257",
      "status": "active",
      "beneficiary": {
        "reference": "Patient/5f739500-ee12-4662-8980-ef95d8fa74c8"
      },
      "period": {
        "start": "1975-01-02T08:00:00.000+00:00"
      },
      "payor": [ {
        "reference": "Organization/b28eaa13-6478-4fc2-a047-b7806f019cda"
      } ]
    },
    "request": {
      "method": "PUT",
      "url": "Coverage/2b4ff538-c0b9-4c1a-85bd-cacc88ac0257"
    }
  }, {
    "fullUrl": "https://madie.cms.gov/Procedure/21e1591f-32cd-48d1-9eb0-aca427e91301",
    "resource": {
      "resourceType": "Procedure",
      "id": "21e1591f-32cd-48d1-9eb0-aca427e91301",
      "meta": {
        "profile": [ "http://hl7.org/fhir/us/qicore/StructureDefinition/qicore-procedure" ]
      },
      "extension": [ {
        "url": "http://hl7.org/fhir/us/qicore/StructureDefinition/qicore-recorded",
        "valueDateTime": "2013-11-03T13:35:00.000+00:00"
      } ],
      "status": "completed",
      "code": {
        "coding": [ {
          "system": "http://www.icd10data.com/icd10pcs",
          "code": "3E030FZ"
        }, {
          "system": "http://snomed.info/sct",
          "code": "18946005"
        } ]
      },
      "subject": {
        "reference": "Patient/5f739500-ee12-4662-8980-ef95d8fa74c8"
      },
      "performedPeriod": {
        "start": "2026-11-02T09:00:00.000+00:00",
        "end": "2026-11-02T09:15:00.000+00:00"
      }
    },
    "request": {
      "method": "PUT",
      "url": "Procedure/21e1591f-32cd-48d1-9eb0-aca427e91301"
    }
  }, {
    "fullUrl": "https://madie.cms.gov/ServiceRequest/159babf5-11be-4b22-bd7e-362b53f35c25",
    "resource": {
      "resourceType": "ServiceRequest",
      "id": "159babf5-11be-4b22-bd7e-362b53f35c25",
      "meta": {
        "profile": [ "http://hl7.org/fhir/us/qicore/StructureDefinition/qicore-servicerequest" ]
      },
      "status": "active",
      "intent": "order",
      "doNotPerform": true,
      "code": {
        "coding": [ {
          "system": "http://snomed.info/sct",
          "version": "2025-03",
          "code": "442023007"
        } ]
      },
      "subject": {
        "reference": "Patient/5f739500-ee12-4662-8980-ef95d8fa74c8"
      },
      "authoredOn": "2026-11-02T11:00:00.000+00:00"
    },
    "request": {
      "method": "PUT",
      "url": "ServiceRequest/159babf5-11be-4b22-bd7e-362b53f35c25"
    }
  }, {
    "fullUrl": "https://madie.cms.gov/Task/b45fea0f-d3d6-407b-9a43-f537dcd964bf",
    "resource": {
      "resourceType": "Task",
      "id": "b45fea0f-d3d6-407b-9a43-f537dcd964bf",
      "meta": {
        "profile": [ "http://hl7.org/fhir/us/qicore/StructureDefinition/qicore-taskrejected" ]
      },
      "status": "rejected",
      "statusReason": {
        "coding": [ {
          "system": "http://snomed.info/sct",
          "code": "443390004",
          "display": "Refusal of treatment by patient (situation)",
          "userSelected": true
        } ]
      },
      "code": {
        "coding": [ {
          "system": "http://hl7.org/fhir/CodeSystem/task-code",
          "code": "fulfill"
        } ]
      },
      "focus": {
        "reference": "ServiceRequest/159babf5-11be-4b22-bd7e-362b53f35c25"
      },
      "executionPeriod": {
        "start": "2026-11-02T11:30:00.000+00:00",
        "end": "2026-11-02T11:35:00.000+00:00"
      }
    },
    "request": {
      "method": "PUT",
      "url": "Task/b45fea0f-d3d6-407b-9a43-f537dcd964bf"
    }
  }, {
    "fullUrl": "https://madie.cms.gov/Organization/b28eaa13-6478-4fc2-a047-b7806f019cda",
    "resource": {
      "resourceType": "Organization",
      "id": "b28eaa13-6478-4fc2-a047-b7806f019cda",
      "meta": {
        "profile": [ "http://hl7.org/fhir/us/qicore/StructureDefinition/qicore-organization" ]
      },
      "identifier": [ {
        "use": "temp",
        "system": "urn:oid:2.16.840.1.113883.4.4",
        "value": "21-3259825"
      } ],
      "active": true,
      "type": [ {
        "coding": [ {
          "system": "http://terminology.hl7.org/CodeSystem/organization-type",
          "code": "pay",
          "display": "Payer"
        } ]
      } ],
      "name": "Blue Cross Blue Shield of Texas",
      "telecom": [ {
        "system": "phone",
        "value": "(+1) 972-766-6900"
      } ],
      "address": [ {
        "use": "billing",
        "type": "postal",
        "line": [ "P.O. Box 660044" ],
        "city": "Dallas",
        "state": "TX",
        "postalCode": "75266-0044",
        "country": "USA"
      } ]
    },
    "request": {
      "method": "PUT",
      "url": "Organization/b28eaa13-6478-4fc2-a047-b7806f019cda"
    }
  }, {
    "fullUrl": "https://madie.cms.gov/Practitioner/19d245b9-5a65-4604-8c56-be578c0f147f",
    "resource": {
      "resourceType": "Practitioner",
      "id": "19d245b9-5a65-4604-8c56-be578c0f147f",
      "identifier": [ {
        "system": "http://hl7.org/fhir/sid/us-npi",
        "value": "123456"
      } ],
      "name": [ {
        "family": "Evil",
        "prefix": [ "Dr" ]
      } ]
    },
    "request": {
      "method": "PUT",
      "url": "Practitioner/19d245b9-5a65-4604-8c56-be578c0f147f"
    }
  }, {
    "fullUrl": "https://madie.cms.gov/MeasureReport/5dd7eca4-05b6-49c4-87b7-a7313b46d684",
    "resource": {
      "resourceType": "MeasureReport",
      "id": "5dd7eca4-05b6-49c4-87b7-a7313b46d684",
      "meta": {
        "profile": [ "http://hl7.org/fhir/us/cqfmeasures/StructureDefinition/test-case-cqfm" ]
      },
      "contained": [ {
        "resourceType": "Parameters",
        "id": "71a124c8-a60c-434e-8cad-f7443a6dcaa9-parameters",
        "parameter": [ {
          "name": "subject",
          "valueString": "5f739500-ee12-4662-8980-ef95d8fa74c8"
        } ]
      } ],
      "extension": [ {
        "url": "http://hl7.org/fhir/StructureDefinition/cqf-inputParameters",
        "valueReference": {
          "reference": "#71a124c8-a60c-434e-8cad-f7443a6dcaa9-parameters"
        }
      }, {
        "url": "http://hl7.org/fhir/us/cqfmeasures/StructureDefinition/cqfm-testCaseDescription",
        "valueMarkdown": "patient refused IPC order  rejected on 1 day after start of IP encounter and same day with Aneth\n"
      } ],
      "modifierExtension": [ {
        "url": "http://hl7.org/fhir/us/cqfmeasures/StructureDefinition/cqfm-isTestCase",
        "valueBoolean": true
      } ],
      "status": "complete",
      "type": "individual",
      "measure": "https://madie.cms.gov/Measure/CMS108FHIRVTEProphylaxis",
      "period": {
        "start": "2026-01-01",
        "end": "2026-12-31"
      },
      "group": [ {
        "id": "Group_1",
        "population": [ {
          "id": "InitialPopulation_1",
          "code": {
            "coding": [ {
              "system": "http://terminology.hl7.org/CodeSystem/measure-population",
              "code": "initial-population",
              "display": "Initial Population"
            } ]
          },
          "count": 1
        }, {
          "id": "Denominator_1",
          "code": {
            "coding": [ {
              "system": "http://terminology.hl7.org/CodeSystem/measure-population",
              "code": "denominator",
              "display": "Denominator"
            } ]
          },
          "count": 1
        }, {
          "id": "DenominatorExclusion_1",
          "code": {
            "coding": [ {
              "system": "http://terminology.hl7.org/CodeSystem/measure-population",
              "code": "denominator-exclusion",
              "display": "Denominator Exclusion"
            } ]
          },
          "count": 0
        }, {
          "id": "Numerator_1",
          "code": {
            "coding": [ {
              "system": "http://terminology.hl7.org/CodeSystem/measure-population",
              "code": "numerator",
              "display": "Numerator"
            } ]
          },
          "count": 1
        } ],
        "measureScore": {
          "value": 0.0
        }
      } ],
      "evaluatedResource": [ {
        "reference": "Patient/5f739500-ee12-4662-8980-ef95d8fa74c8"
      }, {
        "reference": "Encounter/c6631608-4907-4601-b9a8-aa389d82ba10"
      }, {
        "reference": "Coverage/2b4ff538-c0b9-4c1a-85bd-cacc88ac0257"
      }, {
        "reference": "Procedure/21e1591f-32cd-48d1-9eb0-aca427e91301"
      }, {
        "reference": "ServiceRequest/159babf5-11be-4b22-bd7e-362b53f35c25"
      }, {
        "reference": "Task/b45fea0f-d3d6-407b-9a43-f537dcd964bf"
      }, {
        "reference": "Organization/b28eaa13-6478-4fc2-a047-b7806f019cda"
      }, {
        "reference": "Practitioner/19d245b9-5a65-4604-8c56-be578c0f147f"
      } ]
    },
    "request": {
      "method": "PUT",
      "url": "MeasureReport/5dd7eca4-05b6-49c4-87b7-a7313b46d684"
    }
  } ]
}