{
  "resourceType": "Bundle",
  "id": "63487c300968f801225401b5",
  "type": "transaction",
  "entry": [ {
    "fullUrl": "https://madie.cms.gov/Patient/dac80bea-c605-43b0-bbf6-49cf74b6001e",
    "resource": {
      "resourceType": "Patient",
      "id": "dac80bea-c605-43b0-bbf6-49cf74b6001e",
      "meta": {
        "profile": [ "http://hl7.org/fhir/us/qicore/StructureDefinition/qicore-patient" ]
      },
      "text": {
        "status": "generated",
        "div": "<div xmlns=\"http://www.w3.org/1999/xhtml\"><div class=\"hapiHeaderText\">AssessG2P0PreTerm1Term1 <b>DENPASS </b></div><table class=\"hapiPropertyTable\"><tbody><tr><td>Identifier</td><td>b00b06f67015bda652373741cca10f65466d828e3a674df9528f73ec417ce0bb</td></tr><tr><td>Date of birth</td><td><span>14 February 1985</span></td></tr></tbody></table></div>"
      },
      "extension": [ {
        "url": "http://hl7.org/fhir/us/core/StructureDefinition/us-core-race",
        "extension": [ {
          "url": "ombCategory",
          "valueCoding": {
            "system": "urn:oid:2.16.840.1.113883.6.238",
            "code": "1002-5",
            "display": "American Indian or Alaska Native",
            "userSelected": true
          }
        }, {
          "url": "text",
          "valueString": "American Indian or Alaska Native"
        } ]
      }, {
        "url": "http://hl7.org/fhir/us/core/StructureDefinition/us-core-ethnicity",
        "extension": [ {
          "url": "ombCategory",
          "valueCoding": {
            "system": "urn:oid:2.16.840.1.113883.6.238",
            "code": "2135-2",
            "display": "Hispanic or Latino",
            "userSelected": true
          }
        }, {
          "url": "text",
          "valueString": "Hispanic or Latino"
        } ]
      } ],
      "identifier": [ {
        "type": {
          "coding": [ {
            "system": "http://terminology.hl7.org/CodeSystem/v2-0203",
            "code": "MR"
          } ]
        },
        "system": "https://bonnie-fhir.healthit.gov/",
        "value": "63487c300968f801225401b5"
      } ],
      "active": true,
      "name": [ {
        "use": "usual",
        "family": "DENPass",
        "given": [ "AssessG2P0PreTerm1Term1" ]
      } ],
      "gender": "female",
      "birthDate": "1998-02-14"
    },
    "request": {
      "method": "PUT",
      "url": "Patient/dac80bea-c605-43b0-bbf6-49cf74b6001e"
    }
  }, {
    "fullUrl": "https://madie.cms.gov/Observation/25ad49d9-245c-4e1e-97f7-7e93f6be1bc3",
    "resource": {
      "resourceType": "Observation",
      "id": "25ad49d9-245c-4e1e-97f7-7e93f6be1bc3",
      "meta": {
        "profile": [ "http://hl7.org/fhir/us/qicore/StructureDefinition/qicore-simple-observation" ]
      },
      "status": "final",
      "category": [ {
        "coding": [ {
          "system": "http://terminology.hl7.org/CodeSystem/observation-category",
          "code": "exam",
          "display": "exam",
          "userSelected": true
        } ]
      } ],
      "code": {
        "coding": [ {
          "system": "http://loinc.org",
          "code": "11996-6"
        } ]
      },
      "subject": {
        "reference": "Patient/dac80bea-c605-43b0-bbf6-49cf74b6001e"
      },
      "effectiveDateTime": "2025-10-19T08:10:00.000+00:00",
      "valueInteger": 2
    },
    "request": {
      "method": "PUT",
      "url": "Observation/25ad49d9-245c-4e1e-97f7-7e93f6be1bc3"
    }
  }, {
    "fullUrl": "https://madie.cms.gov/Observation/fe33c695-4f8f-4ebf-9cf5-9dedeba44c8e",
    "resource": {
      "resourceType": "Observation",
      "id": "fe33c695-4f8f-4ebf-9cf5-9dedeba44c8e",
      "meta": {
        "profile": [ "http://hl7.org/fhir/us/qicore/StructureDefinition/qicore-simple-observation" ]
      },
      "status": "final",
      "category": [ {
        "coding": [ {
          "system": "http://terminology.hl7.org/CodeSystem/observation-category",
          "code": "exam",
          "display": "exam",
          "userSelected": true
        } ]
      } ],
      "code": {
        "coding": [ {
          "system": "http://loinc.org",
          "code": "11884-4"
        } ]
      },
      "subject": {
        "reference": "Patient/dac80bea-c605-43b0-bbf6-49cf74b6001e"
      },
      "effectiveDateTime": "2026-06-08T09:15:00.000+00:00",
      "valueQuantity": {
        "value": 38,
        "system": "http://unitsofmeasure.org",
        "code": "wk"
      }
    },
    "request": {
      "method": "PUT",
      "url": "Observation/fe33c695-4f8f-4ebf-9cf5-9dedeba44c8e"
    }
  }, {
    "fullUrl": "https://madie.cms.gov/Observation/9d53424b-3c0f-47ef-bc42-25edf2f819b1",
    "resource": {
      "resourceType": "Observation",
      "id": "9d53424b-3c0f-47ef-bc42-25edf2f819b1",
      "meta": {
        "profile": [ "http://hl7.org/fhir/us/qicore/StructureDefinition/qicore-simple-observation" ]
      },
      "status": "final",
      "category": [ {
        "coding": [ {
          "system": "http://terminology.hl7.org/CodeSystem/observation-category",
          "code": "exam",
          "display": "exam",
          "userSelected": true
        } ]
      } ],
      "code": {
        "coding": [ {
          "system": "http://loinc.org",
          "code": "93857-1"
        } ]
      },
      "subject": {
        "reference": "Patient/dac80bea-c605-43b0-bbf6-49cf74b6001e"
      },
      "effectiveDateTime": "2026-06-08T20:00:00.000+00:00",
      "valueDateTime": "2026-06-08T20:00:00.000+00:00"
    },
    "request": {
      "method": "PUT",
      "url": "Observation/9d53424b-3c0f-47ef-bc42-25edf2f819b1"
    }
  }, {
    "fullUrl": "https://madie.cms.gov/Observation/a8dab777-e19c-415e-b6ba-cd89c6cda313",
    "resource": {
      "resourceType": "Observation",
      "id": "a8dab777-e19c-415e-b6ba-cd89c6cda313",
      "meta": {
        "profile": [ "http://hl7.org/fhir/us/qicore/StructureDefinition/qicore-simple-observation" ]
      },
      "status": "final",
      "category": [ {
        "coding": [ {
          "system": "http://terminology.hl7.org/CodeSystem/observation-category",
          "code": "exam",
          "display": "exam",
          "userSelected": true
        } ]
      } ],
      "code": {
        "coding": [ {
          "system": "http://loinc.org",
          "code": "11977-6"
        } ]
      },
      "subject": {
        "reference": "Patient/dac80bea-c605-43b0-bbf6-49cf74b6001e"
      },
      "effectiveDateTime": "2026-06-08T08:00:00.000+00:00",
      "valueInteger": 0
    },
    "request": {
      "method": "PUT",
      "url": "Observation/a8dab777-e19c-415e-b6ba-cd89c6cda313"
    }
  }, {
    "fullUrl": "https://madie.cms.gov/Observation/6dac880f-8562-4e7f-b519-5f49283a4c2b",
    "resource": {
      "resourceType": "Observation",
      "id": "6dac880f-8562-4e7f-b519-5f49283a4c2b",
      "meta": {
        "profile": [ "http://hl7.org/fhir/us/qicore/StructureDefinition/qicore-simple-observation" ]
      },
      "status": "final",
      "category": [ {
        "coding": [ {
          "system": "http://terminology.hl7.org/CodeSystem/observation-category",
          "code": "exam",
          "display": "exam",
          "userSelected": true
        } ]
      } ],
      "code": {
        "coding": [ {
          "system": "http://loinc.org",
          "code": "11637-6"
        } ]
      },
      "subject": {
        "reference": "Patient/dac80bea-c605-43b0-bbf6-49cf74b6001e"
      },
      "effectiveDateTime": "2026-06-08T08:00:00.000+00:00",
      "valueInteger": 1
    },
    "request": {
      "method": "PUT",
      "url": "Observation/6dac880f-8562-4e7f-b519-5f49283a4c2b"
    }
  }, {
    "fullUrl": "https://madie.cms.gov/Observation/64ea70a0-c382-48c4-b1e7-f5ca03e8619a",
    "resource": {
      "resourceType": "Observation",
      "id": "64ea70a0-c382-48c4-b1e7-f5ca03e8619a",
      "meta": {
        "profile": [ "http://hl7.org/fhir/us/qicore/StructureDefinition/qicore-simple-observation" ]
      },
      "status": "final",
      "category": [ {
        "coding": [ {
          "system": "http://terminology.hl7.org/CodeSystem/observation-category",
          "code": "exam",
          "display": "exam",
          "userSelected": true
        } ]
      } ],
      "code": {
        "coding": [ {
          "system": "http://loinc.org",
          "code": "11639-2"
        } ]
      },
      "subject": {
        "reference": "Patient/dac80bea-c605-43b0-bbf6-49cf74b6001e"
      },
      "effectiveDateTime": "2026-06-08T08:00:00.000+00:00",
      "valueInteger": 1
    },
    "request": {
      "method": "PUT",
      "url": "Observation/64ea70a0-c382-48c4-b1e7-f5ca03e8619a"
    }
  }, {
    "fullUrl": "https://madie.cms.gov/Encounter/c172a7cc-9436-450a-936d-030e937ccc3f",
    "resource": {
      "resourceType": "Encounter",
      "id": "c172a7cc-9436-450a-936d-030e937ccc3f",
      "meta": {
        "profile": [ "http://hl7.org/fhir/us/qicore/StructureDefinition/qicore-encounter" ]
      },
      "status": "finished",
      "class": {
        "system": "http://terminology.hl7.org/CodeSystem/v3-ActCode",
        "code": "IMP",
        "display": "inpatient encounter"
      },
      "type": [ {
        "coding": [ {
          "system": "http://snomed.info/sct",
          "code": "183452005"
        } ]
      } ],
      "subject": {
        "reference": "Patient/dac80bea-c605-43b0-bbf6-49cf74b6001e"
      },
      "period": {
        "start": "2026-06-08T08:00:00.000+00:00",
        "end": "2026-06-10T08:15:00.000+00:00"
      },
      "length": {
        "value": 2,
        "unit": "days"
      },
      "reasonReference": [ {
        "reference": "Condition/2cb0b353-5e48-4363-ab28-40f7b2b944f8"
      } ]
    },
    "request": {
      "method": "PUT",
      "url": "Encounter/c172a7cc-9436-450a-936d-030e937ccc3f"
    }
  }, {
    "fullUrl": "https://madie.cms.gov/Procedure/0083cfd8-aaf7-4b00-8298-390f689f5e8c",
    "resource": {
      "resourceType": "Procedure",
      "id": "0083cfd8-aaf7-4b00-8298-390f689f5e8c",
      "meta": {
        "profile": [ "http://hl7.org/fhir/us/qicore/StructureDefinition/qicore-procedure" ]
      },
      "extension": [ {
        "url": "http://hl7.org/fhir/us/qicore/StructureDefinition/qicore-recorded",
        "valueDateTime": "2014-04-05T13:35:00.000+00:00"
      } ],
      "status": "completed",
      "code": {
        "coding": [ {
          "system": "http://www.cms.gov/Medicare/Coding/ICD10",
          "code": "10D07Z3"
        } ]
      },
      "subject": {
        "reference": "Patient/dac80bea-c605-43b0-bbf6-49cf74b6001e"
      },
      "performedPeriod": {
        "start": "2026-06-08T08:10:00.000+00:00",
        "end": "2026-06-08T09:14:00.000+00:00"
      }
    },
    "request": {
      "method": "PUT",
      "url": "Procedure/0083cfd8-aaf7-4b00-8298-390f689f5e8c"
    }
  }, {
    "fullUrl": "https://madie.cms.gov/Condition/2cb0b353-5e48-4363-ab28-40f7b2b944f8",
    "resource": {
      "resourceType": "Condition",
      "id": "2cb0b353-5e48-4363-ab28-40f7b2b944f8",
      "meta": {
        "profile": [ "http://hl7.org/fhir/us/qicore/StructureDefinition/qicore-condition-encounter-diagnosis" ]
      },
      "category": [ {
        "coding": [ {
          "system": "http://terminology.hl7.org/CodeSystem/condition-category",
          "code": "encounter-diagnosis",
          "display": "Encounter Diagnosis"
        } ]
      } ],
      "code": {
        "coding": [ {
          "system": "http://snomed.info/sct",
          "version": "2022-09",
          "code": "169826009",
          "display": "Single live birth from singleton pregnancy (finding)",
          "userSelected": true
        } ]
      },
      "subject": {
        "reference": "Patient/dac80bea-c605-43b0-bbf6-49cf74b6001e"
      },
      "encounter": {
        "reference": "Encounter/c172a7cc-9436-450a-936d-030e937ccc3f"
      },
      "recordedDate": "2026-10-18T08:00:00.000+00:00"
    },
    "request": {
      "method": "PUT",
      "url": "Condition/2cb0b353-5e48-4363-ab28-40f7b2b944f8"
    }
  }, {
    "fullUrl": "https://madie.cms.gov/Coverage/7eb92984-065e-466e-9b87-b0df00ec0a40",
    "resource": {
      "resourceType": "Coverage",
      "id": "7eb92984-065e-466e-9b87-b0df00ec0a40",
      "meta": {
        "profile": [ "http://hl7.org/fhir/us/qicore/StructureDefinition/qicore-coverage" ]
      },
      "status": "active",
      "subscriberId": "523435",
      "beneficiary": {
        "reference": "Patient/dac80bea-c605-43b0-bbf6-49cf74b6001e"
      },
      "relationship": {
        "coding": [ {
          "system": "http://terminology.hl7.org/CodeSystem/subscriber-relationship",
          "code": "self"
        } ]
      },
      "payor": [ {
        "reference": "Organization/0ae5f68e-54f1-410b-a167-98dbd5787892"
      } ]
    },
    "request": {
      "method": "PUT",
      "url": "Coverage/7eb92984-065e-466e-9b87-b0df00ec0a40"
    }
  }, {
    "fullUrl": "https://madie.cms.gov/Organization/0ae5f68e-54f1-410b-a167-98dbd5787892",
    "resource": {
      "resourceType": "Organization",
      "id": "0ae5f68e-54f1-410b-a167-98dbd5787892",
      "meta": {
        "profile": [ "http://hl7.org/fhir/us/qicore/StructureDefinition/qicore-organization" ]
      },
      "identifier": [ {
        "use": "temp",
        "system": "urn:oid:2.16.840.1.113883.4.4",
        "value": "21-3259825"
      } ],
      "active": true,
      "type": [ {
        "coding": [ {
          "system": "http://terminology.hl7.org/CodeSystem/organization-type",
          "code": "pay",
          "display": "Payer"
        } ]
      } ],
      "name": "Blue Cross Blue Shield of Texas",
      "telecom": [ {
        "system": "phone",
        "value": "(+1) 972-766-6900"
      } ],
      "address": [ {
        "use": "billing",
        "type": "postal",
        "line": [ "P.O. Box 660044" ],
        "city": "Dallas",
        "state": "TX",
        "postalCode": "75266-0044",
        "country": "USA"
      } ]
    },
    "request": {
      "method": "PUT",
      "url": "Organization/0ae5f68e-54f1-410b-a167-98dbd5787892"
    }
  }, {
    "fullUrl": "https://madie.cms.gov/Practitioner/865d454b-0f86-4686-b969-d3e1ca6ffaf1",
    "resource": {
      "resourceType": "Practitioner",
      "id": "865d454b-0f86-4686-b969-d3e1ca6ffaf1",
      "meta": {
        "profile": [ "http://hl7.org/fhir/us/qicore/StructureDefinition/qicore-practitioner" ]
      },
      "identifier": [ {
        "system": "http://hl7.org/fhir/sid/us-npi",
        "value": "1234567890"
      } ],
      "name": [ {
        "family": "Evil",
        "prefix": [ "Dr" ]
      } ]
    },
    "request": {
      "method": "PUT",
      "url": "Practitioner/865d454b-0f86-4686-b969-d3e1ca6ffaf1"
    }
  }, {
    "fullUrl": "https://madie.cms.gov/MeasureReport/ab2c31fa-d3bf-4732-ae3a-5e80a27d1300",
    "resource": {
      "resourceType": "MeasureReport",
      "id": "ab2c31fa-d3bf-4732-ae3a-5e80a27d1300",
      "meta": {
        "profile": [ "http://hl7.org/fhir/us/cqfmeasures/StructureDefinition/test-case-cqfm" ]
      },
      "contained": [ {
        "resourceType": "Parameters",
        "id": "bfde08b5-af0a-4a69-b8e1-4140f377d57f-parameters",
        "parameter": [ {
          "name": "subject",
          "valueString": "dac80bea-c605-43b0-bbf6-49cf74b6001e"
        } ]
      } ],
      "extension": [ {
        "url": "http://hl7.org/fhir/StructureDefinition/cqf-inputParameters",
        "valueReference": {
          "reference": "#bfde08b5-af0a-4a69-b8e1-4140f377d57f-parameters"
        }
      }, {
        "url": "http://hl7.org/fhir/us/cqfmeasures/StructureDefinition/cqfm-testCaseDescription",
        "valueMarkdown": "Passes: IP, PassesDENOM,  Pt is 27 years of age,  encounter dx delivery of singleton, G2, P0, PreTerm 1 Term 1 rel date/time less than 42 weeks prior to delivery, EGA @ 38 weeks\n"
      } ],
      "modifierExtension": [ {
        "url": "http://hl7.org/fhir/us/cqfmeasures/StructureDefinition/cqfm-isTestCase",
        "valueBoolean": true
      } ],
      "status": "complete",
      "type": "individual",
      "measure": "https://madie.cms.gov/Measure/CMS0334FHIRPCCesareanBirth",
      "period": {
        "start": "2026-01-01",
        "end": "2026-12-31"
      },
      "group": [ {
        "id": "Group_1",
        "population": [ {
          "id": "InitialPopulation_1",
          "code": {
            "coding": [ {
              "system": "http://terminology.hl7.org/CodeSystem/measure-population",
              "code": "initial-population",
              "display": "Initial Population"
            } ]
          },
          "count": 1
        }, {
          "id": "Denominator_1",
          "code": {
            "coding": [ {
              "system": "http://terminology.hl7.org/CodeSystem/measure-population",
              "code": "denominator",
              "display": "Denominator"
            } ]
          },
          "count": 1
        }, {
          "id": "DenominatorExclusion_1",
          "code": {
            "coding": [ {
              "system": "http://terminology.hl7.org/CodeSystem/measure-population",
              "code": "denominator-exclusion",
              "display": "Denominator Exclusion"
            } ]
          },
          "count": 0
        }, {
          "id": "Numerator_1",
          "code": {
            "coding": [ {
              "system": "http://terminology.hl7.org/CodeSystem/measure-population",
              "code": "numerator",
              "display": "Numerator"
            } ]
          },
          "count": 0
        } ],
        "measureScore": {
          "value": 0.0
        }
      } ],
      "evaluatedResource": [ {
        "reference": "Patient/dac80bea-c605-43b0-bbf6-49cf74b6001e"
      }, {
        "reference": "Observation/25ad49d9-245c-4e1e-97f7-7e93f6be1bc3"
      }, {
        "reference": "Observation/fe33c695-4f8f-4ebf-9cf5-9dedeba44c8e"
      }, {
        "reference": "Observation/9d53424b-3c0f-47ef-bc42-25edf2f819b1"
      }, {
        "reference": "Observation/a8dab777-e19c-415e-b6ba-cd89c6cda313"
      }, {
        "reference": "Observation/6dac880f-8562-4e7f-b519-5f49283a4c2b"
      }, {
        "reference": "Observation/64ea70a0-c382-48c4-b1e7-f5ca03e8619a"
      }, {
        "reference": "Encounter/c172a7cc-9436-450a-936d-030e937ccc3f"
      }, {
        "reference": "Procedure/0083cfd8-aaf7-4b00-8298-390f689f5e8c"
      }, {
        "reference": "Condition/2cb0b353-5e48-4363-ab28-40f7b2b944f8"
      }, {
        "reference": "Coverage/7eb92984-065e-466e-9b87-b0df00ec0a40"
      }, {
        "reference": "Organization/0ae5f68e-54f1-410b-a167-98dbd5787892"
      }, {
        "reference": "Practitioner/865d454b-0f86-4686-b969-d3e1ca6ffaf1"
      } ]
    },
    "request": {
      "method": "PUT",
      "url": "MeasureReport/ab2c31fa-d3bf-4732-ae3a-5e80a27d1300"
    }
  } ]
}