{
  "resourceType": "Bundle",
  "id": "tests-DENEXFail-TwoSCrResultswithin48Hrs-CMS832-bundle",
  "type": "transaction",
  "entry": [ {
    "fullUrl": "https://madie.cms.gov/Observation/36dae845-3acd-4699-8bdd-eeffbef86ced",
    "resource": {
      "resourceType": "Observation",
      "id": "36dae845-3acd-4699-8bdd-eeffbef86ced",
      "meta": {
        "profile": [ "http://hl7.org/fhir/us/qicore/StructureDefinition/qicore-observation-lab" ]
      },
      "status": "final",
      "category": [ {
        "coding": [ {
          "system": "http://terminology.hl7.org/CodeSystem/observation-category",
          "code": "laboratory",
          "display": "Laboratory"
        } ]
      } ],
      "code": {
        "coding": [ {
          "system": "http://loinc.org",
          "version": "2.72",
          "code": "21232-4",
          "display": "Creatinine [Mass/volume] in Serum or Plasma"
        } ]
      },
      "subject": {
        "reference": "Patient/bfd784c1-7934-4b33-96fb-d808e1c95dbc"
      },
      "effectiveDateTime": "2026-09-24T12:15:00.000+00:00",
      "valueQuantity": {
        "value": 1,
        "unit": "mg/dL",
        "system": "http://unitsofmeasure.org",
        "code": "mg/dL"
      }
    },
    "request": {
      "method": "PUT",
      "url": "Observation/36dae845-3acd-4699-8bdd-eeffbef86ced"
    }
  }, {
    "fullUrl": "https://madie.cms.gov/Encounter/1d550013-7acd-4fc2-a18b-e8a0cec9b5ac",
    "resource": {
      "resourceType": "Encounter",
      "id": "1d550013-7acd-4fc2-a18b-e8a0cec9b5ac",
      "meta": {
        "profile": [ "http://hl7.org/fhir/us/qicore/StructureDefinition/qicore-encounter" ]
      },
      "status": "finished",
      "class": {
        "system": "http://terminology.hl7.org/CodeSystem/v3-ActCode",
        "code": "IMP",
        "display": "inpatient encounter"
      },
      "type": [ {
        "coding": [ {
          "system": "http://snomed.info/sct",
          "code": "183452005",
          "display": "Emergency hospital admission (procedure)"
        } ]
      } ],
      "subject": {
        "reference": "Patient/bfd784c1-7934-4b33-96fb-d808e1c95dbc"
      },
      "period": {
        "start": "2026-09-25T00:00:00.000+00:00",
        "end": "2026-09-27T12:15:00.000+00:00"
      }
    },
    "request": {
      "method": "PUT",
      "url": "Encounter/1d550013-7acd-4fc2-a18b-e8a0cec9b5ac"
    }
  }, {
    "fullUrl": "https://madie.cms.gov/Encounter/bf4fc142-e85f-4619-ad73-95620451124c",
    "resource": {
      "resourceType": "Encounter",
      "id": "bf4fc142-e85f-4619-ad73-95620451124c",
      "meta": {
        "profile": [ "http://hl7.org/fhir/us/qicore/StructureDefinition/qicore-encounter" ]
      },
      "status": "finished",
      "class": {
        "system": "http://terminology.hl7.org/CodeSystem/v3-ActCode",
        "code": "EMER",
        "display": "emergency encounter"
      },
      "type": [ {
        "coding": [ {
          "system": "http://snomed.info/sct",
          "code": "4525004",
          "display": "Emergency Department Visit"
        } ]
      } ],
      "subject": {
        "reference": "Patient/bfd784c1-7934-4b33-96fb-d808e1c95dbc"
      },
      "period": {
        "start": "2026-09-24T12:00:00.000+00:00",
        "end": "2026-09-25T00:00:00.000+00:00"
      }
    },
    "request": {
      "method": "PUT",
      "url": "Encounter/bf4fc142-e85f-4619-ad73-95620451124c"
    }
  }, {
    "fullUrl": "https://madie.cms.gov/Observation/823f873b-8eb3-4a6a-881c-bf554b4639f8",
    "resource": {
      "resourceType": "Observation",
      "id": "823f873b-8eb3-4a6a-881c-bf554b4639f8",
      "meta": {
        "profile": [ "http://hl7.org/fhir/us/qicore/StructureDefinition/qicore-observation-lab" ]
      },
      "status": "final",
      "category": [ {
        "coding": [ {
          "system": "http://terminology.hl7.org/CodeSystem/observation-category",
          "code": "laboratory",
          "display": "Laboratory"
        } ]
      } ],
      "code": {
        "coding": [ {
          "system": "http://loinc.org",
          "version": "2.72",
          "code": "21232-4",
          "display": "Creatinine [Mass/volume] in Serum or Plasma"
        } ]
      },
      "subject": {
        "reference": "Patient/bfd784c1-7934-4b33-96fb-d808e1c95dbc"
      },
      "effectiveDateTime": "2026-09-26T12:01:00.000+00:00",
      "valueQuantity": {
        "value": 1.1,
        "unit": "mg/dL",
        "system": "http://unitsofmeasure.org",
        "code": "mg/dL"
      }
    },
    "request": {
      "method": "PUT",
      "url": "Observation/823f873b-8eb3-4a6a-881c-bf554b4639f8"
    }
  }, {
    "fullUrl": "https://madie.cms.gov/Observation/331dc9ff-b7e1-4eea-a642-57a75afaf13b",
    "resource": {
      "resourceType": "Observation",
      "id": "331dc9ff-b7e1-4eea-a642-57a75afaf13b",
      "meta": {
        "profile": [ "http://hl7.org/fhir/us/qicore/StructureDefinition/qicore-observation-lab" ]
      },
      "status": "final",
      "category": [ {
        "coding": [ {
          "system": "http://terminology.hl7.org/CodeSystem/observation-category",
          "code": "laboratory",
          "display": "Laboratory"
        } ]
      } ],
      "code": {
        "coding": [ {
          "system": "http://loinc.org",
          "version": "2.72",
          "code": "21232-4",
          "display": "Creatinine [Mass/volume] in Serum or Plasma"
        } ]
      },
      "subject": {
        "reference": "Patient/bfd784c1-7934-4b33-96fb-d808e1c95dbc"
      },
      "effectiveDateTime": "2026-09-25T12:00:00.000+00:00",
      "valueQuantity": {
        "value": 1.1,
        "unit": "mg/dL",
        "system": "http://unitsofmeasure.org",
        "code": "mg/dL"
      }
    },
    "request": {
      "method": "PUT",
      "url": "Observation/331dc9ff-b7e1-4eea-a642-57a75afaf13b"
    }
  }, {
    "fullUrl": "https://madie.cms.gov/Patient/bfd784c1-7934-4b33-96fb-d808e1c95dbc",
    "resource": {
      "resourceType": "Patient",
      "id": "bfd784c1-7934-4b33-96fb-d808e1c95dbc",
      "meta": {
        "profile": [ "http://hl7.org/fhir/us/qicore/StructureDefinition/qicore-patient" ]
      },
      "extension": [ {
        "url": "http://hl7.org/fhir/us/core/StructureDefinition/us-core-race",
        "extension": [ {
          "url": "ombCategory",
          "valueCoding": {
            "system": "urn:oid:2.16.840.1.113883.6.238",
            "code": "2106-3",
            "display": "White"
          }
        }, {
          "url": "text",
          "valueString": "White"
        } ]
      }, {
        "url": "http://hl7.org/fhir/us/core/StructureDefinition/us-core-ethnicity",
        "extension": [ {
          "url": "ombCategory",
          "valueCoding": {
            "system": "urn:oid:2.16.840.1.113883.6.238",
            "code": "2135-2",
            "display": "Hispanic or Latino"
          }
        }, {
          "url": "text",
          "valueString": "Hispanic or Latino"
        } ]
      }, {
        "url": "http://hl7.org/fhir/us/core/StructureDefinition/us-core-sex",
        "valueCode": "248153007"
      } ],
      "identifier": [ {
        "system": "http://hospital.smarthealthit.org",
        "value": "999999999"
      } ],
      "name": [ {
        "family": "Example",
        "given": [ "Patient" ]
      } ],
      "gender": "female",
      "birthDate": "1957-01-01"
    },
    "request": {
      "method": "PUT",
      "url": "Patient/bfd784c1-7934-4b33-96fb-d808e1c95dbc"
    }
  }, {
    "fullUrl": "https://madie.cms.gov/MeasureReport/f37bee09-86f0-4b1f-8007-a7f18b99ddf9",
    "resource": {
      "resourceType": "MeasureReport",
      "id": "f37bee09-86f0-4b1f-8007-a7f18b99ddf9",
      "meta": {
        "profile": [ "http://hl7.org/fhir/us/cqfmeasures/StructureDefinition/test-case-cqfm" ]
      },
      "contained": [ {
        "resourceType": "Parameters",
        "id": "a2f32c23-4948-4cef-a2d1-08a700c4fe2a-parameters",
        "parameter": [ {
          "name": "subject",
          "valueString": "bfd784c1-7934-4b33-96fb-d808e1c95dbc"
        } ]
      } ],
      "extension": [ {
        "url": "http://hl7.org/fhir/StructureDefinition/cqf-inputParameters",
        "valueReference": {
          "reference": "#a2f32c23-4948-4cef-a2d1-08a700c4fe2a-parameters"
        }
      }, {
        "url": "http://hl7.org/fhir/us/cqfmeasures/StructureDefinition/cqfm-testCaseDescription",
        "valueMarkdown": "Encounter starts in ED. First SCr in ED, second SCr after admission to IP. Both within 48 hrs of arrival. Does not meet denom exclusion of less than 2 SCr within 48 hrs of arrival. "
      } ],
      "modifierExtension": [ {
        "url": "http://hl7.org/fhir/us/cqfmeasures/StructureDefinition/cqfm-isTestCase",
        "valueBoolean": true
      } ],
      "status": "complete",
      "type": "individual",
      "measure": "https://madie.cms.gov/Measure/CMS832FHIRHHAKI",
      "period": {
        "start": "2026-01-01",
        "end": "2026-12-31"
      },
      "group": [ {
        "id": "Group_1",
        "population": [ {
          "id": "InitialPopulation_1",
          "code": {
            "coding": [ {
              "system": "http://terminology.hl7.org/CodeSystem/measure-population",
              "code": "initial-population",
              "display": "Initial Population"
            } ]
          },
          "count": 1
        }, {
          "id": "Denominator_1",
          "code": {
            "coding": [ {
              "system": "http://terminology.hl7.org/CodeSystem/measure-population",
              "code": "denominator",
              "display": "Denominator"
            } ]
          },
          "count": 1
        }, {
          "id": "DenominatorExclusion_1",
          "code": {
            "coding": [ {
              "system": "http://terminology.hl7.org/CodeSystem/measure-population",
              "code": "denominator-exclusion",
              "display": "Denominator Exclusion"
            } ]
          },
          "count": 0
        }, {
          "id": "Numerator_1",
          "code": {
            "coding": [ {
              "system": "http://terminology.hl7.org/CodeSystem/measure-population",
              "code": "numerator",
              "display": "Numerator"
            } ]
          },
          "count": 0
        } ],
        "measureScore": {
          "value": 0.0
        }
      } ],
      "evaluatedResource": [ {
        "reference": "Observation/36dae845-3acd-4699-8bdd-eeffbef86ced"
      }, {
        "reference": "Encounter/1d550013-7acd-4fc2-a18b-e8a0cec9b5ac"
      }, {
        "reference": "Encounter/bf4fc142-e85f-4619-ad73-95620451124c"
      }, {
        "reference": "Observation/823f873b-8eb3-4a6a-881c-bf554b4639f8"
      }, {
        "reference": "Observation/331dc9ff-b7e1-4eea-a642-57a75afaf13b"
      }, {
        "reference": "Patient/bfd784c1-7934-4b33-96fb-d808e1c95dbc"
      } ]
    },
    "request": {
      "method": "PUT",
      "url": "MeasureReport/f37bee09-86f0-4b1f-8007-a7f18b99ddf9"
    }
  } ]
}