{
  "resourceType": "Bundle",
  "id": "627a80a15a0d870123c7253c",
  "type": "transaction",
  "entry": [ {
    "fullUrl": "https://madie.cms.gov/Patient/06d7810a-dcc6-4f6d-ab28-2a0843449475",
    "resource": {
      "resourceType": "Patient",
      "id": "06d7810a-dcc6-4f6d-ab28-2a0843449475",
      "meta": {
        "profile": [ "http://hl7.org/fhir/us/qicore/StructureDefinition/qicore-patient" ]
      },
      "extension": [ {
        "url": "http://hl7.org/fhir/us/core/StructureDefinition/us-core-race",
        "extension": [ {
          "url": "ombCategory",
          "valueCoding": {
            "system": "urn:oid:2.16.840.1.113883.6.238",
            "code": "1002-5",
            "display": "American Indian or Alaska Native",
            "userSelected": true
          }
        }, {
          "url": "text",
          "valueString": "American Indian or Alaska Native"
        }, {
          "url": "detailed",
          "valueCoding": {
            "system": "urn:oid:2.16.840.1.113883.6.238",
            "code": "1653-5",
            "display": "Tohono O'Odham"
          }
        } ]
      }, {
        "url": "http://hl7.org/fhir/us/core/StructureDefinition/us-core-ethnicity",
        "extension": [ {
          "url": "ombCategory",
          "valueCoding": {
            "system": "urn:oid:2.16.840.1.113883.6.238",
            "code": "2135-2",
            "display": "Hispanic or Latino",
            "userSelected": true
          }
        }, {
          "url": "text",
          "valueString": "Hispanic or Latino"
        } ]
      } ],
      "identifier": [ {
        "type": {
          "coding": [ {
            "system": "http://terminology.hl7.org/CodeSystem/v2-0203",
            "code": "MR"
          } ]
        },
        "system": "https://bonnie-fhir.healthit.gov/",
        "value": "627a80a15a0d870123c7253c"
      } ],
      "active": true,
      "name": [ {
        "use": "usual",
        "family": "DENOMPass",
        "given": [ "Age17InEDAge18DayOfIPAdmit" ]
      } ],
      "gender": "other",
      "birthDate": "2008-04-07"
    },
    "request": {
      "method": "PUT",
      "url": "Patient/06d7810a-dcc6-4f6d-ab28-2a0843449475"
    }
  }, {
    "fullUrl": "https://madie.cms.gov/Encounter/15e1c304-c9bb-4ef3-b940-2e2d536cebb4",
    "resource": {
      "resourceType": "Encounter",
      "id": "15e1c304-c9bb-4ef3-b940-2e2d536cebb4",
      "meta": {
        "profile": [ "http://hl7.org/fhir/us/qicore/StructureDefinition/qicore-encounter" ]
      },
      "status": "finished",
      "class": {
        "system": "http://terminology.hl7.org/CodeSystem/v3-ActCode",
        "code": "EMER",
        "display": "emergency"
      },
      "type": [ {
        "coding": [ {
          "system": "http://snomed.info/sct",
          "code": "4525004"
        } ]
      } ],
      "subject": {
        "reference": "Patient/06d7810a-dcc6-4f6d-ab28-2a0843449475"
      },
      "period": {
        "start": "2026-04-06T08:00:00.000+00:00",
        "end": "2026-04-07T08:15:00.000+00:00"
      }
    },
    "request": {
      "method": "PUT",
      "url": "Encounter/15e1c304-c9bb-4ef3-b940-2e2d536cebb4"
    }
  }, {
    "fullUrl": "https://madie.cms.gov/Encounter/75a60e50-33d8-4299-8734-4b77d80e1eca",
    "resource": {
      "resourceType": "Encounter",
      "id": "75a60e50-33d8-4299-8734-4b77d80e1eca",
      "meta": {
        "profile": [ "http://hl7.org/fhir/us/qicore/StructureDefinition/qicore-encounter" ]
      },
      "status": "finished",
      "class": {
        "system": "http://terminology.hl7.org/CodeSystem/v3-ActCode",
        "code": "IMP",
        "display": "inpatient encounter"
      },
      "type": [ {
        "coding": [ {
          "system": "http://snomed.info/sct",
          "code": "183452005"
        } ]
      } ],
      "subject": {
        "reference": "Patient/06d7810a-dcc6-4f6d-ab28-2a0843449475"
      },
      "period": {
        "start": "2026-04-07T09:00:00.000+00:00",
        "end": "2026-04-10T08:15:00.000+00:00"
      }
    },
    "request": {
      "method": "PUT",
      "url": "Encounter/75a60e50-33d8-4299-8734-4b77d80e1eca"
    }
  }, {
    "fullUrl": "https://madie.cms.gov/MedicationAdministration/7536edfc-7bc1-4ed6-9e60-f438a15fd175",
    "resource": {
      "resourceType": "MedicationAdministration",
      "id": "7536edfc-7bc1-4ed6-9e60-f438a15fd175",
      "meta": {
        "profile": [ "http://hl7.org/fhir/us/qicore/StructureDefinition/qicore-medicationadministration" ]
      },
      "status": "completed",
      "medicationCodeableConcept": {
        "coding": [ {
          "system": "http://www.nlm.nih.gov/research/umls/rxnorm",
          "code": "1010600"
        } ]
      },
      "subject": {
        "reference": "Patient/06d7810a-dcc6-4f6d-ab28-2a0843449475"
      },
      "effectivePeriod": {
        "start": "2026-04-07T08:00:00.000+00:00",
        "end": "2026-04-07T08:15:00.000+00:00"
      }
    },
    "request": {
      "method": "PUT",
      "url": "MedicationAdministration/7536edfc-7bc1-4ed6-9e60-f438a15fd175"
    }
  }, {
    "fullUrl": "https://madie.cms.gov/MeasureReport/26f6bea0-a790-4d1d-bf06-8e8cda30dafe",
    "resource": {
      "resourceType": "MeasureReport",
      "id": "26f6bea0-a790-4d1d-bf06-8e8cda30dafe",
      "meta": {
        "profile": [ "http://hl7.org/fhir/us/cqfmeasures/StructureDefinition/test-case-cqfm" ]
      },
      "contained": [ {
        "resourceType": "Parameters",
        "id": "83b1d75a-72e0-479f-8c93-8fde44131d74-parameters",
        "parameter": [ {
          "name": "subject",
          "valueString": "06d7810a-dcc6-4f6d-ab28-2a0843449475"
        } ]
      } ],
      "extension": [ {
        "url": "http://hl7.org/fhir/StructureDefinition/cqf-inputParameters",
        "valueReference": {
          "reference": "#83b1d75a-72e0-479f-8c93-8fde44131d74-parameters"
        }
      }, {
        "url": "http://hl7.org/fhir/us/cqfmeasures/StructureDefinition/cqfm-testCaseDescription",
        "valueMarkdown": "Age 17 in ED, 18 at time of admission meets denominator. Sex = \"other\". "
      } ],
      "modifierExtension": [ {
        "url": "http://hl7.org/fhir/us/cqfmeasures/StructureDefinition/cqfm-isTestCase",
        "valueBoolean": true
      } ],
      "status": "complete",
      "type": "individual",
      "measure": "https://madie.cms.gov/Measure/CMS819FHIRHHORAE",
      "period": {
        "start": "2026-01-01",
        "end": "2026-12-31"
      },
      "group": [ {
        "id": "Group_1",
        "population": [ {
          "id": "InitialPopulation_1",
          "code": {
            "coding": [ {
              "system": "http://terminology.hl7.org/CodeSystem/measure-population",
              "code": "initial-population",
              "display": "Initial Population"
            } ]
          },
          "count": 1
        }, {
          "id": "Denominator_1",
          "code": {
            "coding": [ {
              "system": "http://terminology.hl7.org/CodeSystem/measure-population",
              "code": "denominator",
              "display": "Denominator"
            } ]
          },
          "count": 1
        }, {
          "id": "Numerator_1",
          "code": {
            "coding": [ {
              "system": "http://terminology.hl7.org/CodeSystem/measure-population",
              "code": "numerator",
              "display": "Numerator"
            } ]
          },
          "count": 0
        } ],
        "measureScore": {
          "value": 0.0
        }
      } ],
      "evaluatedResource": [ {
        "reference": "Patient/06d7810a-dcc6-4f6d-ab28-2a0843449475"
      }, {
        "reference": "Encounter/15e1c304-c9bb-4ef3-b940-2e2d536cebb4"
      }, {
        "reference": "Encounter/75a60e50-33d8-4299-8734-4b77d80e1eca"
      }, {
        "reference": "MedicationAdministration/7536edfc-7bc1-4ed6-9e60-f438a15fd175"
      } ]
    },
    "request": {
      "method": "PUT",
      "url": "MeasureReport/26f6bea0-a790-4d1d-bf06-8e8cda30dafe"
    }
  } ]
}