{
  "resourceType": "Bundle",
  "id": "sf044ef3e654daa9111",
  "type": "transaction",
  "entry": [ {
    "fullUrl": "https://madie.cms.gov/Patient/ec6cb977-9504-4c02-a278-0ab4a7d9f5ca",
    "resource": {
      "resourceType": "Patient",
      "id": "ec6cb977-9504-4c02-a278-0ab4a7d9f5ca",
      "meta": {
        "profile": [ "http://hl7.org/fhir/us/qicore/StructureDefinition/qicore-patient" ]
      },
      "extension": [ {
        "url": "http://hl7.org/fhir/us/core/StructureDefinition/us-core-race",
        "extension": [ {
          "url": "ombCategory",
          "valueCoding": {
            "system": "urn:oid:2.16.840.1.113883.6.238",
            "code": "1002-5",
            "display": "American Indian or Alaska Native",
            "userSelected": true
          }
        }, {
          "url": "text",
          "valueString": "American Indian or Alaska Native"
        } ]
      }, {
        "url": "http://hl7.org/fhir/us/core/StructureDefinition/us-core-ethnicity",
        "extension": [ {
          "url": "ombCategory",
          "valueCoding": {
            "system": "urn:oid:2.16.840.1.113883.6.238",
            "code": "2135-2",
            "display": "Hispanic or Latino",
            "userSelected": true
          }
        }, {
          "url": "text",
          "valueString": "Hispanic or Latino"
        } ]
      }, {
        "url": "http://hl7.org/fhir/us/core/StructureDefinition/us-core-sex",
        "valueCode": "248153007"
      } ],
      "identifier": [ {
        "type": {
          "coding": [ {
            "system": "http://terminology.hl7.org/CodeSystem/v2-0203",
            "code": "MR"
          } ]
        },
        "system": "https://bonnie-fhir.healthit.gov/",
        "value": "sf044ef3e654daa9111"
      } ],
      "name": [ {
        "family": "DENEXCL6PASS",
        "given": [ "LongTermAnticoagulantUseStartsDuringEDNoEnd" ]
      } ],
      "gender": "male",
      "birthDate": "1976-08-25"
    },
    "request": {
      "method": "PUT",
      "url": "Patient/ec6cb977-9504-4c02-a278-0ab4a7d9f5ca"
    }
  }, {
    "fullUrl": "https://madie.cms.gov/Encounter/ac09ccad-0b28-4e91-b0a9-4325709c7840",
    "resource": {
      "resourceType": "Encounter",
      "id": "ac09ccad-0b28-4e91-b0a9-4325709c7840",
      "meta": {
        "profile": [ "http://hl7.org/fhir/us/qicore/StructureDefinition/qicore-encounter" ]
      },
      "status": "finished",
      "class": {
        "system": "http://terminology.hl7.org/CodeSystem/v3-ActCode",
        "code": "EMER",
        "display": "emergency",
        "userSelected": true
      },
      "type": [ {
        "coding": [ {
          "system": "http://snomed.info/sct",
          "version": "2020-09",
          "code": "4525004",
          "display": "Emergency department patient visit",
          "userSelected": true
        } ]
      } ],
      "subject": {
        "reference": "Patient/ec6cb977-9504-4c02-a278-0ab4a7d9f5ca"
      },
      "period": {
        "start": "2026-10-09T05:00:00.000+00:00",
        "end": "2026-10-13T17:00:00.000+00:00"
      },
      "reasonCode": [ {
        "coding": [ {
          "system": "http://hl7.org/fhir/sid/icd-10-cm",
          "code": "I21.21",
          "display": "ST elevation (STEMI) myocardial infarction involving left circumflex coronary artery",
          "userSelected": true
        } ]
      } ]
    },
    "request": {
      "method": "PUT",
      "url": "Encounter/ac09ccad-0b28-4e91-b0a9-4325709c7840"
    }
  }, {
    "fullUrl": "https://madie.cms.gov/Condition/2ba5a6fc-4e65-4dba-861e-841bf4ea55d2",
    "resource": {
      "resourceType": "Condition",
      "id": "2ba5a6fc-4e65-4dba-861e-841bf4ea55d2",
      "meta": {
        "profile": [ "http://hl7.org/fhir/us/qicore/StructureDefinition/qicore-condition-encounter-diagnosis" ]
      },
      "clinicalStatus": {
        "coding": [ {
          "system": "http://terminology.hl7.org/CodeSystem/condition-clinical",
          "code": "active",
          "display": "Active",
          "userSelected": true
        } ]
      },
      "verificationStatus": {
        "coding": [ {
          "system": "http://terminology.hl7.org/CodeSystem/condition-ver-status",
          "code": "unconfirmed"
        } ]
      },
      "category": [ {
        "coding": [ {
          "system": "http://terminology.hl7.org/CodeSystem/condition-category",
          "code": "encounter-diagnosis",
          "display": "Encounter Diagnosis",
          "userSelected": true
        } ]
      } ],
      "code": {
        "coding": [ {
          "system": "http://hl7.org/fhir/sid/icd-10-cm",
          "code": "Z79.01",
          "display": "Long term (current) use of anticoagulants",
          "userSelected": true
        } ]
      },
      "subject": {
        "reference": "Patient/ec6cb977-9504-4c02-a278-0ab4a7d9f5ca"
      },
      "onsetDateTime": "2026-10-08T05:00:00.000+00:00"
    },
    "request": {
      "method": "PUT",
      "url": "Condition/2ba5a6fc-4e65-4dba-861e-841bf4ea55d2"
    }
  }, {
    "fullUrl": "https://madie.cms.gov/MeasureReport/e51b8dac-0e07-4b35-8474-eeb3f82f97f8",
    "resource": {
      "resourceType": "MeasureReport",
      "id": "e51b8dac-0e07-4b35-8474-eeb3f82f97f8",
      "meta": {
        "profile": [ "http://hl7.org/fhir/us/cqfmeasures/StructureDefinition/test-case-cqfm" ]
      },
      "contained": [ {
        "resourceType": "Parameters",
        "id": "ef65a424-e940-4ef0-b0b9-6c2c19023b53-parameters",
        "parameter": [ {
          "name": "subject",
          "valueString": "ec6cb977-9504-4c02-a278-0ab4a7d9f5ca"
        } ]
      } ],
      "extension": [ {
        "url": "http://hl7.org/fhir/StructureDefinition/cqf-inputParameters",
        "valueReference": {
          "reference": "#ef65a424-e940-4ef0-b0b9-6c2c19023b53-parameters"
        }
      }, {
        "url": "http://hl7.org/fhir/us/cqfmeasures/StructureDefinition/cqfm-testCaseDescription",
        "valueMarkdown": "Patient has long term anticoagulant use that starts at the same time as ED encounter with no end time (open abatement) "
      } ],
      "modifierExtension": [ {
        "url": "http://hl7.org/fhir/us/cqfmeasures/StructureDefinition/cqfm-isTestCase",
        "valueBoolean": true
      } ],
      "status": "complete",
      "type": "individual",
      "measure": "https://madie.cms.gov/Measure/CMS996FHIRAptTxforSTEMI",
      "period": {
        "start": "2026-01-01",
        "end": "2026-12-31"
      },
      "group": [ {
        "id": "Group_1",
        "population": [ {
          "id": "InitialPopulation_1",
          "code": {
            "coding": [ {
              "system": "http://terminology.hl7.org/CodeSystem/measure-population",
              "code": "initial-population",
              "display": "Initial Population"
            } ]
          },
          "count": 1
        }, {
          "id": "Denominator_1",
          "code": {
            "coding": [ {
              "system": "http://terminology.hl7.org/CodeSystem/measure-population",
              "code": "denominator",
              "display": "Denominator"
            } ]
          },
          "count": 1
        }, {
          "id": "DenominatorExclusion_1",
          "code": {
            "coding": [ {
              "system": "http://terminology.hl7.org/CodeSystem/measure-population",
              "code": "denominator-exclusion",
              "display": "Denominator Exclusion"
            } ]
          },
          "count": 1
        }, {
          "id": "Numerator_1",
          "code": {
            "coding": [ {
              "system": "http://terminology.hl7.org/CodeSystem/measure-population",
              "code": "numerator",
              "display": "Numerator"
            } ]
          },
          "count": 0
        }, {
          "id": "DenominatorException_1",
          "code": {
            "coding": [ {
              "system": "http://terminology.hl7.org/CodeSystem/measure-population",
              "code": "denominator-exception",
              "display": "Denominator Exception"
            } ]
          },
          "count": 0
        } ],
        "measureScore": {
          "value": 0.0
        }
      } ],
      "evaluatedResource": [ {
        "reference": "Patient/ec6cb977-9504-4c02-a278-0ab4a7d9f5ca"
      }, {
        "reference": "Encounter/ac09ccad-0b28-4e91-b0a9-4325709c7840"
      }, {
        "reference": "Condition/2ba5a6fc-4e65-4dba-861e-841bf4ea55d2"
      } ]
    },
    "request": {
      "method": "PUT",
      "url": "MeasureReport/e51b8dac-0e07-4b35-8474-eeb3f82f97f8"
    }
  } ]
}