{
  "resourceType": "Bundle",
  "id": "63487c2e0968f80122540168",
  "type": "transaction",
  "entry": [ {
    "fullUrl": "https://madie.cms.gov/Patient/d2556dbf-f07b-4208-921b-86d33f321760",
    "resource": {
      "resourceType": "Patient",
      "id": "d2556dbf-f07b-4208-921b-86d33f321760",
      "meta": {
        "profile": [ "http://hl7.org/fhir/us/qicore/StructureDefinition/qicore-patient" ]
      },
      "text": {
        "status": "generated",
        "div": "<div xmlns=\"http://www.w3.org/1999/xhtml\"><div class=\"hapiHeaderText\">AssessP0 <b>DENPASS </b></div><table class=\"hapiPropertyTable\"><tbody><tr><td>Identifier</td><td>c06cc2d514ccfaffa49c54295f23978df6f00fe92fbd59d826ce4eb31140ad8c</td></tr><tr><td>Date of birth</td><td><span>14 February 1985</span></td></tr></tbody></table></div>"
      },
      "extension": [ {
        "url": "http://hl7.org/fhir/us/core/StructureDefinition/us-core-race",
        "extension": [ {
          "url": "ombCategory",
          "valueCoding": {
            "system": "urn:oid:2.16.840.1.113883.6.238",
            "code": "1002-5",
            "display": "American Indian or Alaska Native",
            "userSelected": true
          }
        }, {
          "url": "text",
          "valueString": "American Indian or Alaska Native"
        } ]
      }, {
        "url": "http://hl7.org/fhir/us/core/StructureDefinition/us-core-ethnicity",
        "extension": [ {
          "url": "ombCategory",
          "valueCoding": {
            "system": "urn:oid:2.16.840.1.113883.6.238",
            "code": "2135-2",
            "display": "Hispanic or Latino",
            "userSelected": true
          }
        }, {
          "url": "text",
          "valueString": "Hispanic or Latino"
        } ]
      } ],
      "identifier": [ {
        "type": {
          "coding": [ {
            "system": "http://terminology.hl7.org/CodeSystem/v2-0203",
            "code": "MR"
          } ]
        },
        "system": "https://bonnie-fhir.healthit.gov/",
        "value": "63487c2e0968f80122540168"
      } ],
      "active": true,
      "name": [ {
        "use": "usual",
        "family": "DENPass",
        "given": [ "AssessP0" ]
      } ],
      "gender": "female",
      "birthDate": "1998-02-14"
    },
    "request": {
      "method": "PUT",
      "url": "Patient/d2556dbf-f07b-4208-921b-86d33f321760"
    }
  }, {
    "fullUrl": "https://madie.cms.gov/Observation/76d01e4f-a3c5-4d09-aad2-16cabc1f742b",
    "resource": {
      "resourceType": "Observation",
      "id": "76d01e4f-a3c5-4d09-aad2-16cabc1f742b",
      "meta": {
        "profile": [ "http://hl7.org/fhir/us/qicore/StructureDefinition/qicore-simple-observation" ]
      },
      "status": "final",
      "category": [ {
        "coding": [ {
          "system": "http://terminology.hl7.org/CodeSystem/observation-category",
          "code": "exam",
          "display": "exam",
          "userSelected": true
        } ]
      } ],
      "code": {
        "coding": [ {
          "system": "http://loinc.org",
          "code": "11977-6"
        } ]
      },
      "subject": {
        "reference": "Patient/d2556dbf-f07b-4208-921b-86d33f321760"
      },
      "effectiveDateTime": "2025-10-20T09:00:00.000+00:00",
      "valueInteger": 0
    },
    "request": {
      "method": "PUT",
      "url": "Observation/76d01e4f-a3c5-4d09-aad2-16cabc1f742b"
    }
  }, {
    "fullUrl": "https://madie.cms.gov/Observation/0107c4c0-da14-4b4e-8582-f47fb7367751",
    "resource": {
      "resourceType": "Observation",
      "id": "0107c4c0-da14-4b4e-8582-f47fb7367751",
      "meta": {
        "profile": [ "http://hl7.org/fhir/us/qicore/StructureDefinition/qicore-simple-observation" ]
      },
      "status": "final",
      "category": [ {
        "coding": [ {
          "system": "http://terminology.hl7.org/CodeSystem/observation-category",
          "code": "exam",
          "display": "exam",
          "userSelected": true
        } ]
      } ],
      "code": {
        "coding": [ {
          "system": "http://loinc.org",
          "code": "11884-4"
        } ]
      },
      "subject": {
        "reference": "Patient/d2556dbf-f07b-4208-921b-86d33f321760"
      },
      "effectiveDateTime": "2026-06-08T20:00:00.000+00:00",
      "valueQuantity": {
        "value": 37,
        "system": "http://unitsofmeasure.org",
        "code": "wk"
      }
    },
    "request": {
      "method": "PUT",
      "url": "Observation/0107c4c0-da14-4b4e-8582-f47fb7367751"
    }
  }, {
    "fullUrl": "https://madie.cms.gov/Observation/670618bf-7d3a-44e5-b25a-67b79938b695",
    "resource": {
      "resourceType": "Observation",
      "id": "670618bf-7d3a-44e5-b25a-67b79938b695",
      "meta": {
        "profile": [ "http://hl7.org/fhir/us/qicore/StructureDefinition/qicore-simple-observation" ]
      },
      "status": "final",
      "category": [ {
        "coding": [ {
          "system": "http://terminology.hl7.org/CodeSystem/observation-category",
          "code": "exam",
          "display": "exam",
          "userSelected": true
        } ]
      } ],
      "code": {
        "coding": [ {
          "system": "http://loinc.org",
          "code": "93857-1"
        } ]
      },
      "subject": {
        "reference": "Patient/d2556dbf-f07b-4208-921b-86d33f321760"
      },
      "effectiveDateTime": "2026-06-08T20:00:00.000+00:00",
      "valueDateTime": "2026-06-08T20:00:00.000+00:00"
    },
    "request": {
      "method": "PUT",
      "url": "Observation/670618bf-7d3a-44e5-b25a-67b79938b695"
    }
  }, {
    "fullUrl": "https://madie.cms.gov/Encounter/85bbd4c0-ec51-4512-8a85-be7c4d2793f7",
    "resource": {
      "resourceType": "Encounter",
      "id": "85bbd4c0-ec51-4512-8a85-be7c4d2793f7",
      "meta": {
        "profile": [ "http://hl7.org/fhir/us/qicore/StructureDefinition/qicore-encounter" ]
      },
      "status": "finished",
      "class": {
        "system": "http://terminology.hl7.org/CodeSystem/v3-ActCode",
        "code": "IMP",
        "display": "inpatient encounter"
      },
      "type": [ {
        "coding": [ {
          "system": "http://snomed.info/sct",
          "code": "8715000"
        } ]
      } ],
      "subject": {
        "reference": "Patient/d2556dbf-f07b-4208-921b-86d33f321760"
      },
      "period": {
        "start": "2026-06-08T08:00:00.000+00:00",
        "end": "2026-06-10T08:15:00.000+00:00"
      },
      "reasonReference": [ {
        "reference": "Condition/1af22c47-5525-4083-9d03-8a9dde2324d6"
      } ]
    },
    "request": {
      "method": "PUT",
      "url": "Encounter/85bbd4c0-ec51-4512-8a85-be7c4d2793f7"
    }
  }, {
    "fullUrl": "https://madie.cms.gov/Procedure/f6dbbf4b-9b3e-4375-98ea-63a72582985f",
    "resource": {
      "resourceType": "Procedure",
      "id": "f6dbbf4b-9b3e-4375-98ea-63a72582985f",
      "meta": {
        "profile": [ "http://hl7.org/fhir/us/qicore/StructureDefinition/qicore-procedure" ]
      },
      "extension": [ {
        "url": "http://hl7.org/fhir/us/qicore/StructureDefinition/qicore-recorded",
        "valueDateTime": "2014-04-05T13:35:00.000+00:00"
      } ],
      "status": "completed",
      "code": {
        "coding": [ {
          "system": "http://snomed.info/sct",
          "code": "4504004"
        } ]
      },
      "subject": {
        "reference": "Patient/d2556dbf-f07b-4208-921b-86d33f321760"
      },
      "performedPeriod": {
        "start": "2026-06-08T20:00:00.000+00:00",
        "end": "2026-06-08T20:15:00.000+00:00"
      }
    },
    "request": {
      "method": "PUT",
      "url": "Procedure/f6dbbf4b-9b3e-4375-98ea-63a72582985f"
    }
  }, {
    "fullUrl": "https://madie.cms.gov/Condition/1af22c47-5525-4083-9d03-8a9dde2324d6",
    "resource": {
      "resourceType": "Condition",
      "id": "1af22c47-5525-4083-9d03-8a9dde2324d6",
      "meta": {
        "profile": [ "http://hl7.org/fhir/us/qicore/StructureDefinition/qicore-condition-encounter-diagnosis" ]
      },
      "category": [ {
        "coding": [ {
          "system": "http://terminology.hl7.org/CodeSystem/condition-category",
          "code": "encounter-diagnosis",
          "display": "Encounter Diagnosis"
        } ]
      } ],
      "code": {
        "coding": [ {
          "system": "http://snomed.info/sct",
          "version": "2022-09",
          "code": "169826009",
          "display": "Single live birth from singleton pregnancy (finding)",
          "userSelected": true
        } ]
      },
      "subject": {
        "reference": "Patient/d2556dbf-f07b-4208-921b-86d33f321760"
      },
      "encounter": {
        "reference": "Encounter/85bbd4c0-ec51-4512-8a85-be7c4d2793f7"
      },
      "recordedDate": "2026-10-14T08:00:00.000+00:00"
    },
    "request": {
      "method": "PUT",
      "url": "Condition/1af22c47-5525-4083-9d03-8a9dde2324d6"
    }
  }, {
    "fullUrl": "https://madie.cms.gov/Coverage/8031f20a-0d3d-4136-b428-343b4bf33c9d",
    "resource": {
      "resourceType": "Coverage",
      "id": "8031f20a-0d3d-4136-b428-343b4bf33c9d",
      "meta": {
        "profile": [ "http://hl7.org/fhir/us/qicore/StructureDefinition/qicore-coverage" ]
      },
      "status": "active",
      "subscriberId": "523435",
      "beneficiary": {
        "reference": "Patient/d2556dbf-f07b-4208-921b-86d33f321760"
      },
      "relationship": {
        "coding": [ {
          "system": "http://terminology.hl7.org/CodeSystem/subscriber-relationship",
          "code": "self"
        } ]
      },
      "payor": [ {
        "reference": "Organization/627305a1-f7ce-4259-9315-79db56fb69d3"
      } ]
    },
    "request": {
      "method": "PUT",
      "url": "Coverage/8031f20a-0d3d-4136-b428-343b4bf33c9d"
    }
  }, {
    "fullUrl": "https://madie.cms.gov/Organization/627305a1-f7ce-4259-9315-79db56fb69d3",
    "resource": {
      "resourceType": "Organization",
      "id": "627305a1-f7ce-4259-9315-79db56fb69d3",
      "meta": {
        "profile": [ "http://hl7.org/fhir/us/qicore/StructureDefinition/qicore-organization" ]
      },
      "identifier": [ {
        "use": "temp",
        "system": "urn:oid:2.16.840.1.113883.4.4",
        "value": "21-3259825"
      } ],
      "active": true,
      "type": [ {
        "coding": [ {
          "system": "http://terminology.hl7.org/CodeSystem/organization-type",
          "code": "pay",
          "display": "Payer"
        } ]
      } ],
      "name": "Blue Cross Blue Shield of Texas",
      "telecom": [ {
        "system": "phone",
        "value": "(+1) 972-766-6900"
      } ],
      "address": [ {
        "use": "billing",
        "type": "postal",
        "line": [ "P.O. Box 660044" ],
        "city": "Dallas",
        "state": "TX",
        "postalCode": "75266-0044",
        "country": "USA"
      } ]
    },
    "request": {
      "method": "PUT",
      "url": "Organization/627305a1-f7ce-4259-9315-79db56fb69d3"
    }
  }, {
    "fullUrl": "https://madie.cms.gov/Practitioner/98aaf868-a2a2-4eca-854f-d2423069a950",
    "resource": {
      "resourceType": "Practitioner",
      "id": "98aaf868-a2a2-4eca-854f-d2423069a950",
      "meta": {
        "profile": [ "http://hl7.org/fhir/us/qicore/StructureDefinition/qicore-practitioner" ]
      },
      "identifier": [ {
        "system": "http://hl7.org/fhir/sid/us-npi",
        "value": "1234567890"
      } ],
      "name": [ {
        "family": "Evil",
        "prefix": [ "Dr" ]
      } ]
    },
    "request": {
      "method": "PUT",
      "url": "Practitioner/98aaf868-a2a2-4eca-854f-d2423069a950"
    }
  }, {
    "fullUrl": "https://madie.cms.gov/MeasureReport/1493b33c-b9df-424c-bdff-6be70ab8ced0",
    "resource": {
      "resourceType": "MeasureReport",
      "id": "1493b33c-b9df-424c-bdff-6be70ab8ced0",
      "meta": {
        "profile": [ "http://hl7.org/fhir/us/cqfmeasures/StructureDefinition/test-case-cqfm" ]
      },
      "contained": [ {
        "resourceType": "Parameters",
        "id": "5e611f68-b515-4991-a66e-67c385848fb5-parameters",
        "parameter": [ {
          "name": "subject",
          "valueString": "d2556dbf-f07b-4208-921b-86d33f321760"
        } ]
      } ],
      "extension": [ {
        "url": "http://hl7.org/fhir/StructureDefinition/cqf-inputParameters",
        "valueReference": {
          "reference": "#5e611f68-b515-4991-a66e-67c385848fb5-parameters"
        }
      }, {
        "url": "http://hl7.org/fhir/us/cqfmeasures/StructureDefinition/cqfm-testCaseDescription",
        "valueMarkdown": "Parity=0, relevant date/time less than 42 weeks prior to delivery date/time\n"
      } ],
      "modifierExtension": [ {
        "url": "http://hl7.org/fhir/us/cqfmeasures/StructureDefinition/cqfm-isTestCase",
        "valueBoolean": true
      } ],
      "status": "complete",
      "type": "individual",
      "measure": "https://madie.cms.gov/Measure/CMS0334FHIRPCCesareanBirth",
      "period": {
        "start": "2026-01-01",
        "end": "2026-12-31"
      },
      "group": [ {
        "id": "Group_1",
        "population": [ {
          "id": "InitialPopulation_1",
          "code": {
            "coding": [ {
              "system": "http://terminology.hl7.org/CodeSystem/measure-population",
              "code": "initial-population",
              "display": "Initial Population"
            } ]
          },
          "count": 1
        }, {
          "id": "Denominator_1",
          "code": {
            "coding": [ {
              "system": "http://terminology.hl7.org/CodeSystem/measure-population",
              "code": "denominator",
              "display": "Denominator"
            } ]
          },
          "count": 1
        }, {
          "id": "DenominatorExclusion_1",
          "code": {
            "coding": [ {
              "system": "http://terminology.hl7.org/CodeSystem/measure-population",
              "code": "denominator-exclusion",
              "display": "Denominator Exclusion"
            } ]
          },
          "count": 0
        }, {
          "id": "Numerator_1",
          "code": {
            "coding": [ {
              "system": "http://terminology.hl7.org/CodeSystem/measure-population",
              "code": "numerator",
              "display": "Numerator"
            } ]
          },
          "count": 0
        } ],
        "measureScore": {
          "value": 0.0
        }
      } ],
      "evaluatedResource": [ {
        "reference": "Patient/d2556dbf-f07b-4208-921b-86d33f321760"
      }, {
        "reference": "Observation/76d01e4f-a3c5-4d09-aad2-16cabc1f742b"
      }, {
        "reference": "Observation/0107c4c0-da14-4b4e-8582-f47fb7367751"
      }, {
        "reference": "Observation/670618bf-7d3a-44e5-b25a-67b79938b695"
      }, {
        "reference": "Encounter/85bbd4c0-ec51-4512-8a85-be7c4d2793f7"
      }, {
        "reference": "Procedure/f6dbbf4b-9b3e-4375-98ea-63a72582985f"
      }, {
        "reference": "Condition/1af22c47-5525-4083-9d03-8a9dde2324d6"
      }, {
        "reference": "Coverage/8031f20a-0d3d-4136-b428-343b4bf33c9d"
      }, {
        "reference": "Organization/627305a1-f7ce-4259-9315-79db56fb69d3"
      }, {
        "reference": "Practitioner/98aaf868-a2a2-4eca-854f-d2423069a950"
      } ]
    },
    "request": {
      "method": "PUT",
      "url": "MeasureReport/1493b33c-b9df-424c-bdff-6be70ab8ced0"
    }
  } ]
}