{
  "resourceType": "Bundle",
  "id": "tests-NUMERFail-LabBeforeMed-bundle",
  "type": "transaction",
  "entry": [ {
    "fullUrl": "https://madie.cms.gov/Encounter/a46b4894-ca9f-4671-8fc2-f77f7f606757",
    "resource": {
      "resourceType": "Encounter",
      "id": "a46b4894-ca9f-4671-8fc2-f77f7f606757",
      "meta": {
        "profile": [ "http://hl7.org/fhir/us/qicore/StructureDefinition/qicore-encounter" ]
      },
      "status": "finished",
      "class": {
        "system": "http://terminology.hl7.org/CodeSystem/v3-ActCode",
        "code": "IMP",
        "display": "Inpatient encounter"
      },
      "type": [ {
        "coding": [ {
          "system": "http://snomed.info/sct",
          "code": "183452005",
          "display": "Inpatient encounter"
        } ]
      } ],
      "period": {
        "start": "2026-07-11T08:00:00.000+00:00",
        "end": "2026-07-17T21:00:00.000+00:00"
      }
    },
    "request": {
      "method": "PUT",
      "url": "Encounter/a46b4894-ca9f-4671-8fc2-f77f7f606757"
    }
  }, {
    "fullUrl": "https://madie.cms.gov/MedicationAdministration/5aa8585a-1f0b-494c-8ca2-6c857cc49463",
    "resource": {
      "resourceType": "MedicationAdministration",
      "id": "5aa8585a-1f0b-494c-8ca2-6c857cc49463",
      "meta": {
        "profile": [ "http://hl7.org/fhir/us/qicore/StructureDefinition/qicore-medicationadministration" ]
      },
      "status": "completed",
      "medicationCodeableConcept": {
        "coding": [ {
          "system": "http://www.nlm.nih.gov/research/umls/rxnorm",
          "code": "1361493",
          "display": "Hypoglycemics Severe Hypoglycemia"
        } ]
      },
      "subject": {
        "reference": "Patient/aa5f21cc-2d56-4749-a190-2828d579f790"
      },
      "effectivePeriod": {
        "start": "2026-07-11T09:00:00.000+00:00",
        "end": "2026-07-11T09:15:00.000+00:00"
      }
    },
    "request": {
      "method": "PUT",
      "url": "MedicationAdministration/5aa8585a-1f0b-494c-8ca2-6c857cc49463"
    }
  }, {
    "fullUrl": "https://madie.cms.gov/Observation/45806e91-995b-4cae-a54f-694b408e84e0",
    "resource": {
      "resourceType": "Observation",
      "id": "45806e91-995b-4cae-a54f-694b408e84e0",
      "meta": {
        "profile": [ "http://hl7.org/fhir/us/qicore/StructureDefinition/qicore-observation-lab" ]
      },
      "status": "final",
      "code": {
        "coding": [ {
          "system": "http://loinc.org",
          "code": "1556-0",
          "display": "Glucose Lab Test Mass Per Volume"
        } ]
      },
      "subject": {
        "reference": "Patient/aa5f21cc-2d56-4749-a190-2828d579f790"
      },
      "effectivePeriod": {
        "start": "2026-07-11T08:00:00.000+00:00",
        "end": "2026-07-11T08:00:00.000+00:00"
      },
      "issued": "2026-07-11T08:00:00.000+00:00",
      "valueQuantity": {
        "value": 35,
        "unit": "mg/dL"
      }
    },
    "request": {
      "method": "PUT",
      "url": "Observation/45806e91-995b-4cae-a54f-694b408e84e0"
    }
  }, {
    "fullUrl": "https://madie.cms.gov/Patient/aa5f21cc-2d56-4749-a190-2828d579f790",
    "resource": {
      "resourceType": "Patient",
      "id": "aa5f21cc-2d56-4749-a190-2828d579f790",
      "meta": {
        "profile": [ "http://hl7.org/fhir/us/qicore/StructureDefinition/qicore-patient" ]
      },
      "extension": [ {
        "url": "http://hl7.org/fhir/us/core/StructureDefinition/us-core-race",
        "extension": [ {
          "url": "ombCategory",
          "valueCoding": {
            "system": "urn:oid:2.16.840.1.113883.6.238",
            "code": "2106-3",
            "display": "White"
          }
        }, {
          "url": "text",
          "valueString": "White"
        } ]
      }, {
        "url": "http://hl7.org/fhir/us/core/StructureDefinition/us-core-ethnicity",
        "extension": [ {
          "url": "ombCategory",
          "valueCoding": {
            "system": "urn:oid:2.16.840.1.113883.6.238",
            "code": "2135-2",
            "display": "Hispanic or Latino"
          }
        }, {
          "url": "text",
          "valueString": "Hispanic or Latino"
        } ]
      }, {
        "url": "http://hl7.org/fhir/us/core/StructureDefinition/us-core-sex",
        "valueCode": "248152002"
      } ],
      "identifier": [ {
        "system": "http://hospital.smarthealthit.org",
        "value": "999999999"
      } ],
      "name": [ {
        "family": "Example",
        "given": [ "Patient" ]
      } ],
      "gender": "female",
      "birthDate": "2000-07-11"
    },
    "request": {
      "method": "PUT",
      "url": "Patient/aa5f21cc-2d56-4749-a190-2828d579f790"
    }
  }, {
    "fullUrl": "https://madie.cms.gov/MeasureReport/9eeadd82-4599-4b8b-95a5-f1d59697b451",
    "resource": {
      "resourceType": "MeasureReport",
      "id": "9eeadd82-4599-4b8b-95a5-f1d59697b451",
      "meta": {
        "profile": [ "http://hl7.org/fhir/us/cqfmeasures/StructureDefinition/test-case-cqfm" ]
      },
      "contained": [ {
        "resourceType": "Parameters",
        "id": "5acf8053-e0c2-4853-874f-e7a395349e57-parameters",
        "parameter": [ {
          "name": "subject",
          "valueString": "aa5f21cc-2d56-4749-a190-2828d579f790"
        } ]
      } ],
      "extension": [ {
        "url": "http://hl7.org/fhir/StructureDefinition/cqf-inputParameters",
        "valueReference": {
          "reference": "#5acf8053-e0c2-4853-874f-e7a395349e57-parameters"
        }
      }, {
        "url": "http://hl7.org/fhir/us/cqfmeasures/StructureDefinition/cqfm-testCaseDescription",
        "valueMarkdown": "IP Encounter with meds administered, but glucose lab <40 was before med. Must be <40 within 24 hours after med to meet numerator. Numerator fails."
      } ],
      "modifierExtension": [ {
        "url": "http://hl7.org/fhir/us/cqfmeasures/StructureDefinition/cqfm-isTestCase",
        "valueBoolean": true
      } ],
      "status": "complete",
      "type": "individual",
      "measure": "https://madie.cms.gov/Measure/CMS816FHIRHHHypo",
      "period": {
        "start": "2026-01-01",
        "end": "2026-12-31"
      },
      "group": [ {
        "id": "Group_1",
        "population": [ {
          "id": "InitialPopulation_1",
          "code": {
            "coding": [ {
              "system": "http://terminology.hl7.org/CodeSystem/measure-population",
              "code": "initial-population",
              "display": "Initial Population"
            } ]
          },
          "count": 1
        }, {
          "id": "Denominator_1",
          "code": {
            "coding": [ {
              "system": "http://terminology.hl7.org/CodeSystem/measure-population",
              "code": "denominator",
              "display": "Denominator"
            } ]
          },
          "count": 1
        }, {
          "id": "Numerator_1",
          "code": {
            "coding": [ {
              "system": "http://terminology.hl7.org/CodeSystem/measure-population",
              "code": "numerator",
              "display": "Numerator"
            } ]
          },
          "count": 0
        } ],
        "measureScore": {
          "value": 0.0
        }
      } ],
      "evaluatedResource": [ {
        "reference": "Encounter/a46b4894-ca9f-4671-8fc2-f77f7f606757"
      }, {
        "reference": "MedicationAdministration/5aa8585a-1f0b-494c-8ca2-6c857cc49463"
      }, {
        "reference": "Observation/45806e91-995b-4cae-a54f-694b408e84e0"
      }, {
        "reference": "Patient/aa5f21cc-2d56-4749-a190-2828d579f790"
      } ]
    },
    "request": {
      "method": "PUT",
      "url": "MeasureReport/9eeadd82-4599-4b8b-95a5-f1d59697b451"
    }
  } ]
}