{
  "resourceType": "Bundle",
  "id": "62fd4b660968f8012246b012",
  "type": "collection",
  "entry": [ {
    "fullUrl": "https://madie.cms.gov/Patient/f2634662-4c9c-4963-b3f4-f90c3794bcc3",
    "resource": {
      "resourceType": "Patient",
      "id": "f2634662-4c9c-4963-b3f4-f90c3794bcc3",
      "meta": {
        "profile": [ "http://hl7.org/fhir/us/qicore/StructureDefinition/qicore-patient" ]
      },
      "extension": [ {
        "url": "http://hl7.org/fhir/us/core/StructureDefinition/us-core-race",
        "extension": [ {
          "url": "ombCategory",
          "valueCoding": {
            "system": "urn:oid:2.16.840.1.113883.6.238",
            "code": "2028-9",
            "display": "Asian",
            "userSelected": true
          }
        }, {
          "url": "text",
          "valueString": "Asian"
        } ]
      }, {
        "url": "http://hl7.org/fhir/us/core/StructureDefinition/us-core-ethnicity",
        "extension": [ {
          "url": "ombCategory",
          "valueCoding": {
            "system": "urn:oid:2.16.840.1.113883.6.238",
            "code": "2186-5",
            "display": "Not Hispanic or Latino",
            "userSelected": true
          }
        }, {
          "url": "text",
          "valueString": "Not Hispanic or Latino"
        } ]
      } ],
      "identifier": [ {
        "type": {
          "coding": [ {
            "system": "http://terminology.hl7.org/CodeSystem/v2-0203",
            "code": "MR"
          } ]
        },
        "system": "https://bonnie-fhir.healthit.gov/",
        "value": "62fd4b660968f8012246b012"
      } ],
      "name": [ {
        "family": "DenomPass",
        "given": [ "EncRefNewPsychDRC" ]
      } ],
      "gender": "female",
      "birthDate": "1989-11-29"
    }
  }, {
    "fullUrl": "https://madie.cms.gov/ServiceRequest/b8884955-a8fa-40a9-8ca6-a6a6d16d51f1",
    "resource": {
      "resourceType": "ServiceRequest",
      "id": "b8884955-a8fa-40a9-8ca6-a6a6d16d51f1",
      "meta": {
        "profile": [ "http://hl7.org/fhir/us/qicore/StructureDefinition/qicore-servicerequest" ]
      },
      "status": "completed",
      "intent": "order",
      "code": {
        "coding": [ {
          "system": "http://snomed.info/sct",
          "version": "http://snomed.info/sct/731000124108/version/20250301",
          "code": "103696004",
          "display": "Patient referral to specialist (procedure)",
          "userSelected": true
        } ]
      },
      "subject": {
        "reference": "Patient/f2634662-4c9c-4963-b3f4-f90c3794bcc3"
      },
      "authoredOn": "2026-01-01T00:00:00+00:00"
    }
  }, {
    "fullUrl": "https://madie.cms.gov/Procedure/4d5e0e58-8758-41e4-8ca1-1bcd9babea40",
    "resource": {
      "resourceType": "Procedure",
      "id": "4d5e0e58-8758-41e4-8ca1-1bcd9babea40",
      "meta": {
        "profile": [ "http://hl7.org/fhir/us/qicore/StructureDefinition/qicore-procedure" ]
      },
      "extension": [ {
        "url": "http://hl7.org/fhir/us/qicore/StructureDefinition/qicore-recorded",
        "valueDateTime": "2026-01-01T00:00:00+00:00"
      } ],
      "status": "completed",
      "code": {
        "coding": [ {
          "system": "http://www.ama-assn.org/go/cpt",
          "code": "96156",
          "display": "Health behavior assessment, or re-assessment (ie, health-focused clinical interview, behavioral observations, clinical decision making)",
          "userSelected": true
        } ]
      },
      "subject": {
        "reference": "Patient/f2634662-4c9c-4963-b3f4-f90c3794bcc3"
      },
      "performedDateTime": "2026-01-01T00:00:00+00:00"
    }
  }, {
    "fullUrl": "https://madie.cms.gov/Coverage/8f2c0f78-470c-4c2e-80b8-60ede1c76150",
    "resource": {
      "resourceType": "Coverage",
      "id": "8f2c0f78-470c-4c2e-80b8-60ede1c76150",
      "meta": {
        "profile": [ "http://hl7.org/fhir/us/qicore/StructureDefinition/qicore-coverage" ]
      },
      "status": "active",
      "subscriberId": "123456",
      "beneficiary": {
        "reference": "Patient/f2634662-4c9c-4963-b3f4-f90c3794bcc3"
      },
      "relationship": {
        "coding": [ {
          "system": "http://terminology.hl7.org/CodeSystem/subscriber-relationship",
          "code": "self",
          "display": "Self"
        } ]
      },
      "payor": [ {
        "reference": "Organization/2d591b50-ab73-4d76-8f2f-410d159baa0a"
      } ]
    }
  }, {
    "fullUrl": "https://madie.cms.gov/Organization/2d591b50-ab73-4d76-8f2f-410d159baa0a",
    "resource": {
      "resourceType": "Organization",
      "id": "2d591b50-ab73-4d76-8f2f-410d159baa0a",
      "meta": {
        "profile": [ "http://hl7.org/fhir/us/qicore/StructureDefinition/qicore-organization" ]
      },
      "identifier": [ {
        "use": "temp",
        "system": "urn:oid:2.16.840.1.113883.4.4",
        "value": "21-3259825"
      } ],
      "active": true,
      "type": [ {
        "coding": [ {
          "system": "http://terminology.hl7.org/CodeSystem/organization-type",
          "code": "pay",
          "display": "Payer"
        } ]
      } ],
      "name": "Blue Cross Blue Shield of Texas",
      "telecom": [ {
        "system": "phone",
        "value": "(+1) 972-766-6900"
      } ],
      "address": [ {
        "use": "billing",
        "type": "postal",
        "line": [ "P.O. Box 660044" ],
        "city": "Dallas",
        "state": "TX",
        "postalCode": "75266-0044",
        "country": "USA"
      } ]
    }
  }, {
    "fullUrl": "https://madie.cms.gov/Practitioner/8fd03583-7beb-45a7-a9ac-308d31f06364",
    "resource": {
      "resourceType": "Practitioner",
      "id": "8fd03583-7beb-45a7-a9ac-308d31f06364",
      "meta": {
        "profile": [ "http://hl7.org/fhir/us/qicore/StructureDefinition/qicore-practitioner" ]
      },
      "identifier": [ {
        "system": "http://hl7.org/fhir/sid/us-npi",
        "value": "1689411712"
      } ],
      "name": [ {
        "family": "Evil",
        "prefix": [ "Dr" ]
      } ]
    }
  }, {
    "fullUrl": "https://madie.cms.gov/MeasureReport/f392c621-1ec4-486e-8d74-68948459fb61",
    "resource": {
      "resourceType": "MeasureReport",
      "id": "f392c621-1ec4-486e-8d74-68948459fb61",
      "meta": {
        "profile": [ "http://hl7.org/fhir/us/cqfmeasures/StructureDefinition/test-case-cqfm" ]
      },
      "contained": [ {
        "resourceType": "Parameters",
        "id": "72b9b44c-7292-41c7-850d-b35e3ad81fbc-parameters",
        "parameter": [ {
          "name": "subject",
          "valueString": "f2634662-4c9c-4963-b3f4-f90c3794bcc3"
        } ]
      } ],
      "extension": [ {
        "url": "http://hl7.org/fhir/StructureDefinition/cqf-inputParameters",
        "valueReference": {
          "reference": "#72b9b44c-7292-41c7-850d-b35e3ad81fbc-parameters"
        }
      }, {
        "url": "http://hl7.org/fhir/us/cqfmeasures/StructureDefinition/cqfm-testCaseDescription",
        "valueMarkdown": "Assessment starts first minute of MP and ends in 59 minutes, referral order made."
      } ],
      "modifierExtension": [ {
        "url": "http://hl7.org/fhir/us/cqfmeasures/StructureDefinition/cqfm-isTestCase",
        "valueBoolean": true
      } ],
      "status": "complete",
      "type": "individual",
      "measure": "https://madie.cms.gov/Measure/CMS50FHIRReceiptofSpecialistReport",
      "period": {
        "start": "2026-01-01",
        "end": "2026-12-31"
      },
      "group": [ {
        "id": "Group_1",
        "population": [ {
          "id": "InitialPopulation_1",
          "code": {
            "coding": [ {
              "system": "http://terminology.hl7.org/CodeSystem/measure-population",
              "code": "initial-population",
              "display": "Initial Population"
            } ]
          },
          "count": 1
        }, {
          "id": "Denominator_1",
          "code": {
            "coding": [ {
              "system": "http://terminology.hl7.org/CodeSystem/measure-population",
              "code": "denominator",
              "display": "Denominator"
            } ]
          },
          "count": 1
        }, {
          "id": "Numerator_1",
          "code": {
            "coding": [ {
              "system": "http://terminology.hl7.org/CodeSystem/measure-population",
              "code": "numerator",
              "display": "Numerator"
            } ]
          },
          "count": 0
        } ],
        "measureScore": {
          "value": 1.0
        }
      } ],
      "evaluatedResource": [ {
        "reference": "Patient/f2634662-4c9c-4963-b3f4-f90c3794bcc3"
      }, {
        "reference": "ServiceRequest/b8884955-a8fa-40a9-8ca6-a6a6d16d51f1"
      }, {
        "reference": "Procedure/4d5e0e58-8758-41e4-8ca1-1bcd9babea40"
      }, {
        "reference": "Coverage/8f2c0f78-470c-4c2e-80b8-60ede1c76150"
      }, {
        "reference": "Organization/2d591b50-ab73-4d76-8f2f-410d159baa0a"
      }, {
        "reference": "Practitioner/8fd03583-7beb-45a7-a9ac-308d31f06364"
      } ]
    }
  } ]
}