{
  "resourceType": "Bundle",
  "id": "627a80a15a0d870123c7253e",
  "type": "transaction",
  "entry": [ {
    "fullUrl": "https://madie.cms.gov/Patient/cf4e9832-fad4-4041-9c6b-e7605bf0b3a0",
    "resource": {
      "resourceType": "Patient",
      "id": "cf4e9832-fad4-4041-9c6b-e7605bf0b3a0",
      "meta": {
        "profile": [ "http://hl7.org/fhir/us/qicore/StructureDefinition/qicore-patient" ]
      },
      "text": {
        "status": "generated",
        "div": "<div xmlns=\"http://www.w3.org/1999/xhtml\"><div class=\"hapiHeaderText\">Opioid exactly 12 hrs before Naloxone <b>NUMERPASS </b></div><table class=\"hapiPropertyTable\"><tbody><tr><td>Date of birth</td><td><span>14 November 1980</span></td></tr></tbody></table></div>"
      },
      "extension": [ {
        "url": "http://hl7.org/fhir/us/core/StructureDefinition/us-core-race",
        "extension": [ {
          "url": "ombCategory",
          "valueCoding": {
            "system": "urn:oid:2.16.840.1.113883.6.238",
            "code": "1002-5",
            "display": "American Indian or Alaska Native",
            "userSelected": true
          }
        }, {
          "url": "text",
          "valueString": "American Indian or Alaska Native"
        } ]
      }, {
        "url": "http://hl7.org/fhir/us/core/StructureDefinition/us-core-ethnicity",
        "extension": [ {
          "url": "ombCategory",
          "valueCoding": {
            "system": "urn:oid:2.16.840.1.113883.6.238",
            "code": "2135-2",
            "display": "Hispanic or Latino",
            "userSelected": true
          }
        }, {
          "url": "text",
          "valueString": "Hispanic or Latino"
        } ]
      } ],
      "identifier": [ {
        "type": {
          "coding": [ {
            "system": "http://terminology.hl7.org/CodeSystem/v2-0203",
            "code": "MR"
          } ]
        },
        "system": "https://bonnie-fhir.healthit.gov/",
        "value": "627a80a15a0d870123c7253e"
      } ],
      "active": true,
      "name": [ {
        "use": "usual",
        "family": "NUMERPass",
        "given": [ "OpioidExactly12hrsBeforeAntagonist" ]
      } ],
      "gender": "female",
      "birthDate": "1981-11-14"
    },
    "request": {
      "method": "PUT",
      "url": "Patient/cf4e9832-fad4-4041-9c6b-e7605bf0b3a0"
    }
  }, {
    "fullUrl": "https://madie.cms.gov/Encounter/0e8b4036-f33e-4c9a-a77f-9ba7e164dba0",
    "resource": {
      "resourceType": "Encounter",
      "id": "0e8b4036-f33e-4c9a-a77f-9ba7e164dba0",
      "meta": {
        "profile": [ "http://hl7.org/fhir/us/qicore/StructureDefinition/qicore-encounter" ]
      },
      "status": "finished",
      "class": {
        "system": "http://terminology.hl7.org/CodeSystem/v3-ActCode",
        "code": "IMP",
        "display": "inpatient encounter"
      },
      "type": [ {
        "coding": [ {
          "system": "http://snomed.info/sct",
          "code": "183452005"
        } ]
      } ],
      "subject": {
        "reference": "Patient/cf4e9832-fad4-4041-9c6b-e7605bf0b3a0"
      },
      "period": {
        "start": "2026-08-11T08:00:00.000+00:00",
        "end": "2026-08-14T08:15:00.000+00:00"
      },
      "location": [ {
        "location": {
          "reference": "Location/ab6e97ca-0041-4b75-a1ce-6fc3e95f2f83"
        },
        "period": {
          "start": "2026-08-11T08:00:00.000+00:00",
          "end": "2026-08-13T08:00:00.000+00:00"
        }
      } ]
    },
    "request": {
      "method": "PUT",
      "url": "Encounter/0e8b4036-f33e-4c9a-a77f-9ba7e164dba0"
    }
  }, {
    "fullUrl": "https://madie.cms.gov/MedicationAdministration/4508a512-0447-4913-84bb-40e05474de6b",
    "resource": {
      "resourceType": "MedicationAdministration",
      "id": "4508a512-0447-4913-84bb-40e05474de6b",
      "meta": {
        "profile": [ "http://hl7.org/fhir/us/qicore/StructureDefinition/qicore-medicationadministration" ]
      },
      "status": "completed",
      "medicationCodeableConcept": {
        "coding": [ {
          "system": "http://www.nlm.nih.gov/research/umls/rxnorm",
          "code": "1010600"
        } ]
      },
      "subject": {
        "reference": "Patient/cf4e9832-fad4-4041-9c6b-e7605bf0b3a0"
      },
      "effectivePeriod": {
        "start": "2026-08-11T08:00:00.000+00:00",
        "end": "2026-08-11T08:15:00.000+00:00"
      }
    },
    "request": {
      "method": "PUT",
      "url": "MedicationAdministration/4508a512-0447-4913-84bb-40e05474de6b"
    }
  }, {
    "fullUrl": "https://madie.cms.gov/MedicationAdministration/20b83f79-f956-4b68-9b7d-55d8320abfa1",
    "resource": {
      "resourceType": "MedicationAdministration",
      "id": "20b83f79-f956-4b68-9b7d-55d8320abfa1",
      "meta": {
        "profile": [ "http://hl7.org/fhir/us/qicore/StructureDefinition/qicore-medicationadministration" ]
      },
      "status": "completed",
      "medicationCodeableConcept": {
        "coding": [ {
          "system": "http://www.nlm.nih.gov/research/umls/rxnorm",
          "version": "2022-04",
          "code": "1659929",
          "display": "1 ML naloxone hydrochloride 0.4 MG/ML Injection",
          "userSelected": true
        } ]
      },
      "subject": {
        "reference": "Patient/cf4e9832-fad4-4041-9c6b-e7605bf0b3a0"
      },
      "effectivePeriod": {
        "start": "2026-08-11T20:15:00.000+00:00"
      },
      "dosage": {
        "route": {
          "coding": [ {
            "system": "http://snomed.info/sct",
            "code": "34206005",
            "display": "Subcutaneous route (qualifier value)",
            "userSelected": true
          } ]
        },
        "dose": {
          "value": 0.4,
          "unit": "mg",
          "system": "http://unitsofmeasure.org",
          "code": "mg"
        }
      }
    },
    "request": {
      "method": "PUT",
      "url": "MedicationAdministration/20b83f79-f956-4b68-9b7d-55d8320abfa1"
    }
  }, {
    "fullUrl": "https://madie.cms.gov/MedicationAdministration/6d7e371c-5f8f-4542-8520-947490732c43",
    "resource": {
      "resourceType": "MedicationAdministration",
      "id": "6d7e371c-5f8f-4542-8520-947490732c43",
      "meta": {
        "profile": [ "http://hl7.org/fhir/us/qicore/StructureDefinition/qicore-medicationadministration" ]
      },
      "status": "completed",
      "medicationCodeableConcept": {
        "coding": [ {
          "system": "http://www.nlm.nih.gov/research/umls/rxnorm",
          "code": "199059",
          "display": "Naloxone Hydrochloride Injection",
          "userSelected": true
        } ]
      },
      "subject": {
        "reference": "Patient/cf4e9832-fad4-4041-9c6b-e7605bf0b3a0"
      },
      "effectivePeriod": {
        "start": "2026-08-11T19:45:00.000+00:00"
      },
      "dosage": {
        "route": {
          "coding": [ {
            "system": "http://snomed.info/sct",
            "code": "34206005",
            "display": "Subcutaneous route (qualifier value)",
            "userSelected": true
          } ]
        },
        "dose": {
          "value": 0.4,
          "unit": "mg",
          "system": "http://unitsofmeasure.org",
          "code": "mg"
        }
      }
    },
    "request": {
      "method": "PUT",
      "url": "MedicationAdministration/6d7e371c-5f8f-4542-8520-947490732c43"
    }
  }, {
    "fullUrl": "https://madie.cms.gov/Location/ab6e97ca-0041-4b75-a1ce-6fc3e95f2f83",
    "resource": {
      "resourceType": "Location",
      "id": "ab6e97ca-0041-4b75-a1ce-6fc3e95f2f83",
      "meta": {
        "profile": [ "http://hl7.org/fhir/us/qicore/StructureDefinition/qicore-location" ]
      },
      "identifier": [ {
        "use": "usual",
        "system": "http://exampleoflocation.com",
        "value": "B1-S.F2"
      } ],
      "name": "Medical Surgical East, first floor",
      "type": [ {
        "coding": [ {
          "system": "https://www.cdc.gov/nhsn/cdaportal/terminology/codesystem/hsloc.html",
          "code": "1096-7",
          "display": "Operating Room/Suite"
        } ]
      } ]
    },
    "request": {
      "method": "PUT",
      "url": "Location/ab6e97ca-0041-4b75-a1ce-6fc3e95f2f83"
    }
  }, {
    "fullUrl": "https://madie.cms.gov/MeasureReport/fe1f2a54-25cf-4b80-9b5b-2f955461115d",
    "resource": {
      "resourceType": "MeasureReport",
      "id": "fe1f2a54-25cf-4b80-9b5b-2f955461115d",
      "meta": {
        "profile": [ "http://hl7.org/fhir/us/cqfmeasures/StructureDefinition/test-case-cqfm" ]
      },
      "contained": [ {
        "resourceType": "Parameters",
        "id": "2b7996ec-4fdb-44df-8335-7642509022ff-parameters",
        "parameter": [ {
          "name": "subject",
          "valueString": "cf4e9832-fad4-4041-9c6b-e7605bf0b3a0"
        } ]
      } ],
      "extension": [ {
        "url": "http://hl7.org/fhir/StructureDefinition/cqf-inputParameters",
        "valueReference": {
          "reference": "#2b7996ec-4fdb-44df-8335-7642509022ff-parameters"
        }
      }, {
        "url": "http://hl7.org/fhir/us/cqfmeasures/StructureDefinition/cqfm-testCaseDescription",
        "valueMarkdown": "Encounter with Opioid Administration Within The Operating Room"
      } ],
      "modifierExtension": [ {
        "url": "http://hl7.org/fhir/us/cqfmeasures/StructureDefinition/cqfm-isTestCase",
        "valueBoolean": true
      } ],
      "status": "complete",
      "type": "individual",
      "measure": "https://madie.cms.gov/Measure/CMS819FHIRHHORAE",
      "period": {
        "start": "2026-01-01",
        "end": "2026-12-31"
      },
      "group": [ {
        "id": "Group_1",
        "population": [ {
          "id": "InitialPopulation_1",
          "code": {
            "coding": [ {
              "system": "http://terminology.hl7.org/CodeSystem/measure-population",
              "code": "initial-population",
              "display": "Initial Population"
            } ]
          },
          "count": 0
        }, {
          "id": "Denominator_1",
          "code": {
            "coding": [ {
              "system": "http://terminology.hl7.org/CodeSystem/measure-population",
              "code": "denominator",
              "display": "Denominator"
            } ]
          },
          "count": 0
        }, {
          "id": "Numerator_1",
          "code": {
            "coding": [ {
              "system": "http://terminology.hl7.org/CodeSystem/measure-population",
              "code": "numerator",
              "display": "Numerator"
            } ]
          },
          "count": 0
        } ],
        "measureScore": {
          "value": 0.0
        }
      } ],
      "evaluatedResource": [ {
        "reference": "Patient/cf4e9832-fad4-4041-9c6b-e7605bf0b3a0"
      }, {
        "reference": "Encounter/0e8b4036-f33e-4c9a-a77f-9ba7e164dba0"
      }, {
        "reference": "MedicationAdministration/4508a512-0447-4913-84bb-40e05474de6b"
      }, {
        "reference": "MedicationAdministration/20b83f79-f956-4b68-9b7d-55d8320abfa1"
      }, {
        "reference": "MedicationAdministration/6d7e371c-5f8f-4542-8520-947490732c43"
      }, {
        "reference": "Location/ab6e97ca-0041-4b75-a1ce-6fc3e95f2f83"
      } ]
    },
    "request": {
      "method": "PUT",
      "url": "MeasureReport/fe1f2a54-25cf-4b80-9b5b-2f955461115d"
    }
  } ]
}