{
  "resourceType": "Bundle",
  "id": "840f0ae12a56ae2t586a5r5u",
  "type": "transaction",
  "entry": [ {
    "fullUrl": "https://madie.cms.gov/Patient/15c45fc0-4e59-4583-8c3a-3f48f46cebca",
    "resource": {
      "resourceType": "Patient",
      "id": "15c45fc0-4e59-4583-8c3a-3f48f46cebca",
      "meta": {
        "profile": [ "http://hl7.org/fhir/us/qicore/StructureDefinition/qicore-patient" ]
      },
      "extension": [ {
        "url": "http://hl7.org/fhir/us/core/StructureDefinition/us-core-ethnicity",
        "extension": [ {
          "url": "ombCategory",
          "valueCoding": {
            "system": "urn:oid:2.16.840.1.113883.6.238",
            "code": "2135-2",
            "display": "Hispanic or Latino",
            "userSelected": true
          }
        }, {
          "url": "text",
          "valueString": "Hispanic or Latino"
        } ]
      } ],
      "identifier": [ {
        "system": "http://hospital.smarthealthit.org",
        "value": "999999999"
      } ],
      "name": [ {
        "family": "NUMERFail",
        "given": [ "NoConcurrentMedsDuringEnc" ]
      } ],
      "gender": "male",
      "birthDate": "1986-08-07"
    },
    "request": {
      "method": "PUT",
      "url": "Patient/15c45fc0-4e59-4583-8c3a-3f48f46cebca"
    }
  }, {
    "fullUrl": "https://madie.cms.gov/Encounter/5c062e42-0851-4851-a3fe-635e46641eec",
    "resource": {
      "resourceType": "Encounter",
      "id": "5c062e42-0851-4851-a3fe-635e46641eec",
      "meta": {
        "profile": [ "http://hl7.org/fhir/us/qicore/StructureDefinition/qicore-encounter" ]
      },
      "status": "finished",
      "class": {
        "system": "http://terminology.hl7.org/CodeSystem/v3-ActCode",
        "code": "IMP",
        "display": "inpatient encounter"
      },
      "type": [ {
        "coding": [ {
          "system": "http://snomed.info/sct",
          "code": "183452005",
          "display": "Emergency hospital admission (procedure)",
          "userSelected": true
        } ]
      } ],
      "subject": {
        "reference": "Patient/15c45fc0-4e59-4583-8c3a-3f48f46cebca"
      },
      "period": {
        "start": "2026-08-05T10:00:00.000+00:00",
        "end": "2026-08-09T10:20:00.000+00:00"
      }
    },
    "request": {
      "method": "PUT",
      "url": "Encounter/5c062e42-0851-4851-a3fe-635e46641eec"
    }
  }, {
    "fullUrl": "https://madie.cms.gov/MedicationRequest/6510f60e-c9a2-4f31-a5dd-66e3190b3f04",
    "resource": {
      "resourceType": "MedicationRequest",
      "id": "6510f60e-c9a2-4f31-a5dd-66e3190b3f04",
      "meta": {
        "profile": [ "http://hl7.org/fhir/us/qicore/StructureDefinition/qicore-medicationrequest" ]
      },
      "status": "completed",
      "intent": "order",
      "category": [ {
        "coding": [ {
          "system": "http://terminology.hl7.org/CodeSystem/medicationrequest-category",
          "code": "community",
          "display": "Community",
          "userSelected": true
        } ]
      } ],
      "doNotPerform": false,
      "medicationCodeableConcept": {
        "coding": [ {
          "system": "http://www.nlm.nih.gov/research/umls/rxnorm",
          "code": "637540",
          "display": "aspirin 325 MG / oxycodone hydrochloride 4.5 MG / oxycodone terephthalate 0.38 MG Oral Tablet",
          "userSelected": true
        } ]
      },
      "subject": {
        "reference": "Patient/15c45fc0-4e59-4583-8c3a-3f48f46cebca"
      },
      "authoredOn": "2025-11-03T08:00:00.000+00:00",
      "requester": {
        "reference": "Practitioner/b829606b-0f48-43e2-9ad8-cac8c04e0232"
      }
    },
    "request": {
      "method": "PUT",
      "url": "MedicationRequest/6510f60e-c9a2-4f31-a5dd-66e3190b3f04"
    }
  }, {
    "fullUrl": "https://madie.cms.gov/MedicationRequest/4704d0b9-e309-49e5-8c45-8d8002543a9c",
    "resource": {
      "resourceType": "MedicationRequest",
      "id": "4704d0b9-e309-49e5-8c45-8d8002543a9c",
      "meta": {
        "profile": [ "http://hl7.org/fhir/us/qicore/StructureDefinition/qicore-medicationrequest" ]
      },
      "status": "completed",
      "intent": "order",
      "category": [ {
        "coding": [ {
          "system": "http://terminology.hl7.org/CodeSystem/medicationrequest-category",
          "code": "community",
          "display": "Community",
          "userSelected": true
        } ]
      } ],
      "doNotPerform": false,
      "medicationCodeableConcept": {
        "coding": [ {
          "system": "http://www.nlm.nih.gov/research/umls/rxnorm",
          "code": "1014632",
          "display": "acetaminophen 300 MG / oxycodone hydrochloride 7.5 MG Oral Tablet",
          "userSelected": true
        } ]
      },
      "subject": {
        "reference": "Patient/15c45fc0-4e59-4583-8c3a-3f48f46cebca"
      },
      "authoredOn": "2026-08-09T10:19:00.000+00:00",
      "requester": {
        "reference": "Practitioner/b829606b-0f48-43e2-9ad8-cac8c04e0232"
      }
    },
    "request": {
      "method": "PUT",
      "url": "MedicationRequest/4704d0b9-e309-49e5-8c45-8d8002543a9c"
    }
  }, {
    "fullUrl": "https://madie.cms.gov/Practitioner/b829606b-0f48-43e2-9ad8-cac8c04e0232",
    "resource": {
      "resourceType": "Practitioner",
      "id": "b829606b-0f48-43e2-9ad8-cac8c04e0232",
      "meta": {
        "profile": [ "http://hl7.org/fhir/us/qicore/StructureDefinition/qicore-practitioner" ]
      },
      "identifier": [ {
        "system": "http://hl7.org/fhir/sid/us-npi",
        "value": "9999999896"
      } ],
      "active": true,
      "name": [ {
        "family": "Ramires",
        "given": [ "Alma" ],
        "prefix": [ "Dr" ]
      } ],
      "address": [ {
        "use": "home",
        "line": [ "534 Erewhon St" ],
        "city": "Netherville",
        "state": "IN",
        "postalCode": "46131"
      } ],
      "qualification": [ {
        "identifier": [ {
          "system": "http://goodhealth.org/prIdentifier",
          "value": "12345"
        } ],
        "code": {
          "coding": [ {
            "system": "http://terminology.hl7.org/CodeSystem/v2-0360|2.7",
            "code": "BS",
            "display": "Bachelor of Science"
          } ],
          "text": "Bachelor of Science"
        },
        "period": {
          "start": "1995"
        },
        "issuer": {
          "display": "Example University"
        }
      } ]
    },
    "request": {
      "method": "PUT",
      "url": "Practitioner/b829606b-0f48-43e2-9ad8-cac8c04e0232"
    }
  }, {
    "fullUrl": "https://madie.cms.gov/Coverage/a1d6deff-a854-4f3d-9401-aaf657ed180d",
    "resource": {
      "resourceType": "Coverage",
      "id": "a1d6deff-a854-4f3d-9401-aaf657ed180d",
      "meta": {
        "profile": [ "http://hl7.org/fhir/us/qicore/StructureDefinition/qicore-coverage" ]
      },
      "status": "active",
      "subscriberId": "523435",
      "beneficiary": {
        "reference": "Patient/15c45fc0-4e59-4583-8c3a-3f48f46cebca"
      },
      "relationship": {
        "coding": [ {
          "system": "http://terminology.hl7.org/CodeSystem/subscriber-relationship",
          "code": "self"
        } ]
      },
      "payor": [ {
        "reference": "Organization/9fe4711e-b1cf-46bd-9fab-ed5ca68e620d"
      } ]
    },
    "request": {
      "method": "PUT",
      "url": "Coverage/a1d6deff-a854-4f3d-9401-aaf657ed180d"
    }
  }, {
    "fullUrl": "https://madie.cms.gov/Organization/9fe4711e-b1cf-46bd-9fab-ed5ca68e620d",
    "resource": {
      "resourceType": "Organization",
      "id": "9fe4711e-b1cf-46bd-9fab-ed5ca68e620d",
      "meta": {
        "profile": [ "http://hl7.org/fhir/us/qicore/StructureDefinition/qicore-organization" ]
      },
      "identifier": [ {
        "use": "temp",
        "system": "urn:oid:2.16.840.1.113883.4.4",
        "value": "21-3259825"
      } ],
      "active": true,
      "type": [ {
        "coding": [ {
          "system": "http://terminology.hl7.org/CodeSystem/organization-type",
          "code": "pay",
          "display": "Payer"
        } ]
      } ],
      "name": "Blue Cross Blue Shield of Texas",
      "telecom": [ {
        "system": "phone",
        "value": "(+1) 972-766-6900"
      } ],
      "address": [ {
        "use": "billing",
        "type": "postal",
        "line": [ "P.O. Box 660044" ],
        "city": "Dallas",
        "state": "TX",
        "postalCode": "75266-0044",
        "country": "USA"
      } ]
    },
    "request": {
      "method": "PUT",
      "url": "Organization/9fe4711e-b1cf-46bd-9fab-ed5ca68e620d"
    }
  }, {
    "fullUrl": "https://madie.cms.gov/MeasureReport/7dfe9d18-dbc0-4ee8-a474-1c3384a50d5d",
    "resource": {
      "resourceType": "MeasureReport",
      "id": "7dfe9d18-dbc0-4ee8-a474-1c3384a50d5d",
      "meta": {
        "profile": [ "http://hl7.org/fhir/us/cqfmeasures/StructureDefinition/test-case-cqfm" ]
      },
      "contained": [ {
        "resourceType": "Parameters",
        "id": "50b5c4a2-5714-4ee9-81f7-5bbb59c53c7a-parameters",
        "parameter": [ {
          "name": "subject",
          "valueString": "15c45fc0-4e59-4583-8c3a-3f48f46cebca"
        } ]
      } ],
      "extension": [ {
        "url": "http://hl7.org/fhir/StructureDefinition/cqf-inputParameters",
        "valueReference": {
          "reference": "#50b5c4a2-5714-4ee9-81f7-5bbb59c53c7a-parameters"
        }
      }, {
        "url": "http://hl7.org/fhir/us/cqfmeasures/StructureDefinition/cqfm-testCaseDescription",
        "valueMarkdown": "Correct age, Encounter-1 8/5-8/9during MP, MedReq-1 11/3 opioid prev year, discharged with 1 opioid MedReq-2  8/9 during encounter"
      } ],
      "modifierExtension": [ {
        "url": "http://hl7.org/fhir/us/cqfmeasures/StructureDefinition/cqfm-isTestCase",
        "valueBoolean": true
      } ],
      "status": "complete",
      "type": "individual",
      "measure": "https://madie.cms.gov/Measure/CMS506FHIRSafeUseofOpioids",
      "period": {
        "start": "2026-01-01",
        "end": "2026-12-31"
      },
      "group": [ {
        "id": "Group_1",
        "population": [ {
          "id": "InitialPopulation_1",
          "code": {
            "coding": [ {
              "system": "http://terminology.hl7.org/CodeSystem/measure-population",
              "code": "initial-population",
              "display": "Initial Population"
            } ]
          },
          "count": 1
        }, {
          "id": "Denominator_1",
          "code": {
            "coding": [ {
              "system": "http://terminology.hl7.org/CodeSystem/measure-population",
              "code": "denominator",
              "display": "Denominator"
            } ]
          },
          "count": 1
        }, {
          "id": "DenominatorExclusion_1",
          "code": {
            "coding": [ {
              "system": "http://terminology.hl7.org/CodeSystem/measure-population",
              "code": "denominator-exclusion",
              "display": "Denominator Exclusion"
            } ]
          },
          "count": 0
        }, {
          "id": "Numerator_1",
          "code": {
            "coding": [ {
              "system": "http://terminology.hl7.org/CodeSystem/measure-population",
              "code": "numerator",
              "display": "Numerator"
            } ]
          },
          "count": 0
        } ],
        "measureScore": {
          "value": 0.0
        }
      } ],
      "evaluatedResource": [ {
        "reference": "Patient/15c45fc0-4e59-4583-8c3a-3f48f46cebca"
      }, {
        "reference": "Encounter/5c062e42-0851-4851-a3fe-635e46641eec"
      }, {
        "reference": "MedicationRequest/6510f60e-c9a2-4f31-a5dd-66e3190b3f04"
      }, {
        "reference": "MedicationRequest/4704d0b9-e309-49e5-8c45-8d8002543a9c"
      }, {
        "reference": "Practitioner/b829606b-0f48-43e2-9ad8-cac8c04e0232"
      }, {
        "reference": "Coverage/a1d6deff-a854-4f3d-9401-aaf657ed180d"
      }, {
        "reference": "Organization/9fe4711e-b1cf-46bd-9fab-ed5ca68e620d"
      } ]
    },
    "request": {
      "method": "PUT",
      "url": "MeasureReport/7dfe9d18-dbc0-4ee8-a474-1c3384a50d5d"
    }
  } ]
}