{
  "resourceType": "Bundle",
  "id": "63ec0968ccb3770120fe9d74",
  "type": "transaction",
  "entry": [ {
    "fullUrl": "https://madie.cms.gov/Patient/443783af-53ae-46ed-a129-690aa58433d8",
    "resource": {
      "resourceType": "Patient",
      "id": "443783af-53ae-46ed-a129-690aa58433d8",
      "meta": {
        "profile": [ "http://hl7.org/fhir/us/qicore/StructureDefinition/qicore-patient" ]
      },
      "text": {
        "status": "generated",
        "div": "<div xmlns=\"http://www.w3.org/1999/xhtml\"><div class=\"hapiHeaderText\">OnAdmit <b>HEMATPASS </b></div><table class=\"hapiPropertyTable\"><tbody><tr><td>Identifier</td><td>a3da21e0aa9acb035adc77fa116544b16013e74ef32aafc4f42a40ab71459966</td></tr><tr><td>Date of birth</td><td><span>15 June 1956</span></td></tr></tbody></table></div>"
      },
      "extension": [ {
        "url": "http://hl7.org/fhir/us/core/StructureDefinition/us-core-race",
        "extension": [ {
          "url": "ombCategory",
          "valueCoding": {
            "system": "urn:oid:2.16.840.1.113883.6.238",
            "code": "2106-3",
            "display": "White",
            "userSelected": true
          }
        }, {
          "url": "text",
          "valueString": "White"
        } ]
      }, {
        "url": "http://hl7.org/fhir/us/core/StructureDefinition/us-core-ethnicity",
        "extension": [ {
          "url": "ombCategory",
          "valueCoding": {
            "system": "urn:oid:2.16.840.1.113883.6.238",
            "code": "2186-5",
            "display": "Not Hispanic or Latino",
            "userSelected": true
          }
        }, {
          "url": "text",
          "valueString": "Not Hispanic or Latino"
        } ]
      }, {
        "url": "http://hl7.org/fhir/us/core/StructureDefinition/us-core-sex",
        "valueCode": "248153007"
      } ],
      "identifier": [ {
        "type": {
          "coding": [ {
            "system": "http://terminology.hl7.org/CodeSystem/v2-0203",
            "code": "MR"
          } ]
        },
        "system": "https://bonnie-fhir.healthit.gov/",
        "value": "63ec0968ccb3770120fe9d74"
      } ],
      "active": true,
      "name": [ {
        "use": "usual",
        "family": "HematocritPass",
        "given": [ "PerformedInObsPriorToAdmit" ]
      } ],
      "gender": "male",
      "birthDate": "1961-07-01"
    },
    "request": {
      "method": "PUT",
      "url": "Patient/443783af-53ae-46ed-a129-690aa58433d8"
    }
  }, {
    "fullUrl": "https://madie.cms.gov/Encounter/32642ab8-061c-4469-bcc0-ccc2fe722672",
    "resource": {
      "resourceType": "Encounter",
      "id": "32642ab8-061c-4469-bcc0-ccc2fe722672",
      "meta": {
        "profile": [ "http://hl7.org/fhir/us/qicore/StructureDefinition/qicore-encounter" ]
      },
      "status": "finished",
      "class": {
        "system": "http://terminology.hl7.org/CodeSystem/v3-ActCode",
        "code": "OBSENC",
        "display": "observation encounter",
        "userSelected": true
      },
      "type": [ {
        "coding": [ {
          "system": "http://snomed.info/sct",
          "code": "448951000124107",
          "display": "Admission to observation unit (procedure)"
        } ]
      } ],
      "subject": {
        "reference": "Patient/443783af-53ae-46ed-a129-690aa58433d8"
      },
      "period": {
        "start": "2026-07-01T08:00:00.000+00:00",
        "end": "2026-07-02T07:15:00.000+00:00"
      },
      "length": {
        "value": 1,
        "unit": "days"
      }
    },
    "request": {
      "method": "PUT",
      "url": "Encounter/32642ab8-061c-4469-bcc0-ccc2fe722672"
    }
  }, {
    "fullUrl": "https://madie.cms.gov/Encounter/faddd6f2-f48d-4656-a20e-51fe58305733",
    "resource": {
      "resourceType": "Encounter",
      "id": "faddd6f2-f48d-4656-a20e-51fe58305733",
      "meta": {
        "profile": [ "http://hl7.org/fhir/us/qicore/StructureDefinition/qicore-encounter" ]
      },
      "status": "finished",
      "class": {
        "system": "http://terminology.hl7.org/CodeSystem/v3-ActCode",
        "code": "IMP",
        "display": "inpatient encounter",
        "userSelected": true
      },
      "type": [ {
        "coding": [ {
          "system": "http://snomed.info/sct",
          "code": "183452005"
        } ]
      } ],
      "subject": {
        "reference": "Patient/443783af-53ae-46ed-a129-690aa58433d8"
      },
      "period": {
        "start": "2026-07-02T07:15:00.000+00:00",
        "end": "2026-07-05T12:15:00.000+00:00"
      },
      "length": {
        "value": 3,
        "unit": "days"
      }
    },
    "request": {
      "method": "PUT",
      "url": "Encounter/faddd6f2-f48d-4656-a20e-51fe58305733"
    }
  }, {
    "fullUrl": "https://madie.cms.gov/Coverage/6ecfef3a-6671-452e-baa0-cf70935a1434",
    "resource": {
      "resourceType": "Coverage",
      "id": "6ecfef3a-6671-452e-baa0-cf70935a1434",
      "meta": {
        "profile": [ "http://hl7.org/fhir/us/qicore/StructureDefinition/qicore-coverage" ]
      },
      "status": "active",
      "type": {
        "coding": [ {
          "system": "https://nahdo.org/sopt",
          "version": "1.0.1",
          "code": "1",
          "display": "MEDICARE",
          "userSelected": true
        } ]
      },
      "subscriberId": "AB9876",
      "beneficiary": {
        "reference": "Patient/443783af-53ae-46ed-a129-690aa58433d8"
      },
      "relationship": {
        "coding": [ {
          "system": "http://terminology.hl7.org/CodeSystem/subscriber-relationship",
          "code": "self"
        } ]
      },
      "payor": [ {
        "reference": "Organization/ca646331-dfa0-413b-a3ab-b4d21c1e12ca"
      } ]
    },
    "request": {
      "method": "PUT",
      "url": "Coverage/6ecfef3a-6671-452e-baa0-cf70935a1434"
    }
  }, {
    "fullUrl": "https://madie.cms.gov/Observation/d48e2f2d-7ee8-47f3-b788-791d86634b32",
    "resource": {
      "resourceType": "Observation",
      "id": "d48e2f2d-7ee8-47f3-b788-791d86634b32",
      "meta": {
        "profile": [ "http://hl7.org/fhir/us/qicore/StructureDefinition/qicore-observation-lab" ]
      },
      "status": "final",
      "category": [ {
        "coding": [ {
          "system": "http://terminology.hl7.org/CodeSystem/observation-category",
          "code": "laboratory",
          "display": "Laboratory",
          "userSelected": true
        } ]
      } ],
      "code": {
        "coding": [ {
          "system": "http://loinc.org",
          "version": "2.72",
          "code": "20570-8",
          "display": "Hematocrit [Volume Fraction] of Blood by calculation"
        } ]
      },
      "subject": {
        "reference": "Patient/443783af-53ae-46ed-a129-690aa58433d8"
      },
      "effectiveDateTime": "2026-07-01T08:00:00.000+00:00",
      "issued": "2026-07-01T08:00:00.000+00:00",
      "performer": [ {
        "reference": "Organization/Organization-1"
      } ],
      "valueQuantity": {
        "value": 50,
        "unit": "%",
        "system": "http://unitsofmeasure.org",
        "code": "%"
      }
    },
    "request": {
      "method": "PUT",
      "url": "Observation/d48e2f2d-7ee8-47f3-b788-791d86634b32"
    }
  }, {
    "fullUrl": "https://madie.cms.gov/Organization/ca646331-dfa0-413b-a3ab-b4d21c1e12ca",
    "resource": {
      "resourceType": "Organization",
      "id": "ca646331-dfa0-413b-a3ab-b4d21c1e12ca",
      "meta": {
        "profile": [ "http://hl7.org/fhir/us/qicore/StructureDefinition/qicore-organization" ]
      },
      "identifier": [ {
        "use": "temp",
        "system": "urn:oid:2.16.840.1.113883.4.4",
        "value": "21-3259825"
      } ],
      "active": true,
      "type": [ {
        "coding": [ {
          "system": "http://terminology.hl7.org/CodeSystem/organization-type",
          "code": "pay",
          "display": "Payer"
        } ]
      } ],
      "name": "Blue Cross Blue Shield of Texas",
      "telecom": [ {
        "system": "phone",
        "value": "(+1) 972-766-6900"
      } ],
      "address": [ {
        "use": "billing",
        "type": "postal",
        "line": [ "P.O. Box 660044" ],
        "city": "Dallas",
        "state": "TX",
        "postalCode": "75266-0044",
        "country": "USA"
      } ]
    },
    "request": {
      "method": "PUT",
      "url": "Organization/ca646331-dfa0-413b-a3ab-b4d21c1e12ca"
    }
  }, {
    "fullUrl": "https://madie.cms.gov/Practitioner/619fb695-9dce-434c-a1da-2f0e8e0702ff",
    "resource": {
      "resourceType": "Practitioner",
      "id": "619fb695-9dce-434c-a1da-2f0e8e0702ff",
      "meta": {
        "profile": [ "http://hl7.org/fhir/us/qicore/StructureDefinition/qicore-practitioner" ]
      },
      "identifier": [ {
        "system": "http://hl7.org/fhir/sid/us-npi",
        "value": "0723660813"
      } ],
      "name": [ {
        "family": "Evil",
        "prefix": [ "Dr" ]
      } ]
    },
    "request": {
      "method": "PUT",
      "url": "Practitioner/619fb695-9dce-434c-a1da-2f0e8e0702ff"
    }
  }, {
    "fullUrl": "https://madie.cms.gov/MeasureReport/686f2998-7071-49f1-a3fd-f65252c56e4b",
    "resource": {
      "resourceType": "MeasureReport",
      "id": "686f2998-7071-49f1-a3fd-f65252c56e4b",
      "meta": {
        "profile": [ "http://hl7.org/fhir/us/cqfmeasures/StructureDefinition/test-case-cqfm" ]
      },
      "contained": [ {
        "resourceType": "Parameters",
        "id": "c8c70e42-57b2-40e8-8af7-5dac41fe144d-parameters",
        "parameter": [ {
          "name": "subject",
          "valueString": "443783af-53ae-46ed-a129-690aa58433d8"
        } ]
      } ],
      "extension": [ {
        "url": "http://hl7.org/fhir/StructureDefinition/cqf-inputParameters",
        "valueReference": {
          "reference": "#c8c70e42-57b2-40e8-8af7-5dac41fe144d-parameters"
        }
      }, {
        "url": "http://hl7.org/fhir/us/cqfmeasures/StructureDefinition/cqfm-testCaseDescription",
        "valueMarkdown": "Observation enc first day of MP (7/1), Inpt enc. 7/2, has Medicare, hematocrit evaluated in Observation prior to inpatient admission"
      } ],
      "modifierExtension": [ {
        "url": "http://hl7.org/fhir/us/cqfmeasures/StructureDefinition/cqfm-isTestCase",
        "valueBoolean": true
      } ],
      "status": "complete",
      "type": "individual",
      "measure": "https://madie.cms.gov/Measure/CMSFHIR844HybridHospitalWideMortality",
      "period": {
        "start": "2026-07-01",
        "end": "2027-06-30"
      },
      "group": [ {
        "id": "Group_1",
        "population": [ {
          "id": "InitialPopulation_1",
          "code": {
            "coding": [ {
              "system": "http://terminology.hl7.org/CodeSystem/measure-population",
              "code": "initial-population",
              "display": "Initial Population"
            } ]
          },
          "count": 1
        } ],
        "measureScore": {
          "value": 0.0
        }
      } ],
      "evaluatedResource": [ {
        "reference": "Patient/443783af-53ae-46ed-a129-690aa58433d8"
      }, {
        "reference": "Encounter/32642ab8-061c-4469-bcc0-ccc2fe722672"
      }, {
        "reference": "Encounter/faddd6f2-f48d-4656-a20e-51fe58305733"
      }, {
        "reference": "Coverage/6ecfef3a-6671-452e-baa0-cf70935a1434"
      }, {
        "reference": "Observation/d48e2f2d-7ee8-47f3-b788-791d86634b32"
      }, {
        "reference": "Organization/ca646331-dfa0-413b-a3ab-b4d21c1e12ca"
      }, {
        "reference": "Practitioner/619fb695-9dce-434c-a1da-2f0e8e0702ff"
      } ]
    },
    "request": {
      "method": "PUT",
      "url": "MeasureReport/686f2998-7071-49f1-a3fd-f65252c56e4b"
    }
  } ]
}