{
  "resourceType": "Bundle",
  "id": "62fd4b6b0968f8012246b35d",
  "type": "collection",
  "entry": [ {
    "fullUrl": "https://madie.cms.gov/Patient/bf87bf51-99d7-4765-a19a-f68c9fcf6a2e",
    "resource": {
      "resourceType": "Patient",
      "id": "bf87bf51-99d7-4765-a19a-f68c9fcf6a2e",
      "meta": {
        "profile": [ "http://hl7.org/fhir/us/qicore/StructureDefinition/qicore-patient" ]
      },
      "extension": [ {
        "url": "http://hl7.org/fhir/us/core/StructureDefinition/us-core-race",
        "extension": [ {
          "url": "ombCategory",
          "valueCoding": {
            "system": "urn:oid:2.16.840.1.113883.6.238",
            "code": "1002-5",
            "display": "American Indian or Alaska Native",
            "userSelected": true
          }
        }, {
          "url": "text",
          "valueString": "American Indian or Alaska Native"
        }, {
          "url": "detailed",
          "valueCoding": {
            "system": "urn:oid:2.16.840.1.113883.6.238",
            "code": "1653-5",
            "display": "Tohono O'Odham"
          }
        } ]
      }, {
        "url": "http://hl7.org/fhir/us/core/StructureDefinition/us-core-ethnicity",
        "extension": [ {
          "url": "ombCategory",
          "valueCoding": {
            "system": "urn:oid:2.16.840.1.113883.6.238",
            "code": "2135-2",
            "display": "Hispanic or Latino",
            "userSelected": true
          }
        }, {
          "url": "text",
          "valueString": "Hispanic or Latino"
        }, {
          "url": "detailed",
          "valueCoding": {
            "system": "urn:oid:2.16.840.1.113883.6.238",
            "code": "2153-5",
            "display": "Mexican American Indian"
          }
        } ]
      } ],
      "identifier": [ {
        "type": {
          "coding": [ {
            "system": "http://terminology.hl7.org/CodeSystem/v2-0203",
            "code": "MR"
          } ]
        },
        "system": "https://bonnie-fhir.healthit.gov/",
        "value": "62fd4b6b0968f8012246b35d"
      } ],
      "name": [ {
        "family": "NUMERPass",
        "given": [ "ConsRptLastDayOfMP" ]
      } ],
      "gender": "female",
      "birthDate": "1990-12-31"
    }
  }, {
    "fullUrl": "https://madie.cms.gov/Encounter/a26cb1b2-0dec-4e7a-85ab-5a8aadf097bb",
    "resource": {
      "resourceType": "Encounter",
      "id": "a26cb1b2-0dec-4e7a-85ab-5a8aadf097bb",
      "meta": {
        "profile": [ "http://hl7.org/fhir/us/qicore/StructureDefinition/qicore-encounter" ]
      },
      "status": "finished",
      "class": {
        "system": "http://terminology.hl7.org/CodeSystem/v3-ActCode",
        "code": "AMB",
        "display": "ambulatory"
      },
      "type": [ {
        "coding": [ {
          "system": "http://www.ama-assn.org/go/cpt",
          "version": "2021",
          "code": "99395",
          "display": "Periodic comprehensive preventive medicine reevaluation and management of an individual including an age and gender appropriate history, examination, counseling/anticipatory guidance/risk factor reduction interventions, and the ordering of laboratory/diagnostic procedures, established patient; 18-39 years",
          "userSelected": true
        } ]
      } ],
      "subject": {
        "reference": "Patient/bf87bf51-99d7-4765-a19a-f68c9fcf6a2e"
      },
      "period": {
        "start": "2026-05-27T08:00:00Z",
        "end": "2026-05-27T09:15:00Z"
      }
    }
  }, {
    "fullUrl": "https://madie.cms.gov/Task/18d69fec-eb1b-4b49-809d-f52bf4ee48bf",
    "resource": {
      "resourceType": "Task",
      "id": "18d69fec-eb1b-4b49-809d-f52bf4ee48bf",
      "meta": {
        "profile": [ "http://hl7.org/fhir/us/qicore/StructureDefinition/qicore-task" ]
      },
      "identifier": [ {
        "use": "official",
        "system": "http:/goodhealth.org/identifiers",
        "value": "20170201-002"
      } ],
      "basedOn": [ {
        "reference": "ServiceRequest/d8b38c65-32f7-4b1c-a35d-35675c631055"
      } ],
      "status": "completed",
      "intent": "order",
      "priority": "routine",
      "code": {
        "coding": [ {
          "system": "http://hl7.org/fhir/CodeSystem/task-code",
          "code": "fulfill",
          "display": "Fulfill the focal request",
          "userSelected": true
        } ]
      },
      "for": {
        "reference": "Patient/bf87bf51-99d7-4765-a19a-f68c9fcf6a2e"
      },
      "executionPeriod": {
        "start": "2026-12-31T23:00:00Z",
        "end": "2026-12-31T23:59:00Z"
      },
      "reasonCode": {
        "coding": [ {
          "system": "http://loinc.org",
          "version": "2.72",
          "code": "11488-4",
          "display": "Consult note",
          "userSelected": true
        } ]
      }
    }
  }, {
    "fullUrl": "https://madie.cms.gov/ServiceRequest/d8b38c65-32f7-4b1c-a35d-35675c631055",
    "resource": {
      "resourceType": "ServiceRequest",
      "id": "d8b38c65-32f7-4b1c-a35d-35675c631055",
      "meta": {
        "profile": [ "http://hl7.org/fhir/us/qicore/StructureDefinition/qicore-servicerequest" ]
      },
      "status": "active",
      "intent": "order",
      "code": {
        "coding": [ {
          "system": "http://snomed.info/sct",
          "version": "http://snomed.info/sct/731000124108/version/20250301",
          "code": "103696004",
          "display": "Patient referral to specialist (procedure)",
          "userSelected": true
        } ]
      },
      "subject": {
        "reference": "Patient/bf87bf51-99d7-4765-a19a-f68c9fcf6a2e"
      },
      "authoredOn": "2026-05-31T08:00:00Z"
    }
  }, {
    "fullUrl": "https://madie.cms.gov/Coverage/8506c397-e038-4ab7-ab74-5c717694d820",
    "resource": {
      "resourceType": "Coverage",
      "id": "8506c397-e038-4ab7-ab74-5c717694d820",
      "meta": {
        "profile": [ "http://hl7.org/fhir/us/qicore/StructureDefinition/qicore-coverage" ]
      },
      "status": "active",
      "type": {
        "coding": [ {
          "system": "https://nahdo.org/sopt",
          "code": "1",
          "display": "MEDICARE"
        } ]
      },
      "subscriberId": "123456",
      "beneficiary": {
        "reference": "Patient/bf87bf51-99d7-4765-a19a-f68c9fcf6a2e"
      },
      "relationship": {
        "coding": [ {
          "system": "http://terminology.hl7.org/CodeSystem/subscriber-relationship",
          "code": "self",
          "display": "Self"
        } ]
      },
      "period": {
        "start": "2024-12-01T00:00:00Z"
      },
      "payor": [ {
        "reference": "Organization/f692a0ef-6a53-4e14-bde4-8f238d54256d"
      } ]
    }
  }, {
    "fullUrl": "https://madie.cms.gov/Organization/f692a0ef-6a53-4e14-bde4-8f238d54256d",
    "resource": {
      "resourceType": "Organization",
      "id": "f692a0ef-6a53-4e14-bde4-8f238d54256d",
      "meta": {
        "profile": [ "http://hl7.org/fhir/us/qicore/StructureDefinition/qicore-organization" ]
      },
      "identifier": [ {
        "use": "temp",
        "system": "urn:oid:2.16.840.1.113883.4.4",
        "value": "21-3259825"
      } ],
      "active": true,
      "type": [ {
        "coding": [ {
          "system": "http://terminology.hl7.org/CodeSystem/organization-type",
          "code": "pay",
          "display": "Payer"
        } ]
      } ],
      "name": "Blue Cross Blue Shield of Texas",
      "telecom": [ {
        "system": "phone",
        "value": "(+1) 972-766-6900"
      } ],
      "address": [ {
        "use": "billing",
        "type": "postal",
        "line": [ "P.O. Box 660044" ],
        "city": "Dallas",
        "state": "TX",
        "postalCode": "75266-0044",
        "country": "USA"
      } ]
    }
  }, {
    "fullUrl": "https://madie.cms.gov/Practitioner/425ba766-253a-4305-9435-df03b4de6a97",
    "resource": {
      "resourceType": "Practitioner",
      "id": "425ba766-253a-4305-9435-df03b4de6a97",
      "meta": {
        "profile": [ "http://hl7.org/fhir/us/qicore/StructureDefinition/qicore-practitioner" ]
      },
      "identifier": [ {
        "system": "http://hl7.org/fhir/sid/us-npi",
        "value": "1689411712"
      } ],
      "name": [ {
        "family": "Evil",
        "prefix": [ "Dr" ]
      } ]
    }
  }, {
    "fullUrl": "https://madie.cms.gov/MeasureReport/a4af280d-3bfd-4872-badc-5fd6ec6795fa",
    "resource": {
      "resourceType": "MeasureReport",
      "id": "a4af280d-3bfd-4872-badc-5fd6ec6795fa",
      "meta": {
        "profile": [ "http://hl7.org/fhir/us/cqfmeasures/StructureDefinition/test-case-cqfm" ]
      },
      "contained": [ {
        "resourceType": "Parameters",
        "id": "2f508463-6e94-45c4-a24c-6bdfad4bd569-parameters",
        "parameter": [ {
          "name": "subject",
          "valueString": "bf87bf51-99d7-4765-a19a-f68c9fcf6a2e"
        } ]
      } ],
      "extension": [ {
        "url": "http://hl7.org/fhir/StructureDefinition/cqf-inputParameters",
        "valueReference": {
          "reference": "#2f508463-6e94-45c4-a24c-6bdfad4bd569-parameters"
        }
      }, {
        "url": "http://hl7.org/fhir/us/cqfmeasures/StructureDefinition/cqfm-testCaseDescription",
        "valueMarkdown": "Patient with Preventive Care Services encounter with Referral during MP, and Consultant Report on the last day of MP.  SDE details added to the JSON.\n"
      } ],
      "modifierExtension": [ {
        "url": "http://hl7.org/fhir/us/cqfmeasures/StructureDefinition/cqfm-isTestCase",
        "valueBoolean": true
      } ],
      "status": "complete",
      "type": "individual",
      "measure": "https://madie.cms.gov/Measure/CMS50FHIRReceiptofSpecialistReport",
      "period": {
        "start": "2026-01-01",
        "end": "2026-12-31"
      },
      "group": [ {
        "id": "Group_1",
        "population": [ {
          "id": "InitialPopulation_1",
          "code": {
            "coding": [ {
              "system": "http://terminology.hl7.org/CodeSystem/measure-population",
              "code": "initial-population",
              "display": "Initial Population"
            } ]
          },
          "count": 1
        }, {
          "id": "Denominator_1",
          "code": {
            "coding": [ {
              "system": "http://terminology.hl7.org/CodeSystem/measure-population",
              "code": "denominator",
              "display": "Denominator"
            } ]
          },
          "count": 1
        }, {
          "id": "Numerator_1",
          "code": {
            "coding": [ {
              "system": "http://terminology.hl7.org/CodeSystem/measure-population",
              "code": "numerator",
              "display": "Numerator"
            } ]
          },
          "count": 1
        } ],
        "measureScore": {
          "value": 1.0
        }
      } ],
      "evaluatedResource": [ {
        "reference": "Patient/bf87bf51-99d7-4765-a19a-f68c9fcf6a2e"
      }, {
        "reference": "Encounter/a26cb1b2-0dec-4e7a-85ab-5a8aadf097bb"
      }, {
        "reference": "Task/18d69fec-eb1b-4b49-809d-f52bf4ee48bf"
      }, {
        "reference": "ServiceRequest/d8b38c65-32f7-4b1c-a35d-35675c631055"
      }, {
        "reference": "Coverage/8506c397-e038-4ab7-ab74-5c717694d820"
      }, {
        "reference": "Organization/f692a0ef-6a53-4e14-bde4-8f238d54256d"
      }, {
        "reference": "Practitioner/425ba766-253a-4305-9435-df03b4de6a97"
      } ]
    }
  } ]
}