{
  "resourceType": "Bundle",
  "id": "6356dca654e383debade75aa",
  "type": "transaction",
  "entry": [ {
    "fullUrl": "https://madie.cms.gov/Patient/64a5e735-5178-4cb2-8d9b-60ac31d21c2e",
    "resource": {
      "resourceType": "Patient",
      "id": "64a5e735-5178-4cb2-8d9b-60ac31d21c2e",
      "meta": {
        "profile": [ "http://hl7.org/fhir/us/qicore/StructureDefinition/qicore-patient" ]
      },
      "text": {
        "status": "generated",
        "div": "<div xmlns=\"http://www.w3.org/1999/xhtml\"><div class=\"hapiHeaderText\">RISKEGAEQ20Wks <b>RISKPass </b></div><table class=\"hapiPropertyTable\"><tbody><tr><td>Date of birth</td><td><span>01 February 2004</span></td></tr></tbody></table></div>"
      },
      "extension": [ {
        "url": "http://hl7.org/fhir/us/core/StructureDefinition/us-core-race",
        "extension": [ {
          "url": "ombCategory",
          "valueCoding": {
            "system": "urn:oid:2.16.840.1.113883.6.238",
            "code": "1002-5",
            "display": "American Indian or Alaska Native",
            "userSelected": true
          }
        }, {
          "url": "text",
          "valueString": "American Indian or Alaska Native"
        } ]
      }, {
        "url": "http://hl7.org/fhir/us/core/StructureDefinition/us-core-ethnicity",
        "extension": [ {
          "url": "ombCategory",
          "valueCoding": {
            "system": "urn:oid:2.16.840.1.113883.6.238",
            "code": "2135-2",
            "display": "Hispanic or Latino",
            "userSelected": true
          }
        }, {
          "url": "text",
          "valueString": "Hispanic or Latino"
        } ]
      } ],
      "identifier": [ {
        "type": {
          "coding": [ {
            "system": "http://terminology.hl7.org/CodeSystem/v2-0203",
            "code": "MR"
          } ]
        },
        "system": "https://bonnie-fhir.healthit.gov/",
        "value": "6356dca654e383debade75aa"
      } ],
      "active": true,
      "name": [ {
        "use": "usual",
        "family": "RISKPass",
        "given": [ "RISKEGAEQ20Wks" ]
      } ],
      "gender": "female",
      "birthDate": "2005-02-01"
    },
    "request": {
      "method": "PUT",
      "url": "Patient/64a5e735-5178-4cb2-8d9b-60ac31d21c2e"
    }
  }, {
    "fullUrl": "https://madie.cms.gov/Observation/989a97f1-87e5-4a21-b7a6-580d11f580be",
    "resource": {
      "resourceType": "Observation",
      "id": "989a97f1-87e5-4a21-b7a6-580d11f580be",
      "meta": {
        "profile": [ "http://hl7.org/fhir/us/qicore/StructureDefinition/qicore-observation" ]
      },
      "status": "final",
      "category": [ {
        "coding": [ {
          "system": "http://terminology.hl7.org/CodeSystem/observation-category",
          "code": "exam",
          "display": "exam",
          "userSelected": true
        } ]
      } ],
      "code": {
        "coding": [ {
          "system": "http://loinc.org",
          "code": "93857-1"
        } ]
      },
      "subject": {
        "reference": "Patient/64a5e735-5178-4cb2-8d9b-60ac31d21c2e"
      },
      "effectiveDateTime": "2026-02-01T08:00:00.000+00:00",
      "valueDateTime": "2026-02-01T08:00:00.000+00:00"
    },
    "request": {
      "method": "PUT",
      "url": "Observation/989a97f1-87e5-4a21-b7a6-580d11f580be"
    }
  }, {
    "fullUrl": "https://madie.cms.gov/Observation/d41e2dcd-93b6-47e5-b6ad-fd85fb6ca33f",
    "resource": {
      "resourceType": "Observation",
      "id": "d41e2dcd-93b6-47e5-b6ad-fd85fb6ca33f",
      "meta": {
        "profile": [ "http://hl7.org/fhir/us/qicore/StructureDefinition/qicore-observation" ]
      },
      "status": "final",
      "category": [ {
        "coding": [ {
          "system": "http://terminology.hl7.org/CodeSystem/observation-category",
          "code": "exam",
          "display": "exam",
          "userSelected": true
        } ]
      } ],
      "code": {
        "coding": [ {
          "system": "http://loinc.org",
          "code": "11884-4"
        } ]
      },
      "subject": {
        "reference": "Patient/64a5e735-5178-4cb2-8d9b-60ac31d21c2e"
      },
      "effectiveDateTime": "2026-02-01T08:00:00.000+00:00",
      "valueQuantity": {
        "value": 20,
        "system": "http://unitsofmeasure.org",
        "code": "wk"
      }
    },
    "request": {
      "method": "PUT",
      "url": "Observation/d41e2dcd-93b6-47e5-b6ad-fd85fb6ca33f"
    }
  }, {
    "fullUrl": "https://madie.cms.gov/Encounter/2f7f5fcc-2845-4d2b-b095-a8b9e73ee162",
    "resource": {
      "resourceType": "Encounter",
      "id": "2f7f5fcc-2845-4d2b-b095-a8b9e73ee162",
      "meta": {
        "profile": [ "http://hl7.org/fhir/us/qicore/StructureDefinition/qicore-encounter" ]
      },
      "status": "finished",
      "class": {
        "system": "http://terminology.hl7.org/CodeSystem/v3-ActCode",
        "code": "IMP",
        "display": "inpatient encounter"
      },
      "type": [ {
        "coding": [ {
          "system": "http://snomed.info/sct",
          "code": "183452005"
        } ]
      } ],
      "subject": {
        "reference": "Patient/64a5e735-5178-4cb2-8d9b-60ac31d21c2e"
      },
      "period": {
        "start": "2026-02-01T08:00:00.000+00:00",
        "end": "2026-02-05T08:15:00.000+00:00"
      },
      "reasonReference": [ {
        "reference": "Condition/e46f477f-c1c4-4409-a2aa-d11edacf66e5"
      } ]
    },
    "request": {
      "method": "PUT",
      "url": "Encounter/2f7f5fcc-2845-4d2b-b095-a8b9e73ee162"
    }
  }, {
    "fullUrl": "https://madie.cms.gov/Procedure/a6a3e65b-39bb-4666-a692-1dbea5ff03bd",
    "resource": {
      "resourceType": "Procedure",
      "id": "a6a3e65b-39bb-4666-a692-1dbea5ff03bd",
      "meta": {
        "profile": [ "http://hl7.org/fhir/us/qicore/StructureDefinition/qicore-procedure" ]
      },
      "extension": [ {
        "url": "http://hl7.org/fhir/us/qicore/StructureDefinition/qicore-recorded",
        "valueDateTime": "2014-04-05T13:35:00.000+00:00"
      } ],
      "status": "completed",
      "code": {
        "coding": [ {
          "system": "http://snomed.info/sct",
          "code": "10745001"
        } ]
      },
      "subject": {
        "reference": "Patient/64a5e735-5178-4cb2-8d9b-60ac31d21c2e"
      },
      "performedPeriod": {
        "start": "2026-02-01T08:00:00.000+00:00",
        "end": "2026-02-05T08:15:00.000+00:00"
      }
    },
    "request": {
      "method": "PUT",
      "url": "Procedure/a6a3e65b-39bb-4666-a692-1dbea5ff03bd"
    }
  }, {
    "fullUrl": "https://madie.cms.gov/Condition/e46f477f-c1c4-4409-a2aa-d11edacf66e5",
    "resource": {
      "resourceType": "Condition",
      "id": "e46f477f-c1c4-4409-a2aa-d11edacf66e5",
      "meta": {
        "profile": [ "http://hl7.org/fhir/us/qicore/StructureDefinition/qicore-condition-encounter-diagnosis" ]
      },
      "category": [ {
        "coding": [ {
          "system": "http://terminology.hl7.org/CodeSystem/condition-category",
          "code": "encounter-diagnosis",
          "display": "Encounter Diagnosis"
        } ]
      } ],
      "code": {
        "coding": [ {
          "system": "http://hl7.org/fhir/sid/icd-10-cm",
          "version": "2023",
          "code": "Z3A.20",
          "display": "20 weeks gestation",
          "userSelected": true
        } ]
      },
      "subject": {
        "reference": "Patient/64a5e735-5178-4cb2-8d9b-60ac31d21c2e"
      },
      "recordedDate": "2026-10-26T08:00:00.000+00:00"
    },
    "request": {
      "method": "PUT",
      "url": "Condition/e46f477f-c1c4-4409-a2aa-d11edacf66e5"
    }
  }, {
    "fullUrl": "https://madie.cms.gov/Coverage/3896803b-7a89-4b23-b94b-1304b5ddab34",
    "resource": {
      "resourceType": "Coverage",
      "id": "3896803b-7a89-4b23-b94b-1304b5ddab34",
      "meta": {
        "profile": [ "http://hl7.org/fhir/us/qicore/StructureDefinition/qicore-coverage" ]
      },
      "status": "active",
      "beneficiary": {
        "reference": "Patient/64a5e735-5178-4cb2-8d9b-60ac31d21c2e"
      },
      "payor": [ {
        "reference": "Organization/3d1d850f-5451-4a99-956b-1c5996c942b4"
      } ]
    },
    "request": {
      "method": "PUT",
      "url": "Coverage/3896803b-7a89-4b23-b94b-1304b5ddab34"
    }
  }, {
    "fullUrl": "https://madie.cms.gov/Organization/3d1d850f-5451-4a99-956b-1c5996c942b4",
    "resource": {
      "resourceType": "Organization",
      "id": "3d1d850f-5451-4a99-956b-1c5996c942b4",
      "meta": {
        "profile": [ "http://hl7.org/fhir/us/qicore/StructureDefinition/qicore-organization" ]
      },
      "identifier": [ {
        "use": "temp",
        "system": "urn:oid:2.16.840.1.113883.4.4",
        "value": "21-3259825"
      } ],
      "active": true,
      "type": [ {
        "coding": [ {
          "system": "http://terminology.hl7.org/CodeSystem/organization-type",
          "code": "pay",
          "display": "Payer"
        } ]
      } ],
      "name": "Blue Cross Blue Shield of Texas",
      "telecom": [ {
        "system": "phone",
        "value": "(+1) 972-766-6900"
      } ],
      "address": [ {
        "use": "billing",
        "type": "postal",
        "line": [ "P.O. Box 660044" ],
        "city": "Dallas",
        "state": "TX",
        "postalCode": "75266-0044",
        "country": "USA"
      } ]
    },
    "request": {
      "method": "PUT",
      "url": "Organization/3d1d850f-5451-4a99-956b-1c5996c942b4"
    }
  }, {
    "fullUrl": "https://madie.cms.gov/Practitioner/b8488b6a-158c-4731-bd19-ca9c9fe1e399",
    "resource": {
      "resourceType": "Practitioner",
      "id": "b8488b6a-158c-4731-bd19-ca9c9fe1e399",
      "identifier": [ {
        "system": "http://hl7.org/fhir/sid/us-npi",
        "value": "123456"
      } ],
      "name": [ {
        "family": "Evil",
        "prefix": [ "Dr" ]
      } ]
    },
    "request": {
      "method": "PUT",
      "url": "Practitioner/b8488b6a-158c-4731-bd19-ca9c9fe1e399"
    }
  }, {
    "fullUrl": "https://madie.cms.gov/MeasureReport/e767e92e-5b7b-4a3e-83fe-2535657cca7c",
    "resource": {
      "resourceType": "MeasureReport",
      "id": "e767e92e-5b7b-4a3e-83fe-2535657cca7c",
      "meta": {
        "profile": [ "http://hl7.org/fhir/us/cqfmeasures/StructureDefinition/test-case-cqfm" ]
      },
      "contained": [ {
        "resourceType": "Parameters",
        "id": "35c76f12-c1c9-4bd2-a97b-18f8e42ab921-parameters",
        "parameter": [ {
          "name": "subject",
          "valueString": "64a5e735-5178-4cb2-8d9b-60ac31d21c2e"
        } ]
      } ],
      "extension": [ {
        "url": "http://hl7.org/fhir/StructureDefinition/cqf-inputParameters",
        "valueReference": {
          "reference": "#35c76f12-c1c9-4bd2-a97b-18f8e42ab921-parameters"
        }
      }, {
        "url": "http://hl7.org/fhir/us/cqfmeasures/StructureDefinition/cqfm-testCaseDescription",
        "valueMarkdown": "\"Risk variable of preterm birth.  EGA is 20 weeks.\n.\"\n"
      } ],
      "modifierExtension": [ {
        "url": "http://hl7.org/fhir/us/cqfmeasures/StructureDefinition/cqfm-isTestCase",
        "valueBoolean": true
      } ],
      "status": "complete",
      "type": "individual",
      "measure": "https://madie.cms.gov/Measure/CMS1028FHIRPCSevereOBComps",
      "period": {
        "start": "2026-01-01",
        "end": "2026-12-31"
      },
      "group": [ {
        "id": "Group_1",
        "population": [ {
          "id": "InitialPopulation_1",
          "code": {
            "coding": [ {
              "system": "http://terminology.hl7.org/CodeSystem/measure-population",
              "code": "initial-population",
              "display": "Initial Population"
            } ]
          },
          "count": 1
        }, {
          "id": "Denominator_1",
          "code": {
            "coding": [ {
              "system": "http://terminology.hl7.org/CodeSystem/measure-population",
              "code": "denominator",
              "display": "Denominator"
            } ]
          },
          "count": 1
        }, {
          "id": "Numerator_1",
          "code": {
            "coding": [ {
              "system": "http://terminology.hl7.org/CodeSystem/measure-population",
              "code": "numerator",
              "display": "Numerator"
            } ]
          },
          "count": 0
        }, {
          "id": "NumeratorExclusion_1",
          "code": {
            "coding": [ {
              "system": "http://terminology.hl7.org/CodeSystem/measure-population",
              "code": "numerator-exclusion",
              "display": "Numerator Exclusion"
            } ]
          },
          "count": 0
        } ],
        "measureScore": {
          "value": 0.0
        }
      }, {
        "id": "Group_2",
        "population": [ {
          "id": "InitialPopulation_2",
          "code": {
            "coding": [ {
              "system": "http://terminology.hl7.org/CodeSystem/measure-population",
              "code": "initial-population",
              "display": "Initial Population"
            } ]
          },
          "count": 1
        }, {
          "id": "Denominator_2",
          "code": {
            "coding": [ {
              "system": "http://terminology.hl7.org/CodeSystem/measure-population",
              "code": "denominator",
              "display": "Denominator"
            } ]
          },
          "count": 1
        }, {
          "id": "Numerator_2",
          "code": {
            "coding": [ {
              "system": "http://terminology.hl7.org/CodeSystem/measure-population",
              "code": "numerator",
              "display": "Numerator"
            } ]
          },
          "count": 0
        }, {
          "id": "NumeratorExclusion_2",
          "code": {
            "coding": [ {
              "system": "http://terminology.hl7.org/CodeSystem/measure-population",
              "code": "numerator-exclusion",
              "display": "Numerator Exclusion"
            } ]
          },
          "count": 0
        } ],
        "measureScore": {
          "value": 0.0
        }
      } ],
      "evaluatedResource": [ {
        "reference": "Patient/64a5e735-5178-4cb2-8d9b-60ac31d21c2e"
      }, {
        "reference": "Observation/989a97f1-87e5-4a21-b7a6-580d11f580be"
      }, {
        "reference": "Observation/d41e2dcd-93b6-47e5-b6ad-fd85fb6ca33f"
      }, {
        "reference": "Encounter/2f7f5fcc-2845-4d2b-b095-a8b9e73ee162"
      }, {
        "reference": "Procedure/a6a3e65b-39bb-4666-a692-1dbea5ff03bd"
      }, {
        "reference": "Condition/e46f477f-c1c4-4409-a2aa-d11edacf66e5"
      }, {
        "reference": "Coverage/3896803b-7a89-4b23-b94b-1304b5ddab34"
      }, {
        "reference": "Organization/3d1d850f-5451-4a99-956b-1c5996c942b4"
      }, {
        "reference": "Practitioner/b8488b6a-158c-4731-bd19-ca9c9fe1e399"
      } ]
    },
    "request": {
      "method": "PUT",
      "url": "MeasureReport/e767e92e-5b7b-4a3e-83fe-2535657cca7c"
    }
  } ]
}