{
  "resourceType": "Bundle",
  "id": "60f82c2e98086b570510e272",
  "type": "transaction",
  "entry": [ {
    "fullUrl": "https://madie.cms.gov/Patient/c1ee2b07-f5a7-451c-8bc5-cb97b1cbcca2",
    "resource": {
      "resourceType": "Patient",
      "id": "c1ee2b07-f5a7-451c-8bc5-cb97b1cbcca2",
      "meta": {
        "profile": [ "http://hl7.org/fhir/us/qicore/StructureDefinition/qicore-patient" ]
      },
      "text": {
        "status": "generated",
        "div": "<div xmlns=\"http://www.w3.org/1999/xhtml\"><div class=\"hapiHeaderText\">MedOrdMedReason_gt1dayduringEncIPwEd <b>DENEXCEPFAIL </b></div><table class=\"hapiPropertyTable\"><tbody><tr><td>Identifier</td><td>d63fda8a0fb72cd195317700f701d509</td></tr><tr><td>Date of birth</td><td><span>26 September 1975</span></td></tr></tbody></table></div>"
      },
      "extension": [ {
        "url": "http://hl7.org/fhir/us/core/StructureDefinition/us-core-race",
        "extension": [ {
          "url": "ombCategory",
          "valueCoding": {
            "system": "urn:oid:2.16.840.1.113883.6.238",
            "code": "2054-5",
            "display": "Black or African American",
            "userSelected": true
          }
        }, {
          "url": "text",
          "valueString": "Black or African American"
        } ]
      }, {
        "url": "http://hl7.org/fhir/us/core/StructureDefinition/us-core-ethnicity",
        "extension": [ {
          "url": "ombCategory",
          "valueCoding": {
            "system": "urn:oid:2.16.840.1.113883.6.238",
            "code": "2186-5",
            "display": "Not Hispanic or Latino",
            "userSelected": true
          }
        }, {
          "url": "text",
          "valueString": "Not Hispanic or Latino"
        } ]
      } ],
      "identifier": [ {
        "type": {
          "coding": [ {
            "system": "http://terminology.hl7.org/CodeSystem/v2-0203",
            "code": "MR"
          } ]
        },
        "system": "https://bonnie-fhir.healthit.gov/",
        "value": "60f82c2e98086b570510e272"
      } ],
      "name": [ {
        "use": "usual",
        "family": "DENEXCEPFail",
        "given": [ "MedOrdMedReason_gt1dayduringEncIPwEd" ]
      } ],
      "gender": "female",
      "birthDate": "1976-09-26"
    },
    "request": {
      "method": "PUT",
      "url": "Patient/c1ee2b07-f5a7-451c-8bc5-cb97b1cbcca2"
    }
  }, {
    "fullUrl": "https://madie.cms.gov/Encounter/9663f173-bc3a-4186-9afe-38b19aec3ac6",
    "resource": {
      "resourceType": "Encounter",
      "id": "9663f173-bc3a-4186-9afe-38b19aec3ac6",
      "meta": {
        "profile": [ "http://hl7.org/fhir/us/qicore/StructureDefinition/qicore-encounter" ]
      },
      "status": "finished",
      "class": {
        "system": "http://terminology.hl7.org/CodeSystem/v3-ActCode",
        "code": "EMER",
        "display": "emergency",
        "userSelected": true
      },
      "type": [ {
        "coding": [ {
          "system": "http://snomed.info/sct",
          "code": "4525004"
        } ]
      } ],
      "subject": {
        "reference": "Patient/c1ee2b07-f5a7-451c-8bc5-cb97b1cbcca2"
      },
      "period": {
        "start": "2026-10-10T08:00:00.000+00:00",
        "end": "2026-10-10T08:15:00.000+00:00"
      },
      "length": {
        "value": 0,
        "unit": "days"
      }
    },
    "request": {
      "method": "PUT",
      "url": "Encounter/9663f173-bc3a-4186-9afe-38b19aec3ac6"
    }
  }, {
    "fullUrl": "https://madie.cms.gov/Encounter/97c4ac18-56c8-4f91-b5bc-bd2366feb6eb",
    "resource": {
      "resourceType": "Encounter",
      "id": "97c4ac18-56c8-4f91-b5bc-bd2366feb6eb",
      "meta": {
        "profile": [ "http://hl7.org/fhir/us/qicore/StructureDefinition/qicore-encounter" ]
      },
      "status": "finished",
      "class": {
        "system": "http://terminology.hl7.org/CodeSystem/v3-ActCode",
        "code": "IMP",
        "display": "inpatient encounter",
        "userSelected": true
      },
      "type": [ {
        "coding": [ {
          "system": "http://snomed.info/sct",
          "code": "32485007"
        } ]
      } ],
      "subject": {
        "reference": "Patient/c1ee2b07-f5a7-451c-8bc5-cb97b1cbcca2"
      },
      "period": {
        "start": "2026-10-10T09:00:00.000+00:00",
        "end": "2026-10-12T11:15:00.000+00:00"
      },
      "length": {
        "value": 2,
        "unit": "days"
      },
      "reasonReference": [ {
        "reference": "Condition/67f87cdd-fbf8-4127-a729-504d198b07ad"
      } ]
    },
    "request": {
      "method": "PUT",
      "url": "Encounter/97c4ac18-56c8-4f91-b5bc-bd2366feb6eb"
    }
  }, {
    "fullUrl": "https://madie.cms.gov/claim/5ca62962b8484628b8de1ec5",
    "resource": {
      "resourceType": "Claim",
      "id": "5ca62962b8484628b8de1ec5",
      "meta": {
        "profile": [ "http://hl7.org/fhir/us/qicore/StructureDefinition/qicore-claim" ]
      },
      "status": "active",
      "type": {
        "coding": [ {
          "system": "http://terminology.hl7.org/CodeSystem/claim-type",
          "code": "institutional"
        } ]
      },
      "use": "claim",
      "patient": {
        "reference": "Patient/d170a0a8-b5ad-4303-b6df-e304dd5f92ad"
      },
      "created": "2026-12-01",
      "provider": {
        "reference": "Practitioner/practitioner-123456"
      },
      "priority": {
        "coding": [ {
          "system": "http://terminology.hl7.org/CodeSystem/processpriority",
          "code": "normal"
        } ]
      },
      "diagnosis": [ {
        "sequence": 1,
        "diagnosisCodeableConcept": {
          "coding": [ {
            "system": "http://hl7.org/fhir/sid/icd-10-cm",
            "code": "I63.00"
          } ]
        },
        "type": [ {
          "coding": [ {
            "system": "http://terminology.hl7.org/CodeSystem/ex-diagnosistype",
            "code": "principal"
          } ]
        } ]
      } ],
      "insurance": [ {
        "sequence": 1,
        "focal": true,
        "coverage": {
          "reference": "Coverage/5fa041661c76ba66d9959367"
        }
      } ],
      "item": [ {
        "sequence": 1,
        "diagnosisSequence": [ 1 ],
        "productOrService": {
          "coding": [ {
            "system": "http://terminology.hl7.org/CodeSystem/ex-USCLS",
            "code": "99555"
          } ]
        },
        "encounter": [ {
          "reference": "Encounter/97c4ac18-56c8-4f91-b5bc-bd2366feb6eb"
        } ]
      } ]
    },
    "request": {
      "method": "PUT",
      "url": "Claim/5ca62962b8484628b8de1ec5"
    }
  }, {
    "fullUrl": "https://madie.cms.gov/MedicationRequest/a28823b9-457c-45d1-ae1f-9d889c04af0e",
    "resource": {
      "resourceType": "MedicationRequest",
      "id": "a28823b9-457c-45d1-ae1f-9d889c04af0e",
      "meta": {
        "profile": [ "http://hl7.org/fhir/us/qicore/StructureDefinition/qicore-medicationnotrequested" ]
      },
      "status": "completed",
      "intent": "order",
      "category": [ {
        "coding": [ {
          "system": "http://terminology.hl7.org/CodeSystem/medicationrequest-category",
          "code": "community"
        } ]
      } ],
      "doNotPerform": true,
      "medicationCodeableConcept": {
        "coding": [ {
          "system": "http://www.nlm.nih.gov/research/umls/rxnorm",
          "code": "1037045"
        } ]
      },
      "subject": {
        "reference": "Patient/c1ee2b07-f5a7-451c-8bc5-cb97b1cbcca2"
      },
      "authoredOn": "2026-10-12T11:00:00.000+00:00",
      "requester": {
        "reference": "Practitioner/example"
      },
      "reasonCode": [ {
        "coding": [ {
          "system": "http://snomed.info/sct",
          "code": "183932001",
          "display": "Procedure contraindicated (situation)",
          "userSelected": true
        } ]
      } ],
      "dosageInstruction": [ {
        "timing": {
          "repeat": {
            "boundsPeriod": {
              "start": "2026-10-12T11:00:00.000+00:00"
            }
          }
        }
      } ]
    },
    "request": {
      "method": "PUT",
      "url": "MedicationRequest/a28823b9-457c-45d1-ae1f-9d889c04af0e"
    }
  }, {
    "fullUrl": "https://madie.cms.gov/Coverage/2ef20632-dfed-420b-b8ce-d2811e498849",
    "resource": {
      "resourceType": "Coverage",
      "id": "2ef20632-dfed-420b-b8ce-d2811e498849",
      "status": "active",
      "subscriberId": "523435",
      "beneficiary": {
        "reference": "Patient/c1ee2b07-f5a7-451c-8bc5-cb97b1cbcca2"
      },
      "relationship": {
        "coding": [ {
          "system": "http://terminology.hl7.org/CodeSystem/subscriber-relationship",
          "code": "self"
        } ]
      },
      "period": {
        "start": "1976-09-26T08:00:00.000+00:00"
      },
      "payor": [ {
        "reference": "Organization/0db679ad-ca3b-4a8a-a6f3-fd18076a9d85"
      } ]
    },
    "request": {
      "method": "PUT",
      "url": "Coverage/2ef20632-dfed-420b-b8ce-d2811e498849"
    }
  }, {
    "fullUrl": "https://madie.cms.gov/Condition/67f87cdd-fbf8-4127-a729-504d198b07ad",
    "resource": {
      "resourceType": "Condition",
      "id": "67f87cdd-fbf8-4127-a729-504d198b07ad",
      "meta": {
        "profile": [ "http://hl7.org/fhir/us/qicore/StructureDefinition/qicore-condition-encounter-diagnosis" ]
      },
      "clinicalStatus": {
        "coding": [ {
          "system": "http://terminology.hl7.org/CodeSystem/condition-clinical",
          "code": "active"
        } ]
      },
      "verificationStatus": {
        "coding": [ {
          "system": "http://terminology.hl7.org/CodeSystem/condition-ver-status",
          "code": "confirmed"
        } ]
      },
      "category": [ {
        "coding": [ {
          "system": "http://terminology.hl7.org/CodeSystem/condition-category",
          "code": "encounter-diagnosis",
          "display": "Encounter Diagnosis"
        } ]
      } ],
      "code": {
        "coding": [ {
          "system": "http://snomed.info/sct",
          "version": "2020-09",
          "code": "111297002",
          "display": "Nonparalytic stroke (disorder)",
          "userSelected": true
        } ]
      },
      "subject": {
        "reference": "Patient/c1ee2b07-f5a7-451c-8bc5-cb97b1cbcca2"
      },
      "recordedDate": "2026-07-28T08:00:00.000+00:00"
    },
    "request": {
      "method": "PUT",
      "url": "Condition/67f87cdd-fbf8-4127-a729-504d198b07ad"
    }
  }, {
    "fullUrl": "https://madie.cms.gov/Organization/0db679ad-ca3b-4a8a-a6f3-fd18076a9d85",
    "resource": {
      "resourceType": "Organization",
      "id": "0db679ad-ca3b-4a8a-a6f3-fd18076a9d85",
      "meta": {
        "profile": [ "http://hl7.org/fhir/us/qicore/StructureDefinition/qicore-organization" ]
      },
      "identifier": [ {
        "use": "temp",
        "system": "urn:oid:2.16.840.1.113883.4.4",
        "value": "21-3259825"
      } ],
      "active": true,
      "type": [ {
        "coding": [ {
          "system": "http://terminology.hl7.org/CodeSystem/organization-type",
          "code": "pay",
          "display": "Payer"
        } ]
      } ],
      "name": "Blue Cross Blue Shield of Texas",
      "telecom": [ {
        "system": "phone",
        "value": "(+1) 972-766-6900"
      } ],
      "address": [ {
        "use": "billing",
        "type": "postal",
        "line": [ "P.O. Box 660044" ],
        "city": "Dallas",
        "state": "TX",
        "postalCode": "75266-0044",
        "country": "USA"
      } ]
    },
    "request": {
      "method": "PUT",
      "url": "Organization/0db679ad-ca3b-4a8a-a6f3-fd18076a9d85"
    }
  }, {
    "fullUrl": "https://madie.cms.gov/MeasureReport/77eca31b-be70-46c6-a286-58dfe4c88d70",
    "resource": {
      "resourceType": "MeasureReport",
      "id": "77eca31b-be70-46c6-a286-58dfe4c88d70",
      "meta": {
        "profile": [ "http://hl7.org/fhir/us/cqfmeasures/StructureDefinition/test-case-cqfm" ]
      },
      "contained": [ {
        "resourceType": "Parameters",
        "id": "4ba09125-f82c-4abf-8c79-49b004a10eb5-parameters",
        "parameter": [ {
          "name": "subject",
          "valueString": "c1ee2b07-f5a7-451c-8bc5-cb97b1cbcca2"
        } ]
      } ],
      "extension": [ {
        "url": "http://hl7.org/fhir/StructureDefinition/cqf-inputParameters",
        "valueReference": {
          "reference": "#4ba09125-f82c-4abf-8c79-49b004a10eb5-parameters"
        }
      }, {
        "url": "http://hl7.org/fhir/us/cqfmeasures/StructureDefinition/cqfm-testCaseDescription",
        "valueMarkdown": "ED visit AND antithrombotic is not ordered due to medical reason but > 1 day after start of ED visit,  global.\"Hospitalization\" =(Ed+IP)\n"
      } ],
      "modifierExtension": [ {
        "url": "http://hl7.org/fhir/us/cqfmeasures/StructureDefinition/cqfm-isTestCase",
        "valueBoolean": true
      } ],
      "status": "complete",
      "type": "individual",
      "measure": "https://madie.cms.gov/Measure/CMS72FHIRSTKAntithromboticDay2",
      "period": {
        "start": "2026-01-01",
        "end": "2026-12-31"
      },
      "group": [ {
        "id": "Group_1",
        "population": [ {
          "id": "InitialPopulation_1",
          "code": {
            "coding": [ {
              "system": "http://terminology.hl7.org/CodeSystem/measure-population",
              "code": "initial-population",
              "display": "Initial Population"
            } ]
          },
          "count": 1
        }, {
          "id": "Denominator_1",
          "code": {
            "coding": [ {
              "system": "http://terminology.hl7.org/CodeSystem/measure-population",
              "code": "denominator",
              "display": "Denominator"
            } ]
          },
          "count": 1
        }, {
          "id": "DenominatorExclusion_1",
          "code": {
            "coding": [ {
              "system": "http://terminology.hl7.org/CodeSystem/measure-population",
              "code": "denominator-exclusion",
              "display": "Denominator Exclusion"
            } ]
          },
          "count": 0
        }, {
          "id": "Numerator_1",
          "code": {
            "coding": [ {
              "system": "http://terminology.hl7.org/CodeSystem/measure-population",
              "code": "numerator",
              "display": "Numerator"
            } ]
          },
          "count": 0
        }, {
          "id": "DenominatorException_1",
          "code": {
            "coding": [ {
              "system": "http://terminology.hl7.org/CodeSystem/measure-population",
              "code": "denominator-exception",
              "display": "Denominator Exception"
            } ]
          },
          "count": 0
        } ],
        "measureScore": {
          "value": 0.0
        }
      } ],
      "evaluatedResource": [ {
        "reference": "Patient/c1ee2b07-f5a7-451c-8bc5-cb97b1cbcca2"
      }, {
        "reference": "Encounter/9663f173-bc3a-4186-9afe-38b19aec3ac6"
      }, {
        "reference": "Encounter/97c4ac18-56c8-4f91-b5bc-bd2366feb6eb"
      }, {
        "reference": "Claim/5ca62962b8484628b8de1ec5"
      }, {
        "reference": "MedicationRequest/a28823b9-457c-45d1-ae1f-9d889c04af0e"
      }, {
        "reference": "Coverage/2ef20632-dfed-420b-b8ce-d2811e498849"
      }, {
        "reference": "Condition/67f87cdd-fbf8-4127-a729-504d198b07ad"
      }, {
        "reference": "Organization/0db679ad-ca3b-4a8a-a6f3-fd18076a9d85"
      } ]
    },
    "request": {
      "method": "PUT",
      "url": "MeasureReport/77eca31b-be70-46c6-a286-58dfe4c88d70"
    }
  } ]
}