{
  "resourceType": "Bundle",
  "id": "627a80a15a0d870123c7253e",
  "type": "transaction",
  "entry": [ {
    "fullUrl": "https://madie.cms.gov/Patient/2adae583-4f70-4492-add5-c56cd38f5843",
    "resource": {
      "resourceType": "Patient",
      "id": "2adae583-4f70-4492-add5-c56cd38f5843",
      "meta": {
        "profile": [ "http://hl7.org/fhir/us/qicore/StructureDefinition/qicore-patient" ]
      },
      "text": {
        "status": "generated",
        "div": "<div xmlns=\"http://www.w3.org/1999/xhtml\"><div class=\"hapiHeaderText\">Opioid exactly 12 hrs before Naloxone <b>NUMERPASS </b></div><table class=\"hapiPropertyTable\"><tbody><tr><td>Date of birth</td><td><span>14 November 1980</span></td></tr></tbody></table></div>"
      },
      "identifier": [ {
        "type": {
          "coding": [ {
            "system": "http://terminology.hl7.org/CodeSystem/v2-0203",
            "code": "MR"
          } ]
        },
        "system": "https://bonnie-fhir.healthit.gov/",
        "value": "627a80a15a0d870123c7253e"
      } ],
      "active": true,
      "name": [ {
        "use": "usual",
        "family": "NUMERPass",
        "given": [ "OpioidExactly12hrsBeforeAntagonist" ]
      } ],
      "gender": "female",
      "birthDate": "1981-11-14"
    },
    "request": {
      "method": "PUT",
      "url": "Patient/2adae583-4f70-4492-add5-c56cd38f5843"
    }
  }, {
    "fullUrl": "https://madie.cms.gov/Encounter/55887f88-8e29-48ea-9ec7-33443282b902",
    "resource": {
      "resourceType": "Encounter",
      "id": "55887f88-8e29-48ea-9ec7-33443282b902",
      "meta": {
        "profile": [ "http://hl7.org/fhir/us/qicore/StructureDefinition/qicore-encounter" ]
      },
      "status": "finished",
      "class": {
        "system": "http://terminology.hl7.org/CodeSystem/v3-ActCode",
        "code": "IMP",
        "display": "inpatient encounter"
      },
      "type": [ {
        "coding": [ {
          "system": "http://snomed.info/sct",
          "code": "183452005",
          "display": "Inpatient encounter"
        } ]
      } ],
      "subject": {
        "reference": "Patient/2adae583-4f70-4492-add5-c56cd38f5843"
      },
      "period": {
        "start": "2026-04-07T08:00:00.000+00:00",
        "end": "2026-04-09T08:15:00.000+00:00"
      },
      "location": [ {
        "location": {
          "reference": "Location/812b67a5-c6f5-485f-8dfa-3a088406580d"
        },
        "period": {
          "start": "2026-04-07T06:00:00.000+00:00",
          "end": "2026-04-07T07:59:00.000+00:00"
        }
      } ]
    },
    "request": {
      "method": "PUT",
      "url": "Encounter/55887f88-8e29-48ea-9ec7-33443282b902"
    }
  }, {
    "fullUrl": "https://madie.cms.gov/MedicationAdministration/94eedee7-c1b3-45de-b793-9976628c7009",
    "resource": {
      "resourceType": "MedicationAdministration",
      "id": "94eedee7-c1b3-45de-b793-9976628c7009",
      "meta": {
        "profile": [ "http://hl7.org/fhir/us/qicore/StructureDefinition/qicore-medicationadministration" ]
      },
      "status": "completed",
      "medicationCodeableConcept": {
        "coding": [ {
          "system": "http://www.nlm.nih.gov/research/umls/rxnorm",
          "code": "1010600",
          "display": "Oxycodone Hydrochloride"
        } ]
      },
      "subject": {
        "reference": "Patient/2adae583-4f70-4492-add5-c56cd38f5843"
      },
      "effectivePeriod": {
        "start": "2026-04-07T07:00:00.000+00:00",
        "end": "2026-04-07T07:15:00.000+00:00"
      }
    },
    "request": {
      "method": "PUT",
      "url": "MedicationAdministration/94eedee7-c1b3-45de-b793-9976628c7009"
    }
  }, {
    "fullUrl": "https://madie.cms.gov/MedicationAdministration/7b0e8b2f-7ad2-4925-8797-a2441d935a46",
    "resource": {
      "resourceType": "MedicationAdministration",
      "id": "7b0e8b2f-7ad2-4925-8797-a2441d935a46",
      "meta": {
        "profile": [ "http://hl7.org/fhir/us/qicore/StructureDefinition/qicore-medicationadministration" ]
      },
      "status": "completed",
      "medicationCodeableConcept": {
        "coding": [ {
          "system": "http://www.nlm.nih.gov/research/umls/rxnorm",
          "code": "1010600",
          "display": "Oxycodone Hydrochloride"
        } ]
      },
      "subject": {
        "reference": "Patient/2adae583-4f70-4492-add5-c56cd38f5843"
      },
      "effectivePeriod": {
        "start": "2026-04-07T08:00:00.000+00:00",
        "end": "2026-04-07T08:15:00.000+00:00"
      }
    },
    "request": {
      "method": "PUT",
      "url": "MedicationAdministration/7b0e8b2f-7ad2-4925-8797-a2441d935a46"
    }
  }, {
    "fullUrl": "https://madie.cms.gov/Location/812b67a5-c6f5-485f-8dfa-3a088406580d",
    "resource": {
      "resourceType": "Location",
      "id": "812b67a5-c6f5-485f-8dfa-3a088406580d",
      "meta": {
        "profile": [ "http://hl7.org/fhir/us/qicore/StructureDefinition/qicore-location" ]
      },
      "identifier": [ {
        "use": "usual",
        "system": "http://exampleoflocation.com",
        "value": "B1-S.F2"
      } ],
      "name": "Medical Surgical East, first floor",
      "type": [ {
        "coding": [ {
          "system": "https://www.cdc.gov/nhsn/cdaportal/terminology/codesystem/hsloc.html",
          "code": "1096-7",
          "display": "Operating Room/Suite"
        } ]
      } ]
    },
    "request": {
      "method": "PUT",
      "url": "Location/812b67a5-c6f5-485f-8dfa-3a088406580d"
    }
  }, {
    "fullUrl": "https://madie.cms.gov/MeasureReport/69992dd9-01a7-4339-a5cc-9159645a2a06",
    "resource": {
      "resourceType": "MeasureReport",
      "id": "69992dd9-01a7-4339-a5cc-9159645a2a06",
      "meta": {
        "profile": [ "http://hl7.org/fhir/us/cqfmeasures/StructureDefinition/test-case-cqfm" ]
      },
      "contained": [ {
        "resourceType": "Parameters",
        "id": "7d336ece-9eb5-4d02-9859-afd9dae22687-parameters",
        "parameter": [ {
          "name": "subject",
          "valueString": "2adae583-4f70-4492-add5-c56cd38f5843"
        } ]
      } ],
      "extension": [ {
        "url": "http://hl7.org/fhir/StructureDefinition/cqf-inputParameters",
        "valueReference": {
          "reference": "#7d336ece-9eb5-4d02-9859-afd9dae22687-parameters"
        }
      }, {
        "url": "http://hl7.org/fhir/us/cqfmeasures/StructureDefinition/cqfm-testCaseDescription",
        "valueMarkdown": "Inpatient encounter. Opioid given during the OR. Opioid given outside of OR. Meets IPP - only needs one occurrence of opioid outside of OR to count, even if other opioid events found in OR."
      } ],
      "modifierExtension": [ {
        "url": "http://hl7.org/fhir/us/cqfmeasures/StructureDefinition/cqfm-isTestCase",
        "valueBoolean": true
      } ],
      "status": "complete",
      "type": "individual",
      "measure": "https://madie.cms.gov/Measure/CMS819FHIRHHORAE",
      "period": {
        "start": "2026-01-01",
        "end": "2026-12-31"
      },
      "group": [ {
        "id": "Group_1",
        "population": [ {
          "id": "InitialPopulation_1",
          "code": {
            "coding": [ {
              "system": "http://terminology.hl7.org/CodeSystem/measure-population",
              "code": "initial-population",
              "display": "Initial Population"
            } ]
          },
          "count": 1
        }, {
          "id": "Denominator_1",
          "code": {
            "coding": [ {
              "system": "http://terminology.hl7.org/CodeSystem/measure-population",
              "code": "denominator",
              "display": "Denominator"
            } ]
          },
          "count": 1
        }, {
          "id": "Numerator_1",
          "code": {
            "coding": [ {
              "system": "http://terminology.hl7.org/CodeSystem/measure-population",
              "code": "numerator",
              "display": "Numerator"
            } ]
          },
          "count": 0
        } ],
        "measureScore": {
          "value": 0.0
        }
      } ],
      "evaluatedResource": [ {
        "reference": "Patient/2adae583-4f70-4492-add5-c56cd38f5843"
      }, {
        "reference": "Encounter/55887f88-8e29-48ea-9ec7-33443282b902"
      }, {
        "reference": "MedicationAdministration/94eedee7-c1b3-45de-b793-9976628c7009"
      }, {
        "reference": "MedicationAdministration/7b0e8b2f-7ad2-4925-8797-a2441d935a46"
      }, {
        "reference": "Location/812b67a5-c6f5-485f-8dfa-3a088406580d"
      } ]
    },
    "request": {
      "method": "PUT",
      "url": "MeasureReport/69992dd9-01a7-4339-a5cc-9159645a2a06"
    }
  } ]
}