{
  "resourceType": "Bundle",
  "id": "8226s0a15a66f70123c335f5",
  "type": "transaction",
  "entry": [ {
    "fullUrl": "https://madie.cms.gov/Patient/7b8efa47-77e8-4280-874c-38b2a632d6d4",
    "resource": {
      "resourceType": "Patient",
      "id": "7b8efa47-77e8-4280-874c-38b2a632d6d4",
      "meta": {
        "profile": [ "http://hl7.org/fhir/us/qicore/StructureDefinition/qicore-patient" ]
      },
      "extension": [ {
        "url": "http://hl7.org/fhir/us/core/StructureDefinition/us-core-race",
        "extension": [ {
          "url": "ombCategory",
          "valueCoding": {
            "system": "urn:oid:2.16.840.1.113883.6.238",
            "code": "2028-9",
            "display": "Asian",
            "userSelected": true
          }
        }, {
          "url": "text",
          "valueString": "Asian"
        } ]
      }, {
        "url": "http://hl7.org/fhir/us/core/StructureDefinition/us-core-ethnicity",
        "extension": [ {
          "url": "ombCategory",
          "valueCoding": {
            "system": "urn:oid:2.16.840.1.113883.6.238",
            "code": "2186-5",
            "display": "Not Hispanic or Latino",
            "userSelected": true
          }
        }, {
          "url": "text",
          "valueString": "Not Hispanic or Latino"
        } ]
      } ],
      "identifier": [ {
        "system": "http://hospital.smarthealthit.org",
        "value": "999999999"
      } ],
      "name": [ {
        "family": "IPPFail",
        "given": [ "IPGTOneHrAfterObservation" ]
      } ],
      "gender": "female",
      "birthDate": "2006-07-31"
    },
    "request": {
      "method": "PUT",
      "url": "Patient/7b8efa47-77e8-4280-874c-38b2a632d6d4"
    }
  }, {
    "fullUrl": "https://madie.cms.gov/Encounter/4b4c021e-7921-4c71-9085-3ed07065e68b",
    "resource": {
      "resourceType": "Encounter",
      "id": "4b4c021e-7921-4c71-9085-3ed07065e68b",
      "meta": {
        "profile": [ "http://hl7.org/fhir/us/qicore/StructureDefinition/qicore-encounter" ]
      },
      "status": "finished",
      "class": {
        "system": "http://terminology.hl7.org/CodeSystem/v3-ActCode",
        "code": "IMP",
        "display": "inpatient encounter"
      },
      "type": [ {
        "coding": [ {
          "system": "http://snomed.info/sct",
          "code": "183452005"
        } ]
      } ],
      "subject": {
        "reference": "Patient/7b8efa47-77e8-4280-874c-38b2a632d6d4"
      },
      "period": {
        "start": "2026-11-02T09:30:00.000+00:00",
        "end": "2026-11-05T08:15:00.000+00:00"
      }
    },
    "request": {
      "method": "PUT",
      "url": "Encounter/4b4c021e-7921-4c71-9085-3ed07065e68b"
    }
  }, {
    "fullUrl": "https://madie.cms.gov/Encounter/278c08c4-fd13-4f31-ac77-1eb39a40612f",
    "resource": {
      "resourceType": "Encounter",
      "id": "278c08c4-fd13-4f31-ac77-1eb39a40612f",
      "meta": {
        "profile": [ "http://hl7.org/fhir/us/qicore/StructureDefinition/qicore-encounter" ]
      },
      "status": "finished",
      "class": {
        "system": "http://terminology.hl7.org/CodeSystem/v3-ActCode",
        "code": "OBSENC",
        "display": "observation encounter"
      },
      "type": [ {
        "coding": [ {
          "system": "http://snomed.info/sct",
          "code": "448951000124107",
          "display": "Observation Services"
        } ]
      } ],
      "subject": {
        "reference": "Patient/7b8efa47-77e8-4280-874c-38b2a632d6d4"
      },
      "period": {
        "start": "2026-10-30T11:00:00.000+00:00",
        "end": "2026-11-02T08:15:00.000+00:00"
      }
    },
    "request": {
      "method": "PUT",
      "url": "Encounter/278c08c4-fd13-4f31-ac77-1eb39a40612f"
    }
  }, {
    "fullUrl": "https://madie.cms.gov/Encounter/6eaa4b77-04d0-459c-9ced-815240b23ecd",
    "resource": {
      "resourceType": "Encounter",
      "id": "6eaa4b77-04d0-459c-9ced-815240b23ecd",
      "meta": {
        "profile": [ "http://hl7.org/fhir/us/qicore/StructureDefinition/qicore-encounter" ]
      },
      "status": "finished",
      "class": {
        "system": "http://terminology.hl7.org/CodeSystem/v3-ActCode",
        "code": "EMER",
        "display": "emergency"
      },
      "type": [ {
        "coding": [ {
          "system": "http://snomed.info/sct",
          "code": "4525004",
          "display": "Emergency Department Visit"
        } ]
      } ],
      "subject": {
        "reference": "Patient/7b8efa47-77e8-4280-874c-38b2a632d6d4"
      },
      "period": {
        "start": "2026-10-30T08:00:00.000+00:00",
        "end": "2026-10-30T10:15:00.000+00:00"
      }
    },
    "request": {
      "method": "PUT",
      "url": "Encounter/6eaa4b77-04d0-459c-9ced-815240b23ecd"
    }
  }, {
    "fullUrl": "https://madie.cms.gov/MedicationAdministration/e38b58e5-fc56-4548-9854-e496f74a039c",
    "resource": {
      "resourceType": "MedicationAdministration",
      "id": "e38b58e5-fc56-4548-9854-e496f74a039c",
      "meta": {
        "profile": [ "http://hl7.org/fhir/us/qicore/StructureDefinition/qicore-medicationadministration" ]
      },
      "status": "completed",
      "medicationCodeableConcept": {
        "coding": [ {
          "system": "http://www.nlm.nih.gov/research/umls/rxnorm",
          "code": "1049543",
          "display": "Opioids, All"
        } ]
      },
      "subject": {
        "reference": "Patient/7b8efa47-77e8-4280-874c-38b2a632d6d4"
      },
      "effectivePeriod": {
        "start": "2026-10-30T11:00:00.000+00:00",
        "end": "2026-10-31T08:15:00.000+00:00"
      }
    },
    "request": {
      "method": "PUT",
      "url": "MedicationAdministration/e38b58e5-fc56-4548-9854-e496f74a039c"
    }
  }, {
    "fullUrl": "https://madie.cms.gov/Coverage/66655afb-ac2b-4f2d-8efc-e68c584f9168",
    "resource": {
      "resourceType": "Coverage",
      "id": "66655afb-ac2b-4f2d-8efc-e68c584f9168",
      "meta": {
        "profile": [ "http://hl7.org/fhir/us/qicore/StructureDefinition/qicore-coverage" ]
      },
      "status": "active",
      "subscriberId": "523435",
      "beneficiary": {
        "reference": "Patient/7b8efa47-77e8-4280-874c-38b2a632d6d4"
      },
      "relationship": {
        "coding": [ {
          "system": "http://terminology.hl7.org/CodeSystem/subscriber-relationship",
          "code": "self"
        } ]
      },
      "payor": [ {
        "reference": "Organization/6aa89f54-d4b6-4d18-98e3-819d5dc6d4c8"
      } ]
    },
    "request": {
      "method": "PUT",
      "url": "Coverage/66655afb-ac2b-4f2d-8efc-e68c584f9168"
    }
  }, {
    "fullUrl": "https://madie.cms.gov/Organization/6aa89f54-d4b6-4d18-98e3-819d5dc6d4c8",
    "resource": {
      "resourceType": "Organization",
      "id": "6aa89f54-d4b6-4d18-98e3-819d5dc6d4c8",
      "meta": {
        "profile": [ "http://hl7.org/fhir/us/qicore/StructureDefinition/qicore-organization" ]
      },
      "identifier": [ {
        "use": "temp",
        "system": "urn:oid:2.16.840.1.113883.4.4",
        "value": "21-3259825"
      } ],
      "active": true,
      "type": [ {
        "coding": [ {
          "system": "http://terminology.hl7.org/CodeSystem/organization-type",
          "code": "pay",
          "display": "Payer"
        } ]
      } ],
      "name": "Blue Cross Blue Shield of Texas",
      "telecom": [ {
        "system": "phone",
        "value": "(+1) 972-766-6900"
      } ],
      "address": [ {
        "use": "billing",
        "type": "postal",
        "line": [ "P.O. Box 660044" ],
        "city": "Dallas",
        "state": "TX",
        "postalCode": "75266-0044",
        "country": "USA"
      } ]
    },
    "request": {
      "method": "PUT",
      "url": "Organization/6aa89f54-d4b6-4d18-98e3-819d5dc6d4c8"
    }
  }, {
    "fullUrl": "https://madie.cms.gov/MeasureReport/59baed9c-5479-437d-8712-6405c5bb53e6",
    "resource": {
      "resourceType": "MeasureReport",
      "id": "59baed9c-5479-437d-8712-6405c5bb53e6",
      "meta": {
        "profile": [ "http://hl7.org/fhir/us/cqfmeasures/StructureDefinition/test-case-cqfm" ]
      },
      "contained": [ {
        "resourceType": "Parameters",
        "id": "9c738cd2-d0fe-465c-8e19-1713f320a0fe-parameters",
        "parameter": [ {
          "name": "subject",
          "valueString": "7b8efa47-77e8-4280-874c-38b2a632d6d4"
        } ]
      } ],
      "extension": [ {
        "url": "http://hl7.org/fhir/StructureDefinition/cqf-inputParameters",
        "valueReference": {
          "reference": "#9c738cd2-d0fe-465c-8e19-1713f320a0fe-parameters"
        }
      }, {
        "url": "http://hl7.org/fhir/us/cqfmeasures/StructureDefinition/cqfm-testCaseDescription",
        "valueMarkdown": "Encounter-1 IP 11/02 0930 - 11/05 0815, Encounter-2 Observation 10/30 1100 - 11/02 0815, Encounter-3 ED 10/30 0800 - 10/30 1015, MedAdmin-1 10/30 1100 - 10/31 0815, IP was >1 hour after end of Observation stay"
      } ],
      "modifierExtension": [ {
        "url": "http://hl7.org/fhir/us/cqfmeasures/StructureDefinition/cqfm-isTestCase",
        "valueBoolean": true
      } ],
      "status": "complete",
      "type": "individual",
      "measure": "https://madie.cms.gov/Measure/CMS819FHIRHHORAE",
      "period": {
        "start": "2026-01-01",
        "end": "2026-12-31"
      },
      "group": [ {
        "id": "Group_1",
        "population": [ {
          "id": "InitialPopulation_1",
          "code": {
            "coding": [ {
              "system": "http://terminology.hl7.org/CodeSystem/measure-population",
              "code": "initial-population",
              "display": "Initial Population"
            } ]
          },
          "count": 0
        }, {
          "id": "Denominator_1",
          "code": {
            "coding": [ {
              "system": "http://terminology.hl7.org/CodeSystem/measure-population",
              "code": "denominator",
              "display": "Denominator"
            } ]
          },
          "count": 0
        }, {
          "id": "Numerator_1",
          "code": {
            "coding": [ {
              "system": "http://terminology.hl7.org/CodeSystem/measure-population",
              "code": "numerator",
              "display": "Numerator"
            } ]
          },
          "count": 0
        } ],
        "measureScore": {
          "value": 0.0
        }
      } ],
      "evaluatedResource": [ {
        "reference": "Patient/7b8efa47-77e8-4280-874c-38b2a632d6d4"
      }, {
        "reference": "Encounter/4b4c021e-7921-4c71-9085-3ed07065e68b"
      }, {
        "reference": "Encounter/278c08c4-fd13-4f31-ac77-1eb39a40612f"
      }, {
        "reference": "Encounter/6eaa4b77-04d0-459c-9ced-815240b23ecd"
      }, {
        "reference": "MedicationAdministration/e38b58e5-fc56-4548-9854-e496f74a039c"
      }, {
        "reference": "Coverage/66655afb-ac2b-4f2d-8efc-e68c584f9168"
      }, {
        "reference": "Organization/6aa89f54-d4b6-4d18-98e3-819d5dc6d4c8"
      } ]
    },
    "request": {
      "method": "PUT",
      "url": "MeasureReport/59baed9c-5479-437d-8712-6405c5bb53e6"
    }
  } ]
}