{
  "resourceType": "Bundle",
  "id": "NUMPass-70-on-Jan1-1",
  "type": "transaction",
  "entry": [ {
    "fullUrl": "https://madie.cms.gov/Patient/34207c0d-b3bf-4a7d-b83a-f1131881efbe",
    "resource": {
      "resourceType": "Patient",
      "id": "34207c0d-b3bf-4a7d-b83a-f1131881efbe",
      "meta": {
        "profile": [ "http://hl7.org/fhir/us/qicore/StructureDefinition/qicore-patient" ]
      },
      "extension": [ {
        "url": "http://hl7.org/fhir/us/core/StructureDefinition/us-core-race",
        "extension": [ {
          "url": "ombCategory",
          "valueCoding": {
            "system": "urn:oid:2.16.840.1.113883.6.238",
            "code": "2054-5",
            "display": "Black or African American"
          }
        }, {
          "url": "text",
          "valueString": "Black or African American"
        } ]
      }, {
        "url": "http://hl7.org/fhir/us/core/StructureDefinition/us-core-ethnicity",
        "extension": [ {
          "url": "ombCategory",
          "valueCoding": {
            "system": "urn:oid:2.16.840.1.113883.6.238",
            "code": "2186-5",
            "display": "Not Hispanic or Latino"
          }
        }, {
          "url": "text",
          "valueString": "Not Hispanic or Latino"
        } ]
      } ],
      "identifier": [ {
        "system": "http://hospital.smarthealthit.org",
        "value": "999999995"
      } ],
      "name": [ {
        "family": "NUMPass",
        "given": [ "NUMPass-70-on-Jan1-1" ]
      } ],
      "gender": "male",
      "birthDate": "1901-01-01"
    },
    "request": {
      "method": "PUT",
      "url": "Patient/34207c0d-b3bf-4a7d-b83a-f1131881efbe"
    }
  }, {
    "fullUrl": "https://madie.cms.gov/Encounter/3cbb7d28-3dd0-4b2e-bdbb-8ed92e98d59b",
    "resource": {
      "resourceType": "Encounter",
      "id": "3cbb7d28-3dd0-4b2e-bdbb-8ed92e98d59b",
      "meta": {
        "profile": [ "http://hl7.org/fhir/us/qicore/StructureDefinition/qicore-encounter" ]
      },
      "status": "finished",
      "class": {
        "system": "http://terminology.hl7.org/CodeSystem/v3-ActCode",
        "code": "AMB",
        "display": "ambulatory"
      },
      "type": [ {
        "coding": [ {
          "system": "http://snomed.info/sct",
          "code": "11429006"
        } ]
      } ],
      "subject": {
        "reference": "Patient/34207c0d-b3bf-4a7d-b83a-f1131881efbe"
      },
      "period": {
        "start": "2026-01-04T08:00:00.000+00:00",
        "end": "2026-01-04T08:00:00.000+00:00"
      }
    },
    "request": {
      "method": "PUT",
      "url": "Encounter/3cbb7d28-3dd0-4b2e-bdbb-8ed92e98d59b"
    }
  }, {
    "fullUrl": "https://madie.cms.gov/Encounter/ccb34f53-0d62-4d1d-a948-e3fa12b792cd",
    "resource": {
      "resourceType": "Encounter",
      "id": "ccb34f53-0d62-4d1d-a948-e3fa12b792cd",
      "meta": {
        "profile": [ "http://hl7.org/fhir/us/qicore/StructureDefinition/qicore-encounter" ]
      },
      "status": "finished",
      "class": {
        "system": "http://terminology.hl7.org/CodeSystem/v3-ActCode",
        "code": "AMB",
        "display": "ambulatory"
      },
      "type": [ {
        "coding": [ {
          "system": "http://www.ama-assn.org/go/cpt",
          "code": "99203",
          "display": "Office or other outpatient visit for the evaluation and management of a new patient, which requires a medically appropriate history and/or examination and low level of medical decision making. When using time for code selection, 30-44 minutes of total time is spent on the date of the encounter."
        } ]
      } ],
      "subject": {
        "reference": "Patient/34207c0d-b3bf-4a7d-b83a-f1131881efbe"
      },
      "period": {
        "start": "2026-01-04T08:00:00.000+00:00",
        "end": "2026-01-04T08:00:00.000+00:00"
      }
    },
    "request": {
      "method": "PUT",
      "url": "Encounter/ccb34f53-0d62-4d1d-a948-e3fa12b792cd"
    }
  }, {
    "fullUrl": "https://madie.cms.gov/Observation/073a968a-cf40-4280-8b8e-2759f8daf09b",
    "resource": {
      "resourceType": "Observation",
      "id": "073a968a-cf40-4280-8b8e-2759f8daf09b",
      "meta": {
        "profile": [ "http://hl7.org/fhir/us/core/StructureDefinition/us-core-bmi" ]
      },
      "status": "final",
      "category": [ {
        "coding": [ {
          "system": "http://terminology.hl7.org/CodeSystem/observation-category",
          "code": "vital-signs",
          "display": "Vital Signs"
        } ]
      } ],
      "code": {
        "coding": [ {
          "system": "http://loinc.org",
          "code": "39156-5",
          "display": "Body mass index (BMI) [Ratio]"
        } ]
      },
      "subject": {
        "reference": "Patient/34207c0d-b3bf-4a7d-b83a-f1131881efbe"
      },
      "effectiveDateTime": "2026-01-04T08:00:00.000+00:00",
      "issued": "2026-01-04T08:00:00.000+00:00",
      "valueQuantity": {
        "value": 30,
        "unit": "kg/m2",
        "system": "http://unitsofmeasure.org",
        "code": "kg/m2"
      }
    },
    "request": {
      "method": "PUT",
      "url": "Observation/073a968a-cf40-4280-8b8e-2759f8daf09b"
    }
  }, {
    "fullUrl": "https://madie.cms.gov/Observation/d653f5f8-337f-48ed-9590-06f20de5f67e",
    "resource": {
      "resourceType": "Observation",
      "id": "d653f5f8-337f-48ed-9590-06f20de5f67e",
      "meta": {
        "profile": [ "http://hl7.org/fhir/us/core/StructureDefinition/us-core-observation-lab" ]
      },
      "status": "final",
      "category": [ {
        "coding": [ {
          "system": "http://terminology.hl7.org/CodeSystem/observation-category",
          "code": "laboratory",
          "display": "Laboratory"
        } ]
      } ],
      "code": {
        "coding": [ {
          "system": "http://loinc.org",
          "code": "10450-5",
          "display": "Glucose [Mass/volume] in Serum or Plasma --10 hours fasting"
        } ]
      },
      "subject": {
        "reference": "Patient/34207c0d-b3bf-4a7d-b83a-f1131881efbe"
      },
      "effectiveDateTime": "2026-01-04T08:00:00.000+00:00",
      "issued": "2026-01-04T08:00:00.000+00:00"
    },
    "request": {
      "method": "PUT",
      "url": "Observation/d653f5f8-337f-48ed-9590-06f20de5f67e"
    }
  }, {
    "fullUrl": "https://madie.cms.gov/Observation/d653f5f8-337f-48ed-9590-06f20de5f67e-2",
    "resource": {
      "resourceType": "Observation",
      "id": "d653f5f8-337f-48ed-9590-06f20de5f67e-2",
      "meta": {
        "profile": [ "http://hl7.org/fhir/us/qicore/StructureDefinition/qicore-observation-lab" ]
      },
      "status": "final",
      "category": [ {
        "coding": [ {
          "system": "http://terminology.hl7.org/CodeSystem/observation-category",
          "code": "laboratory",
          "display": "Laboratory"
        } ]
      } ],
      "code": {
        "coding": [ {
          "system": "http://loinc.org",
          "code": "10450-5",
          "display": "Glucose [Mass/volume] in Serum or Plasma --10 hours fasting"
        } ]
      },
      "subject": {
        "reference": "Patient/34207c0d-b3bf-4a7d-b83a-f1131881efbe"
      },
      "effectiveDateTime": "2026-01-04T10:00:00.000+00:00",
      "issued": "2026-01-04T10:00:00.000+00:00"
    },
    "request": {
      "method": "PUT",
      "url": "Observation/d653f5f8-337f-48ed-9590-06f20de5f67e-2"
    }
  }, {
    "fullUrl": "https://madie.cms.gov/MeasureReport/984259e1-715b-448b-99d6-220597003808",
    "resource": {
      "resourceType": "MeasureReport",
      "id": "984259e1-715b-448b-99d6-220597003808",
      "meta": {
        "profile": [ "http://hl7.org/fhir/us/cqfmeasures/StructureDefinition/test-case-cqfm" ]
      },
      "contained": [ {
        "resourceType": "Parameters",
        "id": "ed880e68-7073-460a-94b5-7c8929d6d973-parameters",
        "parameter": [ {
          "name": "subject",
          "valueString": "34207c0d-b3bf-4a7d-b83a-f1131881efbe"
        } ]
      } ],
      "extension": [ {
        "url": "http://hl7.org/fhir/StructureDefinition/cqf-inputParameters",
        "valueReference": {
          "reference": "#ed880e68-7073-460a-94b5-7c8929d6d973-parameters"
        }
      }, {
        "url": "http://hl7.org/fhir/us/cqfmeasures/StructureDefinition/cqfm-testCaseDescription",
        "valueMarkdown": "IPFail-2-visits-gt70yo"
      } ],
      "modifierExtension": [ {
        "url": "http://hl7.org/fhir/us/cqfmeasures/StructureDefinition/cqfm-isTestCase",
        "valueBoolean": true
      } ],
      "status": "complete",
      "type": "individual",
      "measure": "https://madie.cms.gov/Measure/CMS1154ScreeningPrediabetesFHIR",
      "period": {
        "start": "2026-01-01",
        "end": "2026-12-31"
      },
      "group": [ {
        "id": "Group_1",
        "population": [ {
          "id": "InitialPopulation_1",
          "code": {
            "coding": [ {
              "system": "http://terminology.hl7.org/CodeSystem/measure-population",
              "code": "initial-population",
              "display": "Initial Population"
            } ]
          },
          "count": 0
        }, {
          "id": "Denominator_1",
          "code": {
            "coding": [ {
              "system": "http://terminology.hl7.org/CodeSystem/measure-population",
              "code": "denominator",
              "display": "Denominator"
            } ]
          },
          "count": 0
        }, {
          "id": "DenominatorExclusion_1",
          "code": {
            "coding": [ {
              "system": "http://terminology.hl7.org/CodeSystem/measure-population",
              "code": "denominator-exclusion",
              "display": "Denominator Exclusion"
            } ]
          },
          "count": 0
        }, {
          "id": "Numerator_1",
          "code": {
            "coding": [ {
              "system": "http://terminology.hl7.org/CodeSystem/measure-population",
              "code": "numerator",
              "display": "Numerator"
            } ]
          },
          "count": 0
        } ],
        "measureScore": {
          "value": 1.0
        }
      } ],
      "evaluatedResource": [ {
        "reference": "Patient/34207c0d-b3bf-4a7d-b83a-f1131881efbe"
      }, {
        "reference": "Encounter/3cbb7d28-3dd0-4b2e-bdbb-8ed92e98d59b"
      }, {
        "reference": "Encounter/ccb34f53-0d62-4d1d-a948-e3fa12b792cd"
      }, {
        "reference": "Observation/073a968a-cf40-4280-8b8e-2759f8daf09b"
      }, {
        "reference": "Observation/d653f5f8-337f-48ed-9590-06f20de5f67e"
      }, {
        "reference": "Observation/d653f5f8-337f-48ed-9590-06f20de5f67e-2"
      } ]
    },
    "request": {
      "method": "PUT",
      "url": "MeasureReport/984259e1-715b-448b-99d6-220597003808"
    }
  } ]
}