{
  "resourceType": "Bundle",
  "id": "6179ebc6ad1a790b7af75255",
  "type": "transaction",
  "entry": [ {
    "fullUrl": "https://madie.cms.gov/Patient/2930f2ff-3263-4a82-9abe-468b39c142b0",
    "resource": {
      "resourceType": "Patient",
      "id": "2930f2ff-3263-4a82-9abe-468b39c142b0",
      "meta": {
        "profile": [ "http://hl7.org/fhir/us/qicore/StructureDefinition/qicore-patient" ]
      },
      "extension": [ {
        "url": "http://hl7.org/fhir/us/core/StructureDefinition/us-core-race",
        "extension": [ {
          "url": "ombCategory",
          "valueCoding": {
            "system": "urn:oid:2.16.840.1.113883.6.238",
            "code": "2028-9",
            "display": "Asian",
            "userSelected": true
          }
        }, {
          "url": "text",
          "valueString": "Asian"
        } ]
      }, {
        "url": "http://hl7.org/fhir/us/core/StructureDefinition/us-core-ethnicity",
        "extension": [ {
          "url": "ombCategory",
          "valueCoding": {
            "system": "urn:oid:2.16.840.1.113883.6.238",
            "code": "2135-2",
            "display": "Hispanic or Latino",
            "userSelected": true
          }
        }, {
          "url": "text",
          "valueString": "Hispanic or Latino"
        } ]
      }, {
        "url": "http://hl7.org/fhir/us/core/StructureDefinition/us-core-sex",
        "valueCode": "248152002"
      } ],
      "identifier": [ {
        "type": {
          "coding": [ {
            "system": "http://terminology.hl7.org/CodeSystem/v2-0203",
            "code": "MR"
          } ]
        },
        "system": "https://bonnie-fhir.healthit.gov/",
        "value": "6179ebc6ad1a790b7af75255"
      } ],
      "name": [ {
        "family": "DenExcl2Pass",
        "given": [ "PxExclStartsDuringEndsDuringEDrelevantDatetime" ]
      } ],
      "gender": "female",
      "birthDate": "1985-12-02"
    },
    "request": {
      "method": "PUT",
      "url": "Patient/2930f2ff-3263-4a82-9abe-468b39c142b0"
    }
  }, {
    "fullUrl": "https://madie.cms.gov/Encounter/1e315967-b04a-474c-8256-46303282d689",
    "resource": {
      "resourceType": "Encounter",
      "id": "1e315967-b04a-474c-8256-46303282d689",
      "meta": {
        "profile": [ "http://hl7.org/fhir/us/qicore/StructureDefinition/qicore-encounter" ]
      },
      "status": "finished",
      "class": {
        "system": "http://terminology.hl7.org/CodeSystem/v3-ActCode",
        "code": "EMER",
        "display": "emergency",
        "userSelected": true
      },
      "type": [ {
        "coding": [ {
          "system": "http://snomed.info/sct",
          "version": "2020-09",
          "code": "4525004",
          "display": "Emergency department patient visit (procedure)",
          "userSelected": true
        } ]
      } ],
      "subject": {
        "reference": "Patient/2930f2ff-3263-4a82-9abe-468b39c142b0"
      },
      "period": {
        "start": "2026-10-09T08:05:00.000+00:00",
        "end": "2026-10-10T07:15:00.000+00:00"
      },
      "reasonReference": [ {
        "reference": "Condition/b48f0eb3-3bcc-4ab8-b1bd-db74ebb52982"
      } ]
    },
    "request": {
      "method": "PUT",
      "url": "Encounter/1e315967-b04a-474c-8256-46303282d689"
    }
  }, {
    "fullUrl": "https://madie.cms.gov/Condition/b48f0eb3-3bcc-4ab8-b1bd-db74ebb52982",
    "resource": {
      "resourceType": "Condition",
      "id": "b48f0eb3-3bcc-4ab8-b1bd-db74ebb52982",
      "meta": {
        "profile": [ "http://hl7.org/fhir/us/qicore/StructureDefinition/qicore-condition-problems-health-concerns" ]
      },
      "clinicalStatus": {
        "coding": [ {
          "system": "http://terminology.hl7.org/CodeSystem/condition-clinical",
          "code": "active",
          "display": "active",
          "userSelected": true
        } ]
      },
      "category": [ {
        "coding": [ {
          "system": "http://terminology.hl7.org/CodeSystem/condition-category",
          "code": "problem-list-item",
          "display": "Problem List Item",
          "userSelected": true
        } ]
      } ],
      "code": {
        "coding": [ {
          "system": "http://snomed.info/sct",
          "version": "2020-09",
          "code": "401303003",
          "display": "Acute ST segment elevation myocardial infarction (disorder)",
          "userSelected": true
        } ]
      },
      "subject": {
        "reference": "Patient/2930f2ff-3263-4a82-9abe-468b39c142b0"
      },
      "onsetDateTime": "2026-10-09T08:30:00.000+00:00"
    },
    "request": {
      "method": "PUT",
      "url": "Condition/b48f0eb3-3bcc-4ab8-b1bd-db74ebb52982"
    }
  }, {
    "fullUrl": "https://madie.cms.gov/Procedure/d1cbcbb9-e9ac-40d5-a9e7-6e834c4a5e15",
    "resource": {
      "resourceType": "Procedure",
      "id": "d1cbcbb9-e9ac-40d5-a9e7-6e834c4a5e15",
      "meta": {
        "profile": [ "http://hl7.org/fhir/us/qicore/StructureDefinition/qicore-procedure" ]
      },
      "extension": [ {
        "url": "http://hl7.org/fhir/us/qicore/StructureDefinition/qicore-recorded",
        "valueDateTime": "2026-10-09T13:15:00.000+00:00"
      } ],
      "status": "completed",
      "category": {
        "coding": [ {
          "system": "http://snomed.info/sct",
          "code": "387713003",
          "display": "Surgical procedure",
          "userSelected": true
        } ]
      },
      "code": {
        "coding": [ {
          "system": "http://www.cms.gov/Medicare/Coding/ICD10",
          "code": "5A1935Z",
          "userSelected": true
        } ]
      },
      "subject": {
        "reference": "Patient/2930f2ff-3263-4a82-9abe-468b39c142b0"
      },
      "performedDateTime": "2026-10-09T13:15:00.000+00:00"
    },
    "request": {
      "method": "PUT",
      "url": "Procedure/d1cbcbb9-e9ac-40d5-a9e7-6e834c4a5e15"
    }
  }, {
    "fullUrl": "https://madie.cms.gov/MeasureReport/4e72ac6c-03ba-4041-adc9-88033802af88",
    "resource": {
      "resourceType": "MeasureReport",
      "id": "4e72ac6c-03ba-4041-adc9-88033802af88",
      "meta": {
        "profile": [ "http://hl7.org/fhir/us/cqfmeasures/StructureDefinition/test-case-cqfm" ]
      },
      "contained": [ {
        "resourceType": "Parameters",
        "id": "718f7293-a675-42dc-8273-099fe31cddf4-parameters",
        "parameter": [ {
          "name": "subject",
          "valueString": "2930f2ff-3263-4a82-9abe-468b39c142b0"
        } ]
      } ],
      "extension": [ {
        "url": "http://hl7.org/fhir/StructureDefinition/cqf-inputParameters",
        "valueReference": {
          "reference": "#718f7293-a675-42dc-8273-099fe31cddf4-parameters"
        }
      }, {
        "url": "http://hl7.org/fhir/us/cqfmeasures/StructureDefinition/cqfm-testCaseDescription",
        "valueMarkdown": "Patient has endotracheal intubation (exclusion procedure) that starts during and ends during the ED encounter - using relevantDatetime"
      } ],
      "modifierExtension": [ {
        "url": "http://hl7.org/fhir/us/cqfmeasures/StructureDefinition/cqfm-isTestCase",
        "valueBoolean": true
      } ],
      "status": "complete",
      "type": "individual",
      "measure": "https://madie.cms.gov/Measure/CMS996FHIRAptTxforSTEMI",
      "period": {
        "start": "2026-01-01",
        "end": "2026-12-31"
      },
      "group": [ {
        "id": "Group_1",
        "population": [ {
          "id": "InitialPopulation_1",
          "code": {
            "coding": [ {
              "system": "http://terminology.hl7.org/CodeSystem/measure-population",
              "code": "initial-population",
              "display": "Initial Population"
            } ]
          },
          "count": 1
        }, {
          "id": "Denominator_1",
          "code": {
            "coding": [ {
              "system": "http://terminology.hl7.org/CodeSystem/measure-population",
              "code": "denominator",
              "display": "Denominator"
            } ]
          },
          "count": 1
        }, {
          "id": "DenominatorExclusion_1",
          "code": {
            "coding": [ {
              "system": "http://terminology.hl7.org/CodeSystem/measure-population",
              "code": "denominator-exclusion",
              "display": "Denominator Exclusion"
            } ]
          },
          "count": 1
        }, {
          "id": "Numerator_1",
          "code": {
            "coding": [ {
              "system": "http://terminology.hl7.org/CodeSystem/measure-population",
              "code": "numerator",
              "display": "Numerator"
            } ]
          },
          "count": 0
        }, {
          "id": "DenominatorException_1",
          "code": {
            "coding": [ {
              "system": "http://terminology.hl7.org/CodeSystem/measure-population",
              "code": "denominator-exception",
              "display": "Denominator Exception"
            } ]
          },
          "count": 0
        } ],
        "measureScore": {
          "value": 0.0
        }
      } ],
      "evaluatedResource": [ {
        "reference": "Patient/2930f2ff-3263-4a82-9abe-468b39c142b0"
      }, {
        "reference": "Encounter/1e315967-b04a-474c-8256-46303282d689"
      }, {
        "reference": "Condition/b48f0eb3-3bcc-4ab8-b1bd-db74ebb52982"
      }, {
        "reference": "Procedure/d1cbcbb9-e9ac-40d5-a9e7-6e834c4a5e15"
      } ]
    },
    "request": {
      "method": "PUT",
      "url": "MeasureReport/4e72ac6c-03ba-4041-adc9-88033802af88"
    }
  } ]
}