{
  "resourceType": "Bundle",
  "id": "41643131",
  "type": "collection",
  "entry": [ {
    "fullUrl": "https://madie.cms.gov/Patient/f1ccd667-ada1-4ca8-b4dc-fe4a9674d81a",
    "resource": {
      "resourceType": "Patient",
      "id": "f1ccd667-ada1-4ca8-b4dc-fe4a9674d81a",
      "meta": {
        "profile": [ "http://hl7.org/fhir/us/qicore/StructureDefinition/qicore-patient" ]
      },
      "extension": [ {
        "url": "http://hl7.org/fhir/us/core/StructureDefinition/us-core-race",
        "extension": [ {
          "url": "ombCategory",
          "valueCoding": {
            "system": "urn:oid:2.16.840.1.113883.6.238",
            "code": "2106-3",
            "display": "White"
          }
        }, {
          "url": "text",
          "valueString": "White"
        } ]
      }, {
        "url": "http://hl7.org/fhir/us/core/StructureDefinition/us-core-ethnicity",
        "extension": [ {
          "url": "ombCategory",
          "valueCoding": {
            "system": "urn:oid:2.16.840.1.113883.6.238",
            "code": "2186-5",
            "display": "Not Hispanic or Latino"
          }
        }, {
          "url": "text",
          "valueString": "Not Hispanic or Latino"
        } ]
      }, {
        "url": "http://hl7.org/fhir/us/core/StructureDefinition/us-core-sex",
        "valueCode": "248153007"
      } ],
      "identifier": [ {
        "type": {
          "coding": [ {
            "system": "http://terminology.hl7.org/CodeSystem/v2-0203",
            "code": "MR"
          } ]
        },
        "system": "https://myGoodHealthcare.com/",
        "value": "3153213131"
      } ],
      "active": true,
      "name": [ {
        "use": "usual",
        "family": "NUMERFail",
        "given": [ "1stand2ndUSSEqual" ]
      } ],
      "gender": "male",
      "birthDate": "1970-12-31"
    }
  }, {
    "fullUrl": "https://madie.cms.gov/Observation/e4d7b96a-c88a-4f19-8921-3bcad3a2fb7d",
    "resource": {
      "resourceType": "Observation",
      "id": "e4d7b96a-c88a-4f19-8921-3bcad3a2fb7d",
      "meta": {
        "profile": [ "http://hl7.org/fhir/us/qicore/StructureDefinition/qicore-observation-screening-assessment" ]
      },
      "status": "final",
      "category": [ {
        "coding": [ {
          "system": "http://terminology.hl7.org/CodeSystem/observation-category",
          "code": "survey",
          "display": "Survey"
        } ]
      } ],
      "code": {
        "coding": [ {
          "system": "http://loinc.org",
          "version": "2.76",
          "code": "80976-4"
        } ]
      },
      "subject": {
        "reference": "Patient/f1ccd667-ada1-4ca8-b4dc-fe4a9674d81a"
      },
      "effectivePeriod": {
        "start": "2026-07-01T08:00:00.000+00:00"
      },
      "valueInteger": 6
    }
  }, {
    "fullUrl": "https://madie.cms.gov/Observation/0d8082c8-123f-4e6e-99de-9ec7410bf6ef",
    "resource": {
      "resourceType": "Observation",
      "id": "0d8082c8-123f-4e6e-99de-9ec7410bf6ef",
      "meta": {
        "profile": [ "http://hl7.org/fhir/us/qicore/StructureDefinition/qicore-observation-screening-assessment" ]
      },
      "status": "final",
      "category": [ {
        "coding": [ {
          "system": "http://terminology.hl7.org/CodeSystem/observation-category",
          "code": "survey",
          "display": "Survey"
        } ]
      } ],
      "code": {
        "coding": [ {
          "system": "http://loinc.org",
          "version": "2.76",
          "code": "80976-4"
        } ]
      },
      "subject": {
        "reference": "Patient/f1ccd667-ada1-4ca8-b4dc-fe4a9674d81a"
      },
      "effectivePeriod": {
        "start": "2026-01-31T08:00:00.000+00:00"
      },
      "valueInteger": 6
    }
  }, {
    "fullUrl": "https://madie.cms.gov/Condition/e88f9892-78e4-4473-b809-7b4eecf17b53",
    "resource": {
      "resourceType": "Condition",
      "id": "e88f9892-78e4-4473-b809-7b4eecf17b53",
      "meta": {
        "profile": [ "http://hl7.org/fhir/us/qicore/StructureDefinition/qicore-condition-problems-health-concerns" ]
      },
      "clinicalStatus": {
        "coding": [ {
          "system": "http://terminology.hl7.org/CodeSystem/condition-clinical",
          "code": "active",
          "display": "active"
        } ]
      },
      "verificationStatus": {
        "coding": [ {
          "system": "http://terminology.hl7.org/CodeSystem/condition-ver-status",
          "code": "confirmed",
          "display": "Confirmed"
        } ]
      },
      "category": [ {
        "coding": [ {
          "system": "http://terminology.hl7.org/CodeSystem/condition-category",
          "code": "problem-list-item",
          "display": "Problem List Item"
        } ]
      } ],
      "code": {
        "coding": [ {
          "system": "http://hl7.org/fhir/sid/icd-10-cm",
          "version": "2024",
          "code": "N40.1"
        } ]
      },
      "subject": {
        "reference": "Patient/f1ccd667-ada1-4ca8-b4dc-fe4a9674d81a"
      },
      "onsetPeriod": {
        "start": "2025-12-31T08:00:00.000+00:00"
      }
    }
  }, {
    "fullUrl": "https://madie.cms.gov/Encounter/cd1c12a8-0c7d-415a-b576-b2fd3eaf9d84",
    "resource": {
      "resourceType": "Encounter",
      "id": "cd1c12a8-0c7d-415a-b576-b2fd3eaf9d84",
      "meta": {
        "profile": [ "http://hl7.org/fhir/us/qicore/StructureDefinition/qicore-encounter" ]
      },
      "status": "finished",
      "class": {
        "system": "http://terminology.hl7.org/CodeSystem/v3-ActCode",
        "code": "AMB",
        "display": "ambulatory"
      },
      "type": [ {
        "coding": [ {
          "system": "http://www.ama-assn.org/go/cpt",
          "version": "2024",
          "code": "99203"
        } ]
      } ],
      "subject": {
        "reference": "Patient/f1ccd667-ada1-4ca8-b4dc-fe4a9674d81a"
      },
      "period": {
        "start": "2026-01-01T08:00:00.000+00:00",
        "end": "2026-01-01T08:15:00.000+00:00"
      }
    }
  }, {
    "fullUrl": "https://madie.cms.gov/MeasureReport/106364f7-5133-4490-b69d-beb51accccbc",
    "resource": {
      "resourceType": "MeasureReport",
      "id": "106364f7-5133-4490-b69d-beb51accccbc",
      "meta": {
        "profile": [ "http://hl7.org/fhir/us/cqfmeasures/StructureDefinition/test-case-cqfm" ]
      },
      "contained": [ {
        "resourceType": "Parameters",
        "id": "9201e3b9-a00d-4bb0-972a-c289352a8ffc-parameters",
        "parameter": [ {
          "name": "subject",
          "valueString": "f1ccd667-ada1-4ca8-b4dc-fe4a9674d81a"
        } ]
      } ],
      "extension": [ {
        "url": "http://hl7.org/fhir/StructureDefinition/cqf-inputParameters",
        "valueReference": {
          "reference": "#9201e3b9-a00d-4bb0-972a-c289352a8ffc-parameters"
        }
      }, {
        "url": "http://hl7.org/fhir/us/cqfmeasures/StructureDefinition/cqfm-testCaseDescription",
        "valueMarkdown": "Male Patient with OV,BPH dx, initial and followup USS which have same scoring showing no improvement"
      } ],
      "modifierExtension": [ {
        "url": "http://hl7.org/fhir/us/cqfmeasures/StructureDefinition/cqfm-isTestCase",
        "valueBoolean": true
      } ],
      "status": "complete",
      "type": "individual",
      "measure": "https://madie.cms.gov/Measure/CMS771FHIRUrinarySymptomScoreBPH",
      "period": {
        "start": "2026-01-01",
        "end": "2026-12-31"
      },
      "group": [ {
        "id": "Group_1",
        "population": [ {
          "id": "InitialPopulation_1",
          "code": {
            "coding": [ {
              "system": "http://terminology.hl7.org/CodeSystem/measure-population",
              "code": "initial-population",
              "display": "Initial Population"
            } ]
          },
          "count": 1
        }, {
          "id": "Denominator_1",
          "code": {
            "coding": [ {
              "system": "http://terminology.hl7.org/CodeSystem/measure-population",
              "code": "denominator",
              "display": "Denominator"
            } ]
          },
          "count": 1
        }, {
          "id": "DenominatorExclusion_1",
          "code": {
            "coding": [ {
              "system": "http://terminology.hl7.org/CodeSystem/measure-population",
              "code": "denominator-exclusion",
              "display": "Denominator Exclusion"
            } ]
          },
          "count": 0
        }, {
          "id": "Numerator_1",
          "code": {
            "coding": [ {
              "system": "http://terminology.hl7.org/CodeSystem/measure-population",
              "code": "numerator",
              "display": "Numerator"
            } ]
          },
          "count": 0
        } ],
        "measureScore": {
          "value": 1.0
        }
      } ],
      "evaluatedResource": [ {
        "reference": "Patient/f1ccd667-ada1-4ca8-b4dc-fe4a9674d81a"
      }, {
        "reference": "Observation/e4d7b96a-c88a-4f19-8921-3bcad3a2fb7d"
      }, {
        "reference": "Observation/0d8082c8-123f-4e6e-99de-9ec7410bf6ef"
      }, {
        "reference": "Condition/e88f9892-78e4-4473-b809-7b4eecf17b53"
      }, {
        "reference": "Encounter/cd1c12a8-0c7d-415a-b576-b2fd3eaf9d84"
      } ]
    }
  } ]
}