{
  "resourceType": "Bundle",
  "id": "DENEXPass-FrailtyDxOverlapsMP",
  "type": "transaction",
  "entry": [ {
    "fullUrl": "https://madie.cms.gov/Patient/a7ec972f-f0c1-428d-aba5-ba76cba5cd73",
    "resource": {
      "resourceType": "Patient",
      "id": "a7ec972f-f0c1-428d-aba5-ba76cba5cd73",
      "meta": {
        "profile": [ "http://hl7.org/fhir/us/qicore/StructureDefinition/qicore-patient" ]
      },
      "extension": [ {
        "url": "http://hl7.org/fhir/us/core/StructureDefinition/us-core-race",
        "extension": [ {
          "url": "ombCategory",
          "valueCoding": {
            "system": "urn:oid:2.16.840.1.113883.6.238",
            "code": "2028-9",
            "display": "Asian"
          }
        }, {
          "url": "text",
          "valueString": "Asian"
        } ]
      }, {
        "url": "http://hl7.org/fhir/us/core/StructureDefinition/us-core-ethnicity",
        "extension": [ {
          "url": "ombCategory",
          "valueCoding": {
            "system": "urn:oid:2.16.840.1.113883.6.238",
            "code": "2135-2",
            "display": "Hispanic or Latino"
          }
        }, {
          "url": "text",
          "valueString": "Hispanic or Latino"
        } ]
      } ],
      "identifier": [ {
        "system": "http://hospital.smarthealthit.org",
        "value": "999999995"
      } ],
      "name": [ {
        "family": "DENEXPass",
        "given": [ "FrailtyDxOverlapsMP" ]
      } ],
      "gender": "female",
      "birthDate": "1959-12-31"
    },
    "request": {
      "method": "PUT",
      "url": "Patient/a7ec972f-f0c1-428d-aba5-ba76cba5cd73"
    }
  }, {
    "fullUrl": "https://madie.cms.gov/Encounter/8b04f61e-5c8c-4e43-ad32-d89188943c52",
    "resource": {
      "resourceType": "Encounter",
      "id": "8b04f61e-5c8c-4e43-ad32-d89188943c52",
      "meta": {
        "profile": [ "http://hl7.org/fhir/us/qicore/StructureDefinition/qicore-encounter" ]
      },
      "status": "finished",
      "class": {
        "system": "http://terminology.hl7.org/CodeSystem/v3-ActCode",
        "code": "AMB",
        "display": "ambulatory"
      },
      "type": [ {
        "coding": [ {
          "system": "http://snomed.info/sct",
          "code": "3391000175108",
          "display": "Office visit for pediatric care and assessment (procedure)"
        } ]
      } ],
      "subject": {
        "reference": "Patient/a7ec972f-f0c1-428d-aba5-ba76cba5cd73"
      },
      "period": {
        "start": "2026-01-01T00:00:00.000+00:00",
        "end": "2026-01-01T01:00:00.000+00:00"
      }
    },
    "request": {
      "method": "PUT",
      "url": "Encounter/8b04f61e-5c8c-4e43-ad32-d89188943c52"
    }
  }, {
    "fullUrl": "https://madie.cms.gov/Condition/2c9addfa-75fe-4421-969f-32d1f05a3d88",
    "resource": {
      "resourceType": "Condition",
      "id": "2c9addfa-75fe-4421-969f-32d1f05a3d88",
      "meta": {
        "profile": [ "http://hl7.org/fhir/us/qicore/StructureDefinition/qicore-condition-problems-health-concerns" ]
      },
      "clinicalStatus": {
        "coding": [ {
          "system": "http://terminology.hl7.org/CodeSystem/condition-clinical",
          "code": "active"
        } ]
      },
      "category": [ {
        "coding": [ {
          "system": "http://terminology.hl7.org/CodeSystem/condition-category",
          "code": "problem-list-item",
          "display": "Problem List Item"
        } ]
      } ],
      "code": {
        "coding": [ {
          "system": "http://snomed.info/sct",
          "code": "371125006",
          "display": "Labile essential hypertension (disorder)"
        } ]
      },
      "subject": {
        "reference": "Patient/a7ec972f-f0c1-428d-aba5-ba76cba5cd73"
      },
      "onsetDateTime": "2026-06-29T23:59:59.000+00:00"
    },
    "request": {
      "method": "PUT",
      "url": "Condition/2c9addfa-75fe-4421-969f-32d1f05a3d88"
    }
  }, {
    "fullUrl": "https://madie.cms.gov/MedicationRequest/0578d11d-5662-4459-8c9b-76e9e166e9f4",
    "resource": {
      "resourceType": "MedicationRequest",
      "id": "0578d11d-5662-4459-8c9b-76e9e166e9f4",
      "meta": {
        "profile": [ "http://hl7.org/fhir/us/qicore/StructureDefinition/qicore-medicationrequest" ]
      },
      "status": "active",
      "intent": "order",
      "doNotPerform": false,
      "medicationCodeableConcept": {
        "coding": [ {
          "system": "http://www.nlm.nih.gov/research/umls/rxnorm",
          "code": "312836",
          "display": "rivastigmine 6 MG Oral Capsule"
        } ]
      },
      "subject": {
        "reference": "Patient/a7ec972f-f0c1-428d-aba5-ba76cba5cd73"
      },
      "authoredOn": "2026-01-01T00:00:00.000+00:00",
      "requester": {
        "reference": "Practitioner/example"
      },
      "dispenseRequest": {
        "expectedSupplyDuration": {
          "value": 90,
          "system": "http://unitsofmeasure.org",
          "code": "days"
        }
      }
    },
    "request": {
      "method": "PUT",
      "url": "MedicationRequest/0578d11d-5662-4459-8c9b-76e9e166e9f4"
    }
  }, {
    "fullUrl": "https://madie.cms.gov/Condition/c728b6a5-16f1-4154-be01-9085bea28cf8",
    "resource": {
      "resourceType": "Condition",
      "id": "c728b6a5-16f1-4154-be01-9085bea28cf8",
      "meta": {
        "profile": [ "http://hl7.org/fhir/us/qicore/StructureDefinition/qicore-condition-encounter-diagnosis" ]
      },
      "clinicalStatus": {
        "coding": [ {
          "system": "http://terminology.hl7.org/CodeSystem/condition-clinical",
          "code": "active"
        } ]
      },
      "category": [ {
        "coding": [ {
          "system": "http://terminology.hl7.org/CodeSystem/condition-category",
          "code": "encounter-diagnosis",
          "display": "Encounter Diagnosis"
        } ]
      } ],
      "code": {
        "coding": [ {
          "system": "http://snomed.info/sct",
          "code": "217083007",
          "display": "Fall on or from stairs or steps (event)"
        } ]
      },
      "subject": {
        "reference": "Patient/a7ec972f-f0c1-428d-aba5-ba76cba5cd73"
      },
      "onsetDateTime": "2026-06-30T23:59:59.000+00:00"
    },
    "request": {
      "method": "PUT",
      "url": "Condition/c728b6a5-16f1-4154-be01-9085bea28cf8"
    }
  }, {
    "fullUrl": "https://madie.cms.gov/MeasureReport/d29c0a7e-08ee-46de-9f07-87dbccb13632",
    "resource": {
      "resourceType": "MeasureReport",
      "id": "d29c0a7e-08ee-46de-9f07-87dbccb13632",
      "meta": {
        "profile": [ "http://hl7.org/fhir/us/cqfmeasures/StructureDefinition/test-case-cqfm" ]
      },
      "contained": [ {
        "resourceType": "Parameters",
        "id": "24d3c5e9-4c6f-4428-b0f2-f19710580eb5-parameters",
        "parameter": [ {
          "name": "subject",
          "valueString": "a7ec972f-f0c1-428d-aba5-ba76cba5cd73"
        } ]
      } ],
      "extension": [ {
        "url": "http://hl7.org/fhir/StructureDefinition/cqf-inputParameters",
        "valueReference": {
          "reference": "#24d3c5e9-4c6f-4428-b0f2-f19710580eb5-parameters"
        }
      }, {
        "url": "http://hl7.org/fhir/us/cqfmeasures/StructureDefinition/cqfm-testCaseDescription",
        "valueMarkdown": "Frailty diagnosis overlaps MP - ConditionEncounterDiagnosis"
      } ],
      "modifierExtension": [ {
        "url": "http://hl7.org/fhir/us/cqfmeasures/StructureDefinition/cqfm-isTestCase",
        "valueBoolean": true
      } ],
      "status": "complete",
      "type": "individual",
      "measure": "https://madie.cms.gov/Measure/CMS165FHIRControllingHighBP",
      "period": {
        "start": "2026-01-01",
        "end": "2026-12-31"
      },
      "group": [ {
        "id": "Group_1",
        "population": [ {
          "id": "InitialPopulation_1",
          "code": {
            "coding": [ {
              "system": "http://terminology.hl7.org/CodeSystem/measure-population",
              "code": "initial-population",
              "display": "Initial Population"
            } ]
          },
          "count": 1
        }, {
          "id": "Denominator_1",
          "code": {
            "coding": [ {
              "system": "http://terminology.hl7.org/CodeSystem/measure-population",
              "code": "denominator",
              "display": "Denominator"
            } ]
          },
          "count": 1
        }, {
          "id": "DenominatorExclusion_1",
          "code": {
            "coding": [ {
              "system": "http://terminology.hl7.org/CodeSystem/measure-population",
              "code": "denominator-exclusion",
              "display": "Denominator Exclusion"
            } ]
          },
          "count": 1
        }, {
          "id": "Numerator_1",
          "code": {
            "coding": [ {
              "system": "http://terminology.hl7.org/CodeSystem/measure-population",
              "code": "numerator",
              "display": "Numerator"
            } ]
          },
          "count": 0
        } ],
        "measureScore": {
          "value": 1.0
        }
      } ],
      "evaluatedResource": [ {
        "reference": "Patient/a7ec972f-f0c1-428d-aba5-ba76cba5cd73"
      }, {
        "reference": "Encounter/8b04f61e-5c8c-4e43-ad32-d89188943c52"
      }, {
        "reference": "Condition/2c9addfa-75fe-4421-969f-32d1f05a3d88"
      }, {
        "reference": "MedicationRequest/0578d11d-5662-4459-8c9b-76e9e166e9f4"
      }, {
        "reference": "Condition/c728b6a5-16f1-4154-be01-9085bea28cf8"
      } ]
    },
    "request": {
      "method": "PUT",
      "url": "MeasureReport/d29c0a7e-08ee-46de-9f07-87dbccb13632"
    }
  } ]
}