{
  "resourceType": "Bundle",
  "id": "62fd4b710968f82603aac854",
  "type": "collection",
  "entry": [ {
    "fullUrl": "https://madie.cms.gov/Patient/849d31ab-b698-4cb4-99eb-fc3ad8aceda9",
    "resource": {
      "resourceType": "Patient",
      "id": "849d31ab-b698-4cb4-99eb-fc3ad8aceda9",
      "meta": {
        "profile": [ "http://hl7.org/fhir/us/qicore/StructureDefinition/qicore-patient" ]
      },
      "extension": [ {
        "url": "http://hl7.org/fhir/us/core/StructureDefinition/us-core-race",
        "extension": [ {
          "url": "ombCategory",
          "valueCoding": {
            "system": "urn:oid:2.16.840.1.113883.6.238",
            "code": "2054-5",
            "display": "Black or African American",
            "userSelected": true
          }
        }, {
          "url": "text",
          "valueString": "Black or African American"
        } ]
      }, {
        "url": "http://hl7.org/fhir/us/core/StructureDefinition/us-core-ethnicity",
        "extension": [ {
          "url": "ombCategory",
          "valueCoding": {
            "system": "urn:oid:2.16.840.1.113883.6.238",
            "code": "2186-5",
            "display": "Not Hispanic or Latino",
            "userSelected": true
          }
        }, {
          "url": "text",
          "valueString": "Not Hispanic or Latino"
        } ]
      } ],
      "identifier": [ {
        "type": {
          "coding": [ {
            "system": "http://terminology.hl7.org/CodeSystem/v2-0203",
            "code": "MR"
          } ]
        },
        "system": "https://bonnie-fhir.healthit.gov/",
        "value": "62fd4b710968f82603aac854"
      } ],
      "name": [ {
        "family": "IPFail",
        "given": [ "EncAfterMP" ]
      } ],
      "gender": "female",
      "birthDate": "2001-12-31"
    }
  }, {
    "fullUrl": "https://madie.cms.gov/Encounter/74105b3a-5a09-4646-a309-0f623ee25b1c",
    "resource": {
      "resourceType": "Encounter",
      "id": "74105b3a-5a09-4646-a309-0f623ee25b1c",
      "meta": {
        "profile": [ "http://hl7.org/fhir/us/qicore/StructureDefinition/qicore-encounter" ]
      },
      "status": "finished",
      "class": {
        "system": "http://terminology.hl7.org/CodeSystem/v3-ActCode",
        "code": "AMB",
        "display": "ambulatory"
      },
      "type": [ {
        "coding": [ {
          "system": "http://www.ama-assn.org/go/cpt",
          "version": "2021",
          "code": "99385",
          "display": "Initial comprehensive preventive medicine evaluation and management of an individual including an age and gender appropriate history, examination, counseling/anticipatory guidance/risk factor reduction interventions, and the ordering of laboratory/diagnostic procedures, new patient; 18-39 years",
          "userSelected": true
        } ]
      } ],
      "subject": {
        "reference": "Patient/849d31ab-b698-4cb4-99eb-fc3ad8aceda9"
      },
      "period": {
        "start": "2027-01-01T00:00:00.000+00:00",
        "end": "2027-01-01T00:15:00.000+00:00"
      }
    }
  }, {
    "fullUrl": "https://madie.cms.gov/ServiceRequest/0fd1f38e-c3ce-4d81-8180-bd26ee71a719",
    "resource": {
      "resourceType": "ServiceRequest",
      "id": "0fd1f38e-c3ce-4d81-8180-bd26ee71a719",
      "meta": {
        "profile": [ "http://hl7.org/fhir/us/qicore/StructureDefinition/qicore-servicerequest" ]
      },
      "status": "active",
      "intent": "order",
      "code": {
        "coding": [ {
          "system": "http://snomed.info/sct",
          "version": "http://snomed.info/sct/731000124108/version/20250301",
          "code": "103696004",
          "display": "Patient referral to specialist (procedure)",
          "userSelected": true
        } ]
      },
      "subject": {
        "reference": "Patient/849d31ab-b698-4cb4-99eb-fc3ad8aceda9"
      },
      "authoredOn": "2026-08-08T08:00:00.000+00:00"
    }
  }, {
    "fullUrl": "https://madie.cms.gov/Coverage/306d04a0-163c-4506-9a73-ab4e85beadb6",
    "resource": {
      "resourceType": "Coverage",
      "id": "306d04a0-163c-4506-9a73-ab4e85beadb6",
      "meta": {
        "profile": [ "http://hl7.org/fhir/us/qicore/StructureDefinition/qicore-coverage" ]
      },
      "status": "active",
      "subscriberId": "123456",
      "beneficiary": {
        "reference": "Patient/849d31ab-b698-4cb4-99eb-fc3ad8aceda9"
      },
      "relationship": {
        "coding": [ {
          "system": "http://terminology.hl7.org/CodeSystem/subscriber-relationship",
          "code": "self",
          "display": "Self"
        } ]
      },
      "payor": [ {
        "reference": "Organization/52660eaf-5775-45a8-b3b3-a7020c4abf28"
      } ]
    }
  }, {
    "fullUrl": "https://madie.cms.gov/Organization/52660eaf-5775-45a8-b3b3-a7020c4abf28",
    "resource": {
      "resourceType": "Organization",
      "id": "52660eaf-5775-45a8-b3b3-a7020c4abf28",
      "meta": {
        "profile": [ "http://hl7.org/fhir/us/qicore/StructureDefinition/qicore-organization" ]
      },
      "identifier": [ {
        "use": "temp",
        "system": "urn:oid:2.16.840.1.113883.4.4",
        "value": "21-3259825"
      } ],
      "active": true,
      "type": [ {
        "coding": [ {
          "system": "http://terminology.hl7.org/CodeSystem/organization-type",
          "code": "pay",
          "display": "Payer"
        } ]
      } ],
      "name": "Blue Cross Blue Shield of Texas",
      "telecom": [ {
        "system": "phone",
        "value": "(+1) 972-766-6900"
      } ],
      "address": [ {
        "use": "billing",
        "type": "postal",
        "line": [ "P.O. Box 660044" ],
        "city": "Dallas",
        "state": "TX",
        "postalCode": "75266-0044",
        "country": "USA"
      } ]
    }
  }, {
    "fullUrl": "https://madie.cms.gov/Practitioner/50340799-733f-4573-a179-a985c3b46b7f",
    "resource": {
      "resourceType": "Practitioner",
      "id": "50340799-733f-4573-a179-a985c3b46b7f",
      "meta": {
        "profile": [ "http://hl7.org/fhir/us/qicore/StructureDefinition/qicore-practitioner" ]
      },
      "identifier": [ {
        "system": "http://hl7.org/fhir/sid/us-npi",
        "value": "1689411712"
      } ],
      "name": [ {
        "family": "Evil",
        "prefix": [ "Dr" ]
      } ]
    }
  }, {
    "fullUrl": "https://madie.cms.gov/MeasureReport/e0b43fd8-9d51-42f2-b8b8-79c7d4cd4032",
    "resource": {
      "resourceType": "MeasureReport",
      "id": "e0b43fd8-9d51-42f2-b8b8-79c7d4cd4032",
      "meta": {
        "profile": [ "http://hl7.org/fhir/us/cqfmeasures/StructureDefinition/test-case-cqfm" ]
      },
      "contained": [ {
        "resourceType": "Parameters",
        "id": "f4c35a4f-fedf-41b4-bc5e-61cb70741b51-parameters",
        "parameter": [ {
          "name": "subject",
          "valueString": "849d31ab-b698-4cb4-99eb-fc3ad8aceda9"
        } ]
      } ],
      "extension": [ {
        "url": "http://hl7.org/fhir/StructureDefinition/cqf-inputParameters",
        "valueReference": {
          "reference": "#f4c35a4f-fedf-41b4-bc5e-61cb70741b51-parameters"
        }
      }, {
        "url": "http://hl7.org/fhir/us/cqfmeasures/StructureDefinition/cqfm-testCaseDescription",
        "valueMarkdown": "Encounter after MP ( \"start\" : \"202x-01-01T00:00:00.000+00:00\", \"end\" : \"202x-01-01T00:15:00.000+00:00\") status finished with valid Referral Status Active Intent Order\n\n\n"
      } ],
      "modifierExtension": [ {
        "url": "http://hl7.org/fhir/us/cqfmeasures/StructureDefinition/cqfm-isTestCase",
        "valueBoolean": true
      } ],
      "status": "complete",
      "type": "individual",
      "measure": "https://madie.cms.gov/Measure/CMS50FHIRReceiptofSpecialistReport",
      "period": {
        "start": "2026-01-01",
        "end": "2026-12-31"
      },
      "group": [ {
        "id": "Group_1",
        "population": [ {
          "id": "InitialPopulation_1",
          "code": {
            "coding": [ {
              "system": "http://terminology.hl7.org/CodeSystem/measure-population",
              "code": "initial-population",
              "display": "Initial Population"
            } ]
          },
          "count": 0
        }, {
          "id": "Denominator_1",
          "code": {
            "coding": [ {
              "system": "http://terminology.hl7.org/CodeSystem/measure-population",
              "code": "denominator",
              "display": "Denominator"
            } ]
          },
          "count": 0
        }, {
          "id": "Numerator_1",
          "code": {
            "coding": [ {
              "system": "http://terminology.hl7.org/CodeSystem/measure-population",
              "code": "numerator",
              "display": "Numerator"
            } ]
          },
          "count": 0
        } ],
        "measureScore": {
          "value": 1.0
        }
      } ],
      "evaluatedResource": [ {
        "reference": "Patient/849d31ab-b698-4cb4-99eb-fc3ad8aceda9"
      }, {
        "reference": "Encounter/74105b3a-5a09-4646-a309-0f623ee25b1c"
      }, {
        "reference": "ServiceRequest/0fd1f38e-c3ce-4d81-8180-bd26ee71a719"
      }, {
        "reference": "Coverage/306d04a0-163c-4506-9a73-ab4e85beadb6"
      }, {
        "reference": "Organization/52660eaf-5775-45a8-b3b3-a7020c4abf28"
      }, {
        "reference": "Practitioner/50340799-733f-4573-a179-a985c3b46b7f"
      } ]
    }
  } ]
}