{
  "resourceType": "Bundle",
  "id": "62fd2edc32e2f917c3627d8b",
  "type": "collection",
  "entry": [ {
    "fullUrl": "https://madie.cms.gov/Patient/49c6ee4d-15cd-422c-a511-b7ba3d55b1f6",
    "resource": {
      "resourceType": "Patient",
      "id": "49c6ee4d-15cd-422c-a511-b7ba3d55b1f6",
      "meta": {
        "profile": [ "http://hl7.org/fhir/us/qicore/StructureDefinition/qicore-patient" ]
      },
      "extension": [ {
        "url": "http://hl7.org/fhir/us/core/StructureDefinition/us-core-race",
        "extension": [ {
          "url": "ombCategory",
          "valueCoding": {
            "system": "urn:oid:2.16.840.1.113883.6.238",
            "code": "1002-5",
            "display": "American Indian or Alaska Native",
            "userSelected": true
          }
        }, {
          "url": "text",
          "valueString": "American Indian or Alaska Native"
        } ]
      }, {
        "url": "http://hl7.org/fhir/us/core/StructureDefinition/us-core-ethnicity",
        "extension": [ {
          "url": "ombCategory",
          "valueCoding": {
            "system": "urn:oid:2.16.840.1.113883.6.238",
            "code": "2135-2",
            "display": "Hispanic or Latino",
            "userSelected": true
          }
        }, {
          "url": "text",
          "valueString": "Hispanic or Latino"
        } ]
      } ],
      "identifier": [ {
        "type": {
          "coding": [ {
            "system": "http://terminology.hl7.org/CodeSystem/v2-0203",
            "code": "MR"
          } ]
        },
        "system": "https://bonnie-fhir.healthit.gov/",
        "value": "62fd2edc32e2f917c3627d8b"
      } ],
      "name": [ {
        "family": "NUMERPass",
        "given": [ "BoneScanSameStartTimeDx" ]
      } ],
      "gender": "male",
      "birthDate": "1987-06-27"
    }
  }, {
    "fullUrl": "https://madie.cms.gov/Condition/74cd999c-ae37-495e-a604-137e67fa80b6",
    "resource": {
      "resourceType": "Condition",
      "id": "74cd999c-ae37-495e-a604-137e67fa80b6",
      "meta": {
        "profile": [ "http://hl7.org/fhir/us/qicore/StructureDefinition/qicore-condition-problems-health-concerns" ]
      },
      "clinicalStatus": {
        "coding": [ {
          "system": "http://terminology.hl7.org/CodeSystem/condition-clinical",
          "code": "active",
          "display": "active",
          "userSelected": true
        } ]
      },
      "category": [ {
        "coding": [ {
          "system": "http://hl7.org/fhir/us/core/CodeSystem/condition-category",
          "code": "health-concern",
          "display": "Health Concern"
        }, {
          "system": "http://snomed.info/sct",
          "code": "439401001",
          "display": "Diagnosis"
        } ]
      } ],
      "code": {
        "coding": [ {
          "system": "http://snomed.info/sct",
          "code": "254900004",
          "display": "Carcinoma of prostate (disorder)",
          "userSelected": true
        } ]
      },
      "subject": {
        "reference": "Patient/49c6ee4d-15cd-422c-a511-b7ba3d55b1f6"
      },
      "onsetDateTime": "2026-01-07T08:00:00.000+00:00",
      "recordedDate": "2026-06-02T08:00:00.000+00:00"
    }
  }, {
    "fullUrl": "https://madie.cms.gov/Procedure/236994ad-c4f7-4272-ac5c-a02dc92f73ae",
    "resource": {
      "resourceType": "Procedure",
      "id": "236994ad-c4f7-4272-ac5c-a02dc92f73ae",
      "meta": {
        "profile": [ "http://hl7.org/fhir/us/qicore/StructureDefinition/qicore-procedure" ]
      },
      "extension": [ {
        "url": "http://hl7.org/fhir/us/qicore/StructureDefinition/qicore-recorded",
        "valueDateTime": "2026-02-01T09:00:00.000+00:00"
      } ],
      "status": "completed",
      "code": {
        "coding": [ {
          "system": "http://snomed.info/sct",
          "code": "38915000",
          "display": "Radionuclide therapy for gland ablation (procedure)",
          "userSelected": true
        } ]
      },
      "subject": {
        "reference": "Patient/49c6ee4d-15cd-422c-a511-b7ba3d55b1f6"
      },
      "performedDateTime": "2026-06-02T08:00:00.000+00:00"
    }
  }, {
    "fullUrl": "https://madie.cms.gov/Observation/0dc68db9-8a03-40e1-866a-466fd6b97dd5",
    "resource": {
      "resourceType": "Observation",
      "id": "0dc68db9-8a03-40e1-866a-466fd6b97dd5",
      "meta": {
        "profile": [ "http://hl7.org/fhir/us/qicore/StructureDefinition/qicore-observation-lab" ]
      },
      "status": "final",
      "category": [ {
        "coding": [ {
          "system": "http://terminology.hl7.org/CodeSystem/observation-category",
          "code": "laboratory",
          "display": "Laboratory"
        } ]
      } ],
      "code": {
        "coding": [ {
          "system": "http://loinc.org",
          "version": "2.72",
          "code": "2857-1",
          "display": "Prostate specific Ag [Mass/volume] in Serum or Plasma",
          "userSelected": true
        } ]
      },
      "subject": {
        "reference": "Patient/49c6ee4d-15cd-422c-a511-b7ba3d55b1f6"
      },
      "effectiveDateTime": "2026-01-07T08:00:00.000+00:00",
      "issued": "2026-04-02T08:00:00.000+00:00",
      "valueQuantity": {
        "value": 8.0,
        "unit": "ng/mL"
      }
    }
  }, {
    "fullUrl": "https://madie.cms.gov/Observation/48667c19-c58f-4214-9b76-57bee8151d8c",
    "resource": {
      "resourceType": "Observation",
      "id": "48667c19-c58f-4214-9b76-57bee8151d8c",
      "meta": {
        "profile": [ "http://hl7.org/fhir/us/qicore/StructureDefinition/qicore-observation-clinical-result" ]
      },
      "status": "final",
      "category": [ {
        "coding": [ {
          "system": "http://terminology.hl7.org/CodeSystem/observation-category",
          "code": "procedure",
          "display": "Procedure"
        } ]
      } ],
      "code": {
        "coding": [ {
          "system": "http://loinc.org",
          "code": "35266-6",
          "display": "Gleason score in Specimen Qualitative",
          "userSelected": true
        } ]
      },
      "subject": {
        "reference": "Patient/49c6ee4d-15cd-422c-a511-b7ba3d55b1f6"
      },
      "effectivePeriod": {
        "start": "2026-04-02T08:00:00.000+00:00"
      },
      "issued": "2026-04-02T08:00:00.000+00:00",
      "valueInteger": 5
    }
  }, {
    "fullUrl": "https://madie.cms.gov/Observation/05cc9f7d-4d16-4795-aea7-8a265d503b8b",
    "resource": {
      "resourceType": "Observation",
      "id": "05cc9f7d-4d16-4795-aea7-8a265d503b8b",
      "meta": {
        "profile": [ "http://hl7.org/fhir/us/qicore/StructureDefinition/qicore-observation-clinical-result" ]
      },
      "status": "final",
      "category": [ {
        "coding": [ {
          "system": "http://terminology.hl7.org/CodeSystem/observation-category",
          "code": "procedure",
          "display": "Procedure"
        } ]
      } ],
      "code": {
        "coding": [ {
          "system": "http://snomed.info/sct",
          "code": "254292007",
          "display": "Tumor staging (tumor staging)",
          "userSelected": true
        } ]
      },
      "subject": {
        "reference": "Patient/49c6ee4d-15cd-422c-a511-b7ba3d55b1f6"
      },
      "focus": [ {
        "reference": "Condition/74cd999c-ae37-495e-a604-137e67fa80b6"
      } ],
      "effectivePeriod": {
        "start": "2026-02-07T08:00:00.000+00:00"
      },
      "issued": "2026-02-02T08:00:00.000+00:00",
      "valueCodeableConcept": {
        "coding": [ {
          "system": "http://snomed.info/sct",
          "code": "1228892002",
          "display": "American Joint Committee on Cancer cT1a (qualifier value)",
          "userSelected": true
        } ]
      }
    }
  }, {
    "fullUrl": "https://madie.cms.gov/Observation/029909a9-afdd-412f-bca7-fcc12510dbe0",
    "resource": {
      "resourceType": "Observation",
      "id": "029909a9-afdd-412f-bca7-fcc12510dbe0",
      "meta": {
        "profile": [ "http://hl7.org/fhir/us/qicore/StructureDefinition/qicore-observation-clinical-result" ]
      },
      "status": "final",
      "category": [ {
        "coding": [ {
          "system": "http://terminology.hl7.org/CodeSystem/observation-category",
          "code": "procedure",
          "display": "Procedure"
        } ]
      } ],
      "code": {
        "coding": [ {
          "system": "http://loinc.org",
          "version": "2.72",
          "code": "25031-6",
          "display": "NM Bone Views",
          "userSelected": true
        } ]
      },
      "subject": {
        "reference": "Patient/49c6ee4d-15cd-422c-a511-b7ba3d55b1f6"
      },
      "effectiveDateTime": "2026-01-07T08:00:00.000+00:00",
      "valueString": "Normal results found"
    }
  }, {
    "fullUrl": "https://madie.cms.gov/Coverage/3867e113-a728-4d01-9966-3fe8b60d3a6e",
    "resource": {
      "resourceType": "Coverage",
      "id": "3867e113-a728-4d01-9966-3fe8b60d3a6e",
      "meta": {
        "profile": [ "http://hl7.org/fhir/us/qicore/StructureDefinition/qicore-coverage" ]
      },
      "status": "active",
      "subscriberId": "123456789",
      "beneficiary": {
        "reference": "Patient/49c6ee4d-15cd-422c-a511-b7ba3d55b1f6"
      },
      "relationship": {
        "coding": [ {
          "system": "http://terminology.hl7.org/CodeSystem/subscriber-relationship",
          "code": "self",
          "display": "Self",
          "userSelected": true
        } ]
      },
      "payor": [ {
        "reference": "Organization/42e7048d-d54d-4295-a992-a2549dbebe7e"
      } ]
    }
  }, {
    "fullUrl": "https://madie.cms.gov/Organization/42e7048d-d54d-4295-a992-a2549dbebe7e",
    "resource": {
      "resourceType": "Organization",
      "id": "42e7048d-d54d-4295-a992-a2549dbebe7e",
      "meta": {
        "profile": [ "http://hl7.org/fhir/us/qicore/StructureDefinition/qicore-organization" ]
      },
      "identifier": [ {
        "use": "temp",
        "system": "urn:oid:2.16.840.1.113883.4.4",
        "value": "21-3259825"
      } ],
      "active": true,
      "type": [ {
        "coding": [ {
          "system": "http://terminology.hl7.org/CodeSystem/organization-type",
          "code": "pay",
          "display": "Payer"
        } ]
      } ],
      "name": "Blue Cross Blue Shield of Texas",
      "telecom": [ {
        "system": "phone",
        "value": "(+1) 972-766-6900"
      } ],
      "address": [ {
        "use": "billing",
        "type": "postal",
        "line": [ "P.O. Box 660044" ],
        "city": "Dallas",
        "state": "TX",
        "postalCode": "75266-0044",
        "country": "USA"
      } ]
    }
  }, {
    "fullUrl": "https://madie.cms.gov/Practitioner/4079d18f-779a-4aee-ab0b-d0ee9b85e002",
    "resource": {
      "resourceType": "Practitioner",
      "id": "4079d18f-779a-4aee-ab0b-d0ee9b85e002",
      "meta": {
        "profile": [ "http://hl7.org/fhir/us/qicore/StructureDefinition/qicore-practitioner" ]
      },
      "identifier": [ {
        "system": "http://hl7.org/fhir/sid/us-npi",
        "value": "1234567893"
      } ],
      "name": [ {
        "family": "Evil",
        "prefix": [ "Dr" ]
      } ]
    }
  }, {
    "fullUrl": "https://madie.cms.gov/MeasureReport/4d564342-1b0e-4c3c-b7d2-8c41afdd54fa",
    "resource": {
      "resourceType": "MeasureReport",
      "id": "4d564342-1b0e-4c3c-b7d2-8c41afdd54fa",
      "meta": {
        "profile": [ "http://hl7.org/fhir/us/cqfmeasures/StructureDefinition/test-case-cqfm" ]
      },
      "contained": [ {
        "resourceType": "Parameters",
        "id": "fdb960c5-015c-4f64-971c-6688d26c381b-parameters",
        "parameter": [ {
          "name": "subject",
          "valueString": "49c6ee4d-15cd-422c-a511-b7ba3d55b1f6"
        } ]
      } ],
      "extension": [ {
        "url": "http://hl7.org/fhir/StructureDefinition/cqf-inputParameters",
        "valueReference": {
          "reference": "#fdb960c5-015c-4f64-971c-6688d26c381b-parameters"
        }
      }, {
        "url": "http://hl7.org/fhir/us/cqfmeasures/StructureDefinition/cqfm-testCaseDescription",
        "valueMarkdown": "Patient with prostate cancer diagnosis with bone scan start time same as start time of diagnosis. "
      } ],
      "modifierExtension": [ {
        "url": "http://hl7.org/fhir/us/cqfmeasures/StructureDefinition/cqfm-isTestCase",
        "valueBoolean": true
      } ],
      "status": "complete",
      "type": "individual",
      "measure": "https://madie.cms.gov/Measure/CMS129FHIRProstCaBoneScanUse",
      "period": {
        "start": "2026-01-01",
        "end": "2026-12-31"
      },
      "group": [ {
        "id": "Group_1",
        "population": [ {
          "id": "InitialPopulation_1",
          "code": {
            "coding": [ {
              "system": "http://terminology.hl7.org/CodeSystem/measure-population",
              "code": "initial-population",
              "display": "Initial Population"
            } ]
          },
          "count": 1
        }, {
          "id": "Denominator_1",
          "code": {
            "coding": [ {
              "system": "http://terminology.hl7.org/CodeSystem/measure-population",
              "code": "denominator",
              "display": "Denominator"
            } ]
          },
          "count": 1
        }, {
          "id": "Numerator_1",
          "code": {
            "coding": [ {
              "system": "http://terminology.hl7.org/CodeSystem/measure-population",
              "code": "numerator",
              "display": "Numerator"
            } ]
          },
          "count": 1
        }, {
          "id": "DenominatorException_1",
          "code": {
            "coding": [ {
              "system": "http://terminology.hl7.org/CodeSystem/measure-population",
              "code": "denominator-exception",
              "display": "Denominator Exception"
            } ]
          },
          "count": 0
        } ],
        "measureScore": {
          "value": 1.0
        }
      } ],
      "evaluatedResource": [ {
        "reference": "Patient/49c6ee4d-15cd-422c-a511-b7ba3d55b1f6"
      }, {
        "reference": "Condition/74cd999c-ae37-495e-a604-137e67fa80b6"
      }, {
        "reference": "Procedure/236994ad-c4f7-4272-ac5c-a02dc92f73ae"
      }, {
        "reference": "Observation/0dc68db9-8a03-40e1-866a-466fd6b97dd5"
      }, {
        "reference": "Observation/48667c19-c58f-4214-9b76-57bee8151d8c"
      }, {
        "reference": "Observation/05cc9f7d-4d16-4795-aea7-8a265d503b8b"
      }, {
        "reference": "Observation/029909a9-afdd-412f-bca7-fcc12510dbe0"
      }, {
        "reference": "Coverage/3867e113-a728-4d01-9966-3fe8b60d3a6e"
      }, {
        "reference": "Organization/42e7048d-d54d-4295-a992-a2549dbebe7e"
      }, {
        "reference": "Practitioner/4079d18f-779a-4aee-ab0b-d0ee9b85e002"
      } ]
    }
  } ]
}