{
  "resourceType": "Bundle",
  "id": "63598dd9c35f1c19df09adbd",
  "type": "transaction",
  "entry": [ {
    "fullUrl": "https://madie.cms.gov/Patient/e0c0397d-6e84-4b88-a18d-b09a3b71fd4b",
    "resource": {
      "resourceType": "Patient",
      "id": "e0c0397d-6e84-4b88-a18d-b09a3b71fd4b",
      "meta": {
        "profile": [ "http://hl7.org/fhir/us/qicore/StructureDefinition/qicore-patient" ]
      },
      "text": {
        "status": "generated",
        "div": "<div xmlns=\"http://www.w3.org/1999/xhtml\"><div class=\"hapiHeaderText\">RISKHRRelDtTimeEQDelStartless1Min <b>RISKPass </b></div><table class=\"hapiPropertyTable\"><tbody><tr><td>Date of birth</td><td><span>01 February 2004</span></td></tr></tbody></table></div>"
      },
      "extension": [ {
        "url": "http://hl7.org/fhir/us/core/StructureDefinition/us-core-race",
        "extension": [ {
          "url": "ombCategory",
          "valueCoding": {
            "system": "urn:oid:2.16.840.1.113883.6.238",
            "code": "1002-5",
            "display": "American Indian or Alaska Native",
            "userSelected": true
          }
        }, {
          "url": "text",
          "valueString": "American Indian or Alaska Native"
        } ]
      }, {
        "url": "http://hl7.org/fhir/us/core/StructureDefinition/us-core-ethnicity",
        "extension": [ {
          "url": "ombCategory",
          "valueCoding": {
            "system": "urn:oid:2.16.840.1.113883.6.238",
            "code": "2135-2",
            "display": "Hispanic or Latino",
            "userSelected": true
          }
        }, {
          "url": "text",
          "valueString": "Hispanic or Latino"
        } ]
      } ],
      "identifier": [ {
        "type": {
          "coding": [ {
            "system": "http://terminology.hl7.org/CodeSystem/v2-0203",
            "code": "MR"
          } ]
        },
        "system": "https://bonnie-fhir.healthit.gov/",
        "value": "63598dd9c35f1c19df09adbd"
      } ],
      "active": true,
      "name": [ {
        "use": "usual",
        "family": "RiskPass",
        "given": [ "RISKHRRelDtTimeEQDelStartless1Min" ]
      } ],
      "gender": "female",
      "birthDate": "2005-02-01"
    },
    "request": {
      "method": "PUT",
      "url": "Patient/e0c0397d-6e84-4b88-a18d-b09a3b71fd4b"
    }
  }, {
    "fullUrl": "https://madie.cms.gov/Observation/80069628-f636-427c-9c62-9fc4e3850f9e",
    "resource": {
      "resourceType": "Observation",
      "id": "80069628-f636-427c-9c62-9fc4e3850f9e",
      "meta": {
        "profile": [ "http://hl7.org/fhir/us/qicore/StructureDefinition/qicore-simple-observation" ]
      },
      "status": "final",
      "category": [ {
        "coding": [ {
          "system": "http://terminology.hl7.org/CodeSystem/observation-category",
          "code": "exam",
          "display": "exam",
          "userSelected": true
        } ]
      } ],
      "code": {
        "coding": [ {
          "system": "http://loinc.org",
          "code": "93857-1"
        } ]
      },
      "subject": {
        "reference": "Patient/e0c0397d-6e84-4b88-a18d-b09a3b71fd4b"
      },
      "effectiveDateTime": "2026-02-01T08:00:00.000+00:00",
      "valueDateTime": "2026-02-01T08:00:00.000+00:00"
    },
    "request": {
      "method": "PUT",
      "url": "Observation/80069628-f636-427c-9c62-9fc4e3850f9e"
    }
  }, {
    "fullUrl": "https://madie.cms.gov/Observation/97f53318-71f0-4454-a869-29aa86ef11a0",
    "resource": {
      "resourceType": "Observation",
      "id": "97f53318-71f0-4454-a869-29aa86ef11a0",
      "meta": {
        "profile": [ "http://hl7.org/fhir/us/qicore/StructureDefinition/qicore-simple-observation" ]
      },
      "status": "final",
      "category": [ {
        "coding": [ {
          "system": "http://terminology.hl7.org/CodeSystem/observation-category",
          "code": "exam",
          "display": "exam",
          "userSelected": true
        } ]
      } ],
      "code": {
        "coding": [ {
          "system": "http://loinc.org",
          "code": "11884-4"
        } ]
      },
      "subject": {
        "reference": "Patient/e0c0397d-6e84-4b88-a18d-b09a3b71fd4b"
      },
      "effectiveDateTime": "2026-02-01T08:00:00.000+00:00",
      "valueQuantity": {
        "value": 21,
        "system": "http://unitsofmeasure.org",
        "code": "wk"
      }
    },
    "request": {
      "method": "PUT",
      "url": "Observation/97f53318-71f0-4454-a869-29aa86ef11a0"
    }
  }, {
    "fullUrl": "https://madie.cms.gov/Encounter/59af69a6-f5ef-45a8-8196-2a3e6ca9ec77",
    "resource": {
      "resourceType": "Encounter",
      "id": "59af69a6-f5ef-45a8-8196-2a3e6ca9ec77",
      "meta": {
        "profile": [ "http://hl7.org/fhir/us/qicore/StructureDefinition/qicore-encounter" ]
      },
      "status": "finished",
      "class": {
        "system": "http://terminology.hl7.org/CodeSystem/v3-ActCode",
        "code": "IMP",
        "display": "inpatient encounter"
      },
      "type": [ {
        "coding": [ {
          "system": "http://snomed.info/sct",
          "code": "183452005"
        } ]
      } ],
      "subject": {
        "reference": "Patient/e0c0397d-6e84-4b88-a18d-b09a3b71fd4b"
      },
      "period": {
        "start": "2026-02-01T08:00:00.000+00:00",
        "end": "2026-02-05T08:15:00.000+00:00"
      }
    },
    "request": {
      "method": "PUT",
      "url": "Encounter/59af69a6-f5ef-45a8-8196-2a3e6ca9ec77"
    }
  }, {
    "fullUrl": "https://madie.cms.gov/Encounter/2b79161b-2a01-4539-87ed-f4b6b1714729",
    "resource": {
      "resourceType": "Encounter",
      "id": "2b79161b-2a01-4539-87ed-f4b6b1714729",
      "meta": {
        "profile": [ "http://hl7.org/fhir/us/qicore/StructureDefinition/qicore-encounter" ]
      },
      "status": "finished",
      "class": {
        "system": "http://terminology.hl7.org/CodeSystem/v3-ActCode",
        "code": "EMER",
        "display": "emergency"
      },
      "type": [ {
        "coding": [ {
          "system": "http://snomed.info/sct",
          "code": "4525004"
        } ]
      } ],
      "subject": {
        "reference": "Patient/e0c0397d-6e84-4b88-a18d-b09a3b71fd4b"
      },
      "period": {
        "start": "2026-02-01T07:00:00.000+00:00",
        "end": "2026-02-01T07:59:00.000+00:00"
      }
    },
    "request": {
      "method": "PUT",
      "url": "Encounter/2b79161b-2a01-4539-87ed-f4b6b1714729"
    }
  }, {
    "fullUrl": "https://madie.cms.gov/Procedure/740f6b5f-e747-4cb7-bfcb-a2aecdf89845",
    "resource": {
      "resourceType": "Procedure",
      "id": "740f6b5f-e747-4cb7-bfcb-a2aecdf89845",
      "meta": {
        "profile": [ "http://hl7.org/fhir/us/qicore/StructureDefinition/qicore-procedure" ]
      },
      "extension": [ {
        "url": "http://hl7.org/fhir/us/qicore/StructureDefinition/qicore-recorded",
        "valueDateTime": "2026-02-04T13:35:00.000+00:00"
      } ],
      "status": "completed",
      "code": {
        "coding": [ {
          "system": "http://snomed.info/sct",
          "code": "10745001"
        } ]
      },
      "subject": {
        "reference": "Patient/e0c0397d-6e84-4b88-a18d-b09a3b71fd4b"
      },
      "performedPeriod": {
        "start": "2026-02-01T08:00:00.000+00:00",
        "end": "2026-02-05T08:15:00.000+00:00"
      }
    },
    "request": {
      "method": "PUT",
      "url": "Procedure/740f6b5f-e747-4cb7-bfcb-a2aecdf89845"
    }
  }, {
    "fullUrl": "https://madie.cms.gov/Observation/d71d5d39-059d-4af2-9aba-a306db230ade",
    "resource": {
      "resourceType": "Observation",
      "id": "d71d5d39-059d-4af2-9aba-a306db230ade",
      "meta": {
        "profile": [ "http://hl7.org/fhir/us/core/StructureDefinition/us-core-heart-rate" ]
      },
      "status": "final",
      "category": [ {
        "coding": [ {
          "system": "http://terminology.hl7.org/CodeSystem/observation-category",
          "code": "vital-signs",
          "display": "vital-signs",
          "userSelected": true
        } ]
      } ],
      "code": {
        "coding": [ {
          "system": "http://loinc.org",
          "version": "2.73",
          "code": "8867-4",
          "display": "Heart Rate"
        } ]
      },
      "subject": {
        "reference": "Patient/e0c0397d-6e84-4b88-a18d-b09a3b71fd4b"
      },
      "effectiveDateTime": "2026-02-01T07:59:00.000+00:00",
      "valueQuantity": {
        "value": 85,
        "unit": "/min",
        "system": "http://unitsofmeasure.org",
        "code": "/min"
      }
    },
    "request": {
      "method": "PUT",
      "url": "Observation/d71d5d39-059d-4af2-9aba-a306db230ade"
    }
  }, {
    "fullUrl": "https://madie.cms.gov/MeasureReport/b2991e5f-ff70-4abe-af19-1c51527f8bd9",
    "resource": {
      "resourceType": "MeasureReport",
      "id": "b2991e5f-ff70-4abe-af19-1c51527f8bd9",
      "meta": {
        "profile": [ "http://hl7.org/fhir/us/cqfmeasures/StructureDefinition/test-case-cqfm" ]
      },
      "contained": [ {
        "resourceType": "Parameters",
        "id": "275dc3f4-7a96-4a5b-98d4-1bf9ed5de1d6-parameters",
        "parameter": [ {
          "name": "subject",
          "valueString": "e0c0397d-6e84-4b88-a18d-b09a3b71fd4b"
        } ]
      } ],
      "extension": [ {
        "url": "http://hl7.org/fhir/StructureDefinition/cqf-inputParameters",
        "valueReference": {
          "reference": "#275dc3f4-7a96-4a5b-98d4-1bf9ed5de1d6-parameters"
        }
      }, {
        "url": "http://hl7.org/fhir/us/cqfmeasures/StructureDefinition/cqfm-testCaseDescription",
        "valueMarkdown": "Patient with heart rate relevant date/time = delivery date/time minus 1 minute\n"
      } ],
      "modifierExtension": [ {
        "url": "http://hl7.org/fhir/us/cqfmeasures/StructureDefinition/cqfm-isTestCase",
        "valueBoolean": true
      } ],
      "status": "complete",
      "type": "individual",
      "measure": "https://madie.cms.gov/Measure/CMS1028FHIRPCSevereOBComps",
      "period": {
        "start": "2026-01-01",
        "end": "2026-12-31"
      },
      "group": [ {
        "id": "Group_1",
        "population": [ {
          "id": "InitialPopulation_1",
          "code": {
            "coding": [ {
              "system": "http://terminology.hl7.org/CodeSystem/measure-population",
              "code": "initial-population",
              "display": "Initial Population"
            } ]
          },
          "count": 1
        }, {
          "id": "Denominator_1",
          "code": {
            "coding": [ {
              "system": "http://terminology.hl7.org/CodeSystem/measure-population",
              "code": "denominator",
              "display": "Denominator"
            } ]
          },
          "count": 1
        }, {
          "id": "Numerator_1",
          "code": {
            "coding": [ {
              "system": "http://terminology.hl7.org/CodeSystem/measure-population",
              "code": "numerator",
              "display": "Numerator"
            } ]
          },
          "count": 0
        }, {
          "id": "NumeratorExclusion_1",
          "code": {
            "coding": [ {
              "system": "http://terminology.hl7.org/CodeSystem/measure-population",
              "code": "numerator-exclusion",
              "display": "Numerator Exclusion"
            } ]
          },
          "count": 0
        } ],
        "measureScore": {
          "value": 0.0
        }
      }, {
        "id": "Group_2",
        "population": [ {
          "id": "InitialPopulation_2",
          "code": {
            "coding": [ {
              "system": "http://terminology.hl7.org/CodeSystem/measure-population",
              "code": "initial-population",
              "display": "Initial Population"
            } ]
          },
          "count": 1
        }, {
          "id": "Denominator_2",
          "code": {
            "coding": [ {
              "system": "http://terminology.hl7.org/CodeSystem/measure-population",
              "code": "denominator",
              "display": "Denominator"
            } ]
          },
          "count": 1
        }, {
          "id": "Numerator_2",
          "code": {
            "coding": [ {
              "system": "http://terminology.hl7.org/CodeSystem/measure-population",
              "code": "numerator",
              "display": "Numerator"
            } ]
          },
          "count": 0
        }, {
          "id": "NumeratorExclusion_2",
          "code": {
            "coding": [ {
              "system": "http://terminology.hl7.org/CodeSystem/measure-population",
              "code": "numerator-exclusion",
              "display": "Numerator Exclusion"
            } ]
          },
          "count": 0
        } ],
        "measureScore": {
          "value": 0.0
        }
      } ],
      "evaluatedResource": [ {
        "reference": "Patient/e0c0397d-6e84-4b88-a18d-b09a3b71fd4b"
      }, {
        "reference": "Observation/80069628-f636-427c-9c62-9fc4e3850f9e"
      }, {
        "reference": "Observation/97f53318-71f0-4454-a869-29aa86ef11a0"
      }, {
        "reference": "Encounter/59af69a6-f5ef-45a8-8196-2a3e6ca9ec77"
      }, {
        "reference": "Encounter/2b79161b-2a01-4539-87ed-f4b6b1714729"
      }, {
        "reference": "Procedure/740f6b5f-e747-4cb7-bfcb-a2aecdf89845"
      }, {
        "reference": "Observation/d71d5d39-059d-4af2-9aba-a306db230ade"
      } ]
    },
    "request": {
      "method": "PUT",
      "url": "MeasureReport/b2991e5f-ff70-4abe-af19-1c51527f8bd9"
    }
  } ]
}