{
  "resourceType": "Bundle",
  "id": "657cbdc9b4f1f0343662347a",
  "type": "transaction",
  "entry": [ {
    "fullUrl": "https://madie.cms.gov/Patient/8d3864cd-d022-4067-941c-c42087e3bc86",
    "resource": {
      "resourceType": "Patient",
      "id": "8d3864cd-d022-4067-941c-c42087e3bc86",
      "meta": {
        "profile": [ "http://hl7.org/fhir/us/qicore/StructureDefinition/qicore-patient" ]
      },
      "extension": [ {
        "url": "http://hl7.org/fhir/us/core/StructureDefinition/us-core-race",
        "extension": [ {
          "url": "ombCategory",
          "valueCoding": {
            "system": "urn:oid:2.16.840.1.113883.6.238",
            "code": "2106-3",
            "display": "White",
            "userSelected": true
          }
        }, {
          "url": "text",
          "valueString": "White"
        } ]
      }, {
        "url": "http://hl7.org/fhir/us/core/StructureDefinition/us-core-ethnicity",
        "extension": [ {
          "url": "ombCategory",
          "valueCoding": {
            "system": "urn:oid:2.16.840.1.113883.6.238",
            "code": "2186-5",
            "display": "Not Hispanic or Latino",
            "userSelected": true
          }
        }, {
          "url": "text",
          "valueString": "Not Hispanic or Latino"
        } ]
      } ],
      "identifier": [ {
        "type": {
          "coding": [ {
            "system": "http://terminology.hl7.org/CodeSystem/v2-0203",
            "code": "MR"
          } ]
        },
        "system": "https://bonnie-fhir.healthit.gov/",
        "value": "657cbdc9b4f1f0343662347a"
      } ],
      "name": [ {
        "family": "MinimalPatientFail",
        "given": [ "MinimalPatientEncBeforeMP" ]
      } ],
      "gender": "female",
      "birthDate": "2008-01-01"
    },
    "request": {
      "method": "PUT",
      "url": "Patient/8d3864cd-d022-4067-941c-c42087e3bc86"
    }
  }, {
    "fullUrl": "https://madie.cms.gov/Encounter/772fc27e-32b2-4e1c-a92d-1d861a022fb3",
    "resource": {
      "resourceType": "Encounter",
      "id": "772fc27e-32b2-4e1c-a92d-1d861a022fb3",
      "meta": {
        "profile": [ "http://hl7.org/fhir/us/qicore/StructureDefinition/qicore-encounter" ]
      },
      "status": "finished",
      "class": {
        "system": "http://terminology.hl7.org/CodeSystem/v3-ActCode",
        "code": "ACUTE",
        "display": "inpatient acute"
      },
      "type": [ {
        "coding": [ {
          "system": "http://snomed.info/sct",
          "version": "2024",
          "code": "32485007",
          "display": "Hospital admission (procedure)",
          "userSelected": true
        } ]
      } ],
      "subject": {
        "reference": "Patient/8d3864cd-d022-4067-941c-c42087e3bc86"
      },
      "period": {
        "start": "2025-12-29T08:00:00.000+00:00",
        "end": "2025-12-31T09:15:00.000+00:00"
      }
    },
    "request": {
      "method": "PUT",
      "url": "Encounter/772fc27e-32b2-4e1c-a92d-1d861a022fb3"
    }
  }, {
    "fullUrl": "https://madie.cms.gov/Location/5d8b99c7-b588-47a0-a2d1-a555b2b5b8dd",
    "resource": {
      "resourceType": "Location",
      "id": "5d8b99c7-b588-47a0-a2d1-a555b2b5b8dd",
      "meta": {
        "profile": [ "http://hl7.org/fhir/us/qicore/StructureDefinition/qicore-location" ]
      },
      "identifier": [ {
        "use": "usual",
        "system": "http://exampleoflocation.com",
        "value": "B1-S.F2"
      } ],
      "name": "Medical Surgical East, first floor",
      "type": [ {
        "coding": [ {
          "system": "https://www.cdc.gov/nhsn/cdaportal/terminology/codesystem/hsloc.html",
          "code": "1028-0",
          "display": "Medical Cardiac Critical Care",
          "userSelected": true
        } ]
      } ]
    },
    "request": {
      "method": "PUT",
      "url": "Location/5d8b99c7-b588-47a0-a2d1-a555b2b5b8dd"
    }
  }, {
    "fullUrl": "https://madie.cms.gov/MedicationRequest/19c28a98-69bb-4198-9891-58667c9aab6e",
    "resource": {
      "resourceType": "MedicationRequest",
      "id": "19c28a98-69bb-4198-9891-58667c9aab6e",
      "meta": {
        "profile": [ "http://hl7.org/fhir/us/qicore/StructureDefinition/qicore-medicationrequest" ]
      },
      "status": "completed",
      "intent": "order",
      "medicationCodeableConcept": {
        "coding": [ {
          "system": "http://www.nlm.nih.gov/research/umls/rxnorm",
          "version": "06052023",
          "code": "1007184"
        } ]
      },
      "subject": {
        "reference": "Patient/8d3864cd-d022-4067-941c-c42087e3bc86"
      },
      "authoredOn": "2026-01-01T08:15:00.000+00:00",
      "requester": {
        "reference": "Practitioner/33d87640-6b2a-40b0-ab11-542478a88d5a"
      },
      "dosageInstruction": [ {
        "timing": {
          "repeat": {
            "boundsPeriod": {
              "start": "2025-01-01T08:15:00.000+00:00"
            }
          }
        }
      } ]
    },
    "request": {
      "method": "PUT",
      "url": "MedicationRequest/19c28a98-69bb-4198-9891-58667c9aab6e"
    }
  }, {
    "fullUrl": "https://madie.cms.gov/Coverage/8fd260e7-815b-4124-923a-70da0fbd6f07",
    "resource": {
      "resourceType": "Coverage",
      "id": "8fd260e7-815b-4124-923a-70da0fbd6f07",
      "meta": {
        "profile": [ "http://hl7.org/fhir/us/qicore/StructureDefinition/qicore-coverage" ]
      },
      "identifier": [ {
        "system": "http://benefitsinc.com/certificate",
        "value": "12345"
      } ],
      "status": "active",
      "type": {
        "coding": [ {
          "system": "https://nahdo.org/sopt",
          "version": "1.0.1",
          "code": "1",
          "display": "MEDICARE",
          "userSelected": true
        } ]
      },
      "subscriberId": "AB9876",
      "beneficiary": {
        "reference": "Patient/8d3864cd-d022-4067-941c-c42087e3bc86"
      },
      "relationship": {
        "coding": [ {
          "system": "http://terminology.hl7.org/CodeSystem/subscriber-relationship",
          "code": "self"
        } ]
      },
      "period": {
        "start": "2026-01-01T00:00:00.000+00:00",
        "end": "2027-03-26T08:15:00.000+00:00"
      },
      "payor": [ {
        "reference": "Organization/bd3b4652-0934-4294-ae4d-37fd38a510bb"
      } ]
    },
    "request": {
      "method": "PUT",
      "url": "Coverage/8fd260e7-815b-4124-923a-70da0fbd6f07"
    }
  }, {
    "fullUrl": "https://madie.cms.gov/Organization/bd3b4652-0934-4294-ae4d-37fd38a510bb",
    "resource": {
      "resourceType": "Organization",
      "id": "bd3b4652-0934-4294-ae4d-37fd38a510bb",
      "meta": {
        "profile": [ "http://hl7.org/fhir/us/qicore/StructureDefinition/qicore-organization" ]
      },
      "identifier": [ {
        "use": "temp",
        "system": "urn:oid:2.16.840.1.113883.4.4",
        "value": "21-3259825"
      } ],
      "active": true,
      "type": [ {
        "coding": [ {
          "system": "http://terminology.hl7.org/CodeSystem/organization-type",
          "code": "pay",
          "display": "Payer"
        } ]
      } ],
      "name": "Blue Cross Blue Shield of Texas",
      "telecom": [ {
        "system": "phone",
        "value": "(+1) 972-766-6900"
      } ],
      "address": [ {
        "use": "billing",
        "type": "postal",
        "line": [ "P.O. Box 660044" ],
        "city": "Dallas",
        "state": "TX",
        "postalCode": "75266-0044",
        "country": "USA"
      } ]
    },
    "request": {
      "method": "PUT",
      "url": "Organization/bd3b4652-0934-4294-ae4d-37fd38a510bb"
    }
  }, {
    "fullUrl": "https://madie.cms.gov/Practitioner/eab23537-465c-40e5-b89d-a9716191d6e5",
    "resource": {
      "resourceType": "Practitioner",
      "id": "eab23537-465c-40e5-b89d-a9716191d6e5",
      "meta": {
        "profile": [ "http://hl7.org/fhir/us/qicore/StructureDefinition/qicore-practitioner" ]
      },
      "identifier": [ {
        "system": "http://hl7.org/fhir/sid/us-npi",
        "value": "0723660813"
      } ],
      "name": [ {
        "family": "Evil",
        "prefix": [ "Dr" ]
      } ]
    },
    "request": {
      "method": "PUT",
      "url": "Practitioner/eab23537-465c-40e5-b89d-a9716191d6e5"
    }
  }, {
    "fullUrl": "https://madie.cms.gov/MeasureReport/9cc9c7a2-8fac-4085-b92d-018e87c3be00",
    "resource": {
      "resourceType": "MeasureReport",
      "id": "9cc9c7a2-8fac-4085-b92d-018e87c3be00",
      "meta": {
        "profile": [ "http://hl7.org/fhir/us/cqfmeasures/StructureDefinition/test-case-cqfm" ]
      },
      "contained": [ {
        "resourceType": "Parameters",
        "id": "5531b3b7-9a6c-4f56-9d77-2ce2563dd173-parameters",
        "parameter": [ {
          "name": "subject",
          "valueString": "8d3864cd-d022-4067-941c-c42087e3bc86"
        } ]
      } ],
      "extension": [ {
        "url": "http://hl7.org/fhir/StructureDefinition/cqf-inputParameters",
        "valueReference": {
          "reference": "#5531b3b7-9a6c-4f56-9d77-2ce2563dd173-parameters"
        }
      }, {
        "url": "http://hl7.org/fhir/us/cqfmeasures/StructureDefinition/cqfm-testCaseDescription",
        "valueMarkdown": "Minimal patient SDE fails, encounter before MP"
      } ],
      "modifierExtension": [ {
        "url": "http://hl7.org/fhir/us/cqfmeasures/StructureDefinition/cqfm-isTestCase",
        "valueBoolean": true
      } ],
      "status": "complete",
      "type": "individual",
      "measure": "https://madie.cms.gov/Measure/NHSNGlycemicControlHypoglycemiaInitialPopulation",
      "period": {
        "start": "2026-01-01",
        "end": "2026-12-31"
      },
      "group": [ {
        "id": "Group_1",
        "population": [ {
          "id": "InitialPopulation_1",
          "code": {
            "coding": [ {
              "system": "http://terminology.hl7.org/CodeSystem/measure-population",
              "code": "initial-population",
              "display": "Initial Population"
            } ]
          },
          "count": 0
        } ],
        "measureScore": {
          "value": 0.0
        }
      } ],
      "evaluatedResource": [ {
        "reference": "Patient/8d3864cd-d022-4067-941c-c42087e3bc86"
      }, {
        "reference": "Encounter/772fc27e-32b2-4e1c-a92d-1d861a022fb3"
      }, {
        "reference": "Location/5d8b99c7-b588-47a0-a2d1-a555b2b5b8dd"
      }, {
        "reference": "MedicationRequest/19c28a98-69bb-4198-9891-58667c9aab6e"
      }, {
        "reference": "Coverage/8fd260e7-815b-4124-923a-70da0fbd6f07"
      }, {
        "reference": "Organization/bd3b4652-0934-4294-ae4d-37fd38a510bb"
      }, {
        "reference": "Practitioner/eab23537-465c-40e5-b89d-a9716191d6e5"
      } ]
    },
    "request": {
      "method": "PUT",
      "url": "MeasureReport/9cc9c7a2-8fac-4085-b92d-018e87c3be00"
    }
  } ]
}