{
  "resourceType": "Bundle",
  "id": "DENEXPass-DementiaDoNotPerformIsFalse",
  "type": "transaction",
  "entry": [ {
    "fullUrl": "https://madie.cms.gov/Patient/2c55811b-1571-43e5-919c-f90bf763b3d4",
    "resource": {
      "resourceType": "Patient",
      "id": "2c55811b-1571-43e5-919c-f90bf763b3d4",
      "meta": {
        "profile": [ "http://hl7.org/fhir/us/qicore/StructureDefinition/qicore-patient" ]
      },
      "extension": [ {
        "url": "http://hl7.org/fhir/us/core/StructureDefinition/us-core-race",
        "extension": [ {
          "url": "ombCategory",
          "valueCoding": {
            "system": "urn:oid:2.16.840.1.113883.6.238",
            "code": "2028-9",
            "display": "Asian",
            "userSelected": true
          }
        }, {
          "url": "text",
          "valueString": "Asian"
        } ]
      }, {
        "url": "http://hl7.org/fhir/us/core/StructureDefinition/us-core-ethnicity",
        "extension": [ {
          "url": "ombCategory",
          "valueCoding": {
            "system": "urn:oid:2.16.840.1.113883.6.238",
            "code": "2135-2",
            "display": "Hispanic or Latino",
            "userSelected": true
          }
        }, {
          "url": "text",
          "valueString": "Hispanic or Latino"
        } ]
      } ],
      "identifier": [ {
        "type": {
          "coding": [ {
            "system": "http://terminology.hl7.org/CodeSystem/v2-0203",
            "code": "MR"
          } ]
        },
        "system": "http://hospital.smarthealthit.org",
        "value": "999999995"
      } ],
      "name": [ {
        "family": "DENEXPass",
        "given": [ "DementiaDoNotPerformIsFalse" ]
      } ],
      "gender": "female",
      "birthDate": "1959-12-31"
    },
    "request": {
      "method": "PUT",
      "url": "Patient/2c55811b-1571-43e5-919c-f90bf763b3d4"
    }
  }, {
    "fullUrl": "https://madie.cms.gov/Encounter/80571d26-cfca-4f25-8a1f-3212ece20a5d",
    "resource": {
      "resourceType": "Encounter",
      "id": "80571d26-cfca-4f25-8a1f-3212ece20a5d",
      "meta": {
        "profile": [ "http://hl7.org/fhir/us/qicore/StructureDefinition/qicore-encounter" ]
      },
      "status": "finished",
      "class": {
        "system": "http://terminology.hl7.org/CodeSystem/v3-ActCode",
        "code": "AMB",
        "display": "ambulatory"
      },
      "type": [ {
        "coding": [ {
          "system": "http://snomed.info/sct",
          "code": "3391000175108",
          "display": "Office visit for pediatric care and assessment (procedure)"
        } ]
      } ],
      "subject": {
        "reference": "Patient/2c55811b-1571-43e5-919c-f90bf763b3d4"
      },
      "period": {
        "start": "2026-01-01T00:00:00.000+00:00",
        "end": "2026-01-01T01:00:00.000+00:00"
      }
    },
    "request": {
      "method": "PUT",
      "url": "Encounter/80571d26-cfca-4f25-8a1f-3212ece20a5d"
    }
  }, {
    "fullUrl": "https://madie.cms.gov/Condition/7d0290f0-41f2-454e-880f-1206fff9cc96",
    "resource": {
      "resourceType": "Condition",
      "id": "7d0290f0-41f2-454e-880f-1206fff9cc96",
      "meta": {
        "profile": [ "http://hl7.org/fhir/us/qicore/StructureDefinition/qicore-condition-problems-health-concerns" ]
      },
      "clinicalStatus": {
        "coding": [ {
          "system": "http://terminology.hl7.org/CodeSystem/condition-clinical",
          "code": "active"
        } ]
      },
      "category": [ {
        "coding": [ {
          "system": "http://terminology.hl7.org/CodeSystem/condition-category",
          "code": "problem-list-item",
          "display": "Problem List Item"
        } ]
      } ],
      "code": {
        "coding": [ {
          "system": "http://snomed.info/sct",
          "code": "371125006",
          "display": "Labile essential hypertension (disorder)"
        } ]
      },
      "subject": {
        "reference": "Patient/2c55811b-1571-43e5-919c-f90bf763b3d4"
      },
      "onsetDateTime": "2026-06-30T23:59:59.000+00:00"
    },
    "request": {
      "method": "PUT",
      "url": "Condition/7d0290f0-41f2-454e-880f-1206fff9cc96"
    }
  }, {
    "fullUrl": "https://madie.cms.gov/MedicationRequest/d881454b-ac5c-422a-a61f-582c893ba46e",
    "resource": {
      "resourceType": "MedicationRequest",
      "id": "d881454b-ac5c-422a-a61f-582c893ba46e",
      "meta": {
        "profile": [ "http://hl7.org/fhir/us/qicore/StructureDefinition/qicore-medicationrequest" ]
      },
      "status": "active",
      "intent": "order",
      "doNotPerform": false,
      "medicationCodeableConcept": {
        "coding": [ {
          "system": "http://www.nlm.nih.gov/research/umls/rxnorm",
          "code": "312836",
          "display": "rivastigmine 6 MG Oral Capsule"
        } ]
      },
      "subject": {
        "reference": "Patient/2c55811b-1571-43e5-919c-f90bf763b3d4"
      },
      "authoredOn": "2026-12-30T00:00:00.000+00:00",
      "requester": {
        "reference": "Practitioner/example"
      },
      "dispenseRequest": {
        "expectedSupplyDuration": {
          "value": 90,
          "system": "http://unitsofmeasure.org",
          "code": "days"
        }
      }
    },
    "request": {
      "method": "PUT",
      "url": "MedicationRequest/d881454b-ac5c-422a-a61f-582c893ba46e"
    }
  }, {
    "fullUrl": "https://madie.cms.gov/DeviceRequest/e755d8db-bc5b-4e31-ba8d-cdfe96412f7c",
    "resource": {
      "resourceType": "DeviceRequest",
      "id": "e755d8db-bc5b-4e31-ba8d-cdfe96412f7c",
      "meta": {
        "profile": [ "http://hl7.org/fhir/us/qicore/StructureDefinition/qicore-devicerequest" ]
      },
      "modifierExtension": [ {
        "url": "http://hl7.org/fhir/5.0/StructureDefinition/extension-DeviceRequest.doNotPerform",
        "valueBoolean": false
      } ],
      "status": "completed",
      "intent": "order",
      "codeCodeableConcept": {
        "coding": [ {
          "system": "http://snomed.info/sct",
          "code": "183240000",
          "display": "Self-propelled wheelchair (physical object)"
        } ]
      },
      "subject": {
        "reference": "Patient/2c55811b-1571-43e5-919c-f90bf763b3d4"
      },
      "authoredOn": "2026-11-01T23:59:00.000+00:00"
    },
    "request": {
      "method": "PUT",
      "url": "DeviceRequest/e755d8db-bc5b-4e31-ba8d-cdfe96412f7c"
    }
  }, {
    "fullUrl": "https://madie.cms.gov/MeasureReport/75c17983-f022-41f6-8008-b1f8cc73f3c6",
    "resource": {
      "resourceType": "MeasureReport",
      "id": "75c17983-f022-41f6-8008-b1f8cc73f3c6",
      "meta": {
        "profile": [ "http://hl7.org/fhir/us/cqfmeasures/StructureDefinition/test-case-cqfm" ]
      },
      "contained": [ {
        "resourceType": "Parameters",
        "id": "73817797-5c3d-4f8d-9a5d-a5fa2794ba50-parameters",
        "parameter": [ {
          "name": "subject",
          "valueString": "2c55811b-1571-43e5-919c-f90bf763b3d4"
        } ]
      } ],
      "extension": [ {
        "url": "http://hl7.org/fhir/StructureDefinition/cqf-inputParameters",
        "valueReference": {
          "reference": "#73817797-5c3d-4f8d-9a5d-a5fa2794ba50-parameters"
        }
      }, {
        "url": "http://hl7.org/fhir/us/cqfmeasures/StructureDefinition/cqfm-testCaseDescription",
        "valueMarkdown": "Dementia medication request doNotPerform is set to false (also fixed in QICore STU6)."
      } ],
      "modifierExtension": [ {
        "url": "http://hl7.org/fhir/us/cqfmeasures/StructureDefinition/cqfm-isTestCase",
        "valueBoolean": true
      } ],
      "status": "complete",
      "type": "individual",
      "measure": "https://madie.cms.gov/Measure/CMS165FHIRControllingHighBP",
      "period": {
        "start": "2026-01-01",
        "end": "2026-12-31"
      },
      "group": [ {
        "id": "Group_1",
        "population": [ {
          "id": "InitialPopulation_1",
          "code": {
            "coding": [ {
              "system": "http://terminology.hl7.org/CodeSystem/measure-population",
              "code": "initial-population",
              "display": "Initial Population"
            } ]
          },
          "count": 1
        }, {
          "id": "Denominator_1",
          "code": {
            "coding": [ {
              "system": "http://terminology.hl7.org/CodeSystem/measure-population",
              "code": "denominator",
              "display": "Denominator"
            } ]
          },
          "count": 1
        }, {
          "id": "DenominatorExclusion_1",
          "code": {
            "coding": [ {
              "system": "http://terminology.hl7.org/CodeSystem/measure-population",
              "code": "denominator-exclusion",
              "display": "Denominator Exclusion"
            } ]
          },
          "count": 1
        }, {
          "id": "Numerator_1",
          "code": {
            "coding": [ {
              "system": "http://terminology.hl7.org/CodeSystem/measure-population",
              "code": "numerator",
              "display": "Numerator"
            } ]
          },
          "count": 0
        } ],
        "measureScore": {
          "value": 1.0
        }
      } ],
      "evaluatedResource": [ {
        "reference": "Patient/2c55811b-1571-43e5-919c-f90bf763b3d4"
      }, {
        "reference": "Encounter/80571d26-cfca-4f25-8a1f-3212ece20a5d"
      }, {
        "reference": "Condition/7d0290f0-41f2-454e-880f-1206fff9cc96"
      }, {
        "reference": "MedicationRequest/d881454b-ac5c-422a-a61f-582c893ba46e"
      }, {
        "reference": "DeviceRequest/e755d8db-bc5b-4e31-ba8d-cdfe96412f7c"
      } ]
    },
    "request": {
      "method": "PUT",
      "url": "MeasureReport/75c17983-f022-41f6-8008-b1f8cc73f3c6"
    }
  } ]
}