{
  "resourceType": "Bundle",
  "id": "62fd29d432e2f917c3627d83",
  "type": "collection",
  "entry": [ {
    "fullUrl": "https://madie.cms.gov/Patient/84ed0de7-7cfb-4ac3-96a3-3c854eff391a",
    "resource": {
      "resourceType": "Patient",
      "id": "84ed0de7-7cfb-4ac3-96a3-3c854eff391a",
      "meta": {
        "profile": [ "http://hl7.org/fhir/us/qicore/StructureDefinition/qicore-patient" ]
      },
      "extension": [ {
        "url": "http://hl7.org/fhir/us/core/StructureDefinition/us-core-race",
        "extension": [ {
          "url": "ombCategory",
          "valueCoding": {
            "system": "urn:oid:2.16.840.1.113883.6.238",
            "code": "1002-5",
            "display": "American Indian or Alaska Native",
            "userSelected": true
          }
        }, {
          "url": "text",
          "valueString": "American Indian or Alaska Native"
        } ]
      }, {
        "url": "http://hl7.org/fhir/us/core/StructureDefinition/us-core-ethnicity",
        "extension": [ {
          "url": "ombCategory",
          "valueCoding": {
            "system": "urn:oid:2.16.840.1.113883.6.238",
            "code": "2135-2",
            "display": "Hispanic or Latino",
            "userSelected": true
          }
        }, {
          "url": "text",
          "valueString": "Hispanic or Latino"
        } ]
      } ],
      "identifier": [ {
        "type": {
          "coding": [ {
            "system": "http://terminology.hl7.org/CodeSystem/v2-0203",
            "code": "MR"
          } ]
        },
        "system": "https://bonnie-fhir.healthit.gov/",
        "value": "62fd29d432e2f917c3627d83"
      } ],
      "name": [ {
        "family": "DENOMPass",
        "given": [ "PSALessThan10BeforeTreatment" ]
      } ],
      "gender": "male",
      "birthDate": "1980-12-31"
    }
  }, {
    "fullUrl": "https://madie.cms.gov/Condition/56c073a5-7db7-4ecf-b8bd-4f759e7c26e4",
    "resource": {
      "resourceType": "Condition",
      "id": "56c073a5-7db7-4ecf-b8bd-4f759e7c26e4",
      "meta": {
        "profile": [ "http://hl7.org/fhir/us/qicore/StructureDefinition/qicore-condition-problems-health-concerns" ]
      },
      "clinicalStatus": {
        "coding": [ {
          "system": "http://terminology.hl7.org/CodeSystem/condition-clinical",
          "code": "active",
          "display": "active",
          "userSelected": true
        } ]
      },
      "category": [ {
        "coding": [ {
          "system": "http://terminology.hl7.org/CodeSystem/condition-category",
          "code": "problem-list-item",
          "display": "Problem List Item"
        }, {
          "system": "http://snomed.info/sct",
          "code": "439401001",
          "display": "Diagnosis"
        } ]
      } ],
      "code": {
        "coding": [ {
          "system": "http://snomed.info/sct",
          "code": "254900004",
          "display": "Carcinoma of prostate (disorder)",
          "userSelected": true
        } ]
      },
      "subject": {
        "reference": "Patient/84ed0de7-7cfb-4ac3-96a3-3c854eff391a"
      },
      "onsetPeriod": {
        "start": "2021-06-14T08:00:00.000+00:00"
      }
    }
  }, {
    "fullUrl": "https://madie.cms.gov/Procedure/5b9125c4-cd4c-419f-915a-354468551c14",
    "resource": {
      "resourceType": "Procedure",
      "id": "5b9125c4-cd4c-419f-915a-354468551c14",
      "meta": {
        "profile": [ "http://hl7.org/fhir/us/qicore/StructureDefinition/qicore-procedure" ]
      },
      "extension": [ {
        "url": "http://hl7.org/fhir/us/qicore/StructureDefinition/qicore-recorded",
        "valueDateTime": "2026-02-01T09:00:00.000+00:00"
      } ],
      "status": "completed",
      "code": {
        "coding": [ {
          "system": "http://snomed.info/sct",
          "code": "38915000",
          "display": "Radionuclide therapy for gland ablation (procedure)",
          "userSelected": true
        } ]
      },
      "subject": {
        "reference": "Patient/84ed0de7-7cfb-4ac3-96a3-3c854eff391a"
      },
      "performedDateTime": "2026-04-28T08:00:00.000+00:00"
    }
  }, {
    "fullUrl": "https://madie.cms.gov/Observation/bc7482da-73d7-491d-a8e6-d89cfb504c3a",
    "resource": {
      "resourceType": "Observation",
      "id": "bc7482da-73d7-491d-a8e6-d89cfb504c3a",
      "meta": {
        "profile": [ "http://hl7.org/fhir/us/qicore/StructureDefinition/qicore-observation-lab" ]
      },
      "status": "final",
      "category": [ {
        "coding": [ {
          "system": "http://terminology.hl7.org/CodeSystem/observation-category",
          "code": "laboratory",
          "display": "Laboratory"
        } ]
      } ],
      "code": {
        "coding": [ {
          "system": "http://loinc.org",
          "version": "2.72",
          "code": "2857-1",
          "display": "Prostate specific Ag [Mass/volume] in Serum or Plasma",
          "userSelected": true
        } ]
      },
      "subject": {
        "reference": "Patient/84ed0de7-7cfb-4ac3-96a3-3c854eff391a"
      },
      "effectiveDateTime": "2026-04-24T08:00:00.000+00:00",
      "valueQuantity": {
        "value": 9.9,
        "system": "http://unitsofmeasure.org",
        "code": "ng/mL"
      }
    }
  }, {
    "fullUrl": "https://madie.cms.gov/Observation/02f8ec80-c684-45c2-8b21-df82436c2c7b",
    "resource": {
      "resourceType": "Observation",
      "id": "02f8ec80-c684-45c2-8b21-df82436c2c7b",
      "meta": {
        "profile": [ "http://hl7.org/fhir/us/qicore/StructureDefinition/qicore-observation-clinical-result" ]
      },
      "status": "final",
      "category": [ {
        "coding": [ {
          "system": "http://terminology.hl7.org/CodeSystem/observation-category",
          "code": "procedure",
          "display": "Procedure"
        } ]
      } ],
      "code": {
        "coding": [ {
          "system": "http://loinc.org",
          "code": "35266-6",
          "display": "Gleason score in Specimen Qualitative",
          "userSelected": true
        } ]
      },
      "subject": {
        "reference": "Patient/84ed0de7-7cfb-4ac3-96a3-3c854eff391a"
      },
      "effectiveDateTime": "2026-01-02T08:00:00.000+00:00",
      "valueInteger": 5
    }
  }, {
    "fullUrl": "https://madie.cms.gov/Observation/655708d8-f130-4fc2-9eba-687bc15af734",
    "resource": {
      "resourceType": "Observation",
      "id": "655708d8-f130-4fc2-9eba-687bc15af734",
      "meta": {
        "profile": [ "http://hl7.org/fhir/us/qicore/StructureDefinition/qicore-observation-clinical-result" ]
      },
      "status": "final",
      "category": [ {
        "coding": [ {
          "system": "http://terminology.hl7.org/CodeSystem/observation-category",
          "code": "procedure",
          "display": "Procedure"
        } ]
      } ],
      "code": {
        "coding": [ {
          "system": "http://snomed.info/sct",
          "code": "254292007",
          "display": "Tumor staging (tumor staging)",
          "userSelected": true
        } ]
      },
      "subject": {
        "reference": "Patient/84ed0de7-7cfb-4ac3-96a3-3c854eff391a"
      },
      "focus": [ {
        "reference": "Condition/56c073a5-7db7-4ecf-b8bd-4f759e7c26e4"
      } ],
      "effectiveDateTime": "2026-04-26T08:00:00.000+00:00",
      "valueCodeableConcept": {
        "coding": [ {
          "system": "http://snomed.info/sct",
          "code": "1228931008",
          "display": "American Joint Committee on Cancer cT2a (qualifier value)",
          "userSelected": true
        } ]
      }
    }
  }, {
    "fullUrl": "https://madie.cms.gov/Observation/a2245d76-853d-4afb-85fc-9ab98278691e",
    "resource": {
      "resourceType": "Observation",
      "id": "a2245d76-853d-4afb-85fc-9ab98278691e",
      "meta": {
        "profile": [ "http://hl7.org/fhir/us/qicore/StructureDefinition/qicore-observation-clinical-result" ]
      },
      "status": "final",
      "category": [ {
        "coding": [ {
          "system": "http://terminology.hl7.org/CodeSystem/observation-category",
          "code": "procedure",
          "display": "Procedure"
        } ]
      } ],
      "code": {
        "coding": [ {
          "system": "http://loinc.org",
          "version": "2.72",
          "code": "25031-6",
          "display": "NM Bone Views",
          "userSelected": true
        } ]
      },
      "subject": {
        "reference": "Patient/84ed0de7-7cfb-4ac3-96a3-3c854eff391a"
      },
      "effectiveDateTime": "2026-08-17T08:00:00.000+00:00",
      "issued": "2026-08-17T08:00:00.000+00:00",
      "valueString": "Normal results found"
    }
  }, {
    "fullUrl": "https://madie.cms.gov/Observation/086bbaed-c2a8-43df-b207-a612634fdbe3",
    "resource": {
      "resourceType": "Observation",
      "id": "086bbaed-c2a8-43df-b207-a612634fdbe3",
      "meta": {
        "profile": [ "http://hl7.org/fhir/us/qicore/StructureDefinition/qicore-observation-lab" ]
      },
      "status": "final",
      "category": [ {
        "coding": [ {
          "system": "http://terminology.hl7.org/CodeSystem/observation-category",
          "code": "laboratory",
          "display": "Laboratory"
        } ]
      } ],
      "code": {
        "coding": [ {
          "system": "http://loinc.org",
          "version": "2.72",
          "code": "10508-0",
          "display": "Prostate specific Ag [Presence] in Tissue by Immune stain",
          "userSelected": true
        } ]
      },
      "subject": {
        "reference": "Patient/84ed0de7-7cfb-4ac3-96a3-3c854eff391a"
      },
      "effectiveDateTime": "2024-12-31T08:00:00.000+00:00",
      "valueQuantity": {
        "value": 15,
        "system": "http://unitsofmeasure.org",
        "code": "ng/mL"
      }
    }
  }, {
    "fullUrl": "https://madie.cms.gov/Observation/70684be6-9b9c-4cfa-9086-993605d47292",
    "resource": {
      "resourceType": "Observation",
      "id": "70684be6-9b9c-4cfa-9086-993605d47292",
      "meta": {
        "profile": [ "http://hl7.org/fhir/us/qicore/StructureDefinition/qicore-observation-lab" ]
      },
      "status": "final",
      "category": [ {
        "coding": [ {
          "system": "http://terminology.hl7.org/CodeSystem/observation-category",
          "code": "laboratory",
          "display": "Laboratory"
        } ]
      } ],
      "code": {
        "coding": [ {
          "system": "http://loinc.org",
          "version": "2.72",
          "code": "10508-0",
          "display": "Prostate specific Ag [Presence] in Tissue by Immune stain",
          "userSelected": true
        } ]
      },
      "subject": {
        "reference": "Patient/84ed0de7-7cfb-4ac3-96a3-3c854eff391a"
      },
      "effectiveDateTime": "2026-08-17T08:00:00.000+00:00",
      "valueQuantity": {
        "value": 12,
        "system": "http://unitsofmeasure.org",
        "code": "ng/mL"
      }
    }
  }, {
    "fullUrl": "https://madie.cms.gov/Coverage/14694903-f391-4a6e-be52-19f5b3e06b5a",
    "resource": {
      "resourceType": "Coverage",
      "id": "14694903-f391-4a6e-be52-19f5b3e06b5a",
      "meta": {
        "profile": [ "http://hl7.org/fhir/us/qicore/StructureDefinition/qicore-coverage" ]
      },
      "status": "active",
      "subscriberId": "123456789",
      "beneficiary": {
        "reference": "Patient/84ed0de7-7cfb-4ac3-96a3-3c854eff391a"
      },
      "relationship": {
        "coding": [ {
          "system": "http://terminology.hl7.org/CodeSystem/subscriber-relationship",
          "code": "self",
          "display": "Self",
          "userSelected": true
        } ]
      },
      "payor": [ {
        "reference": "Organization/e35bfe10-b55b-4bd9-bf8c-8d6c9e4c1415"
      } ]
    }
  }, {
    "fullUrl": "https://madie.cms.gov/Organization/e35bfe10-b55b-4bd9-bf8c-8d6c9e4c1415",
    "resource": {
      "resourceType": "Organization",
      "id": "e35bfe10-b55b-4bd9-bf8c-8d6c9e4c1415",
      "meta": {
        "profile": [ "http://hl7.org/fhir/us/qicore/StructureDefinition/qicore-organization" ]
      },
      "identifier": [ {
        "use": "temp",
        "system": "urn:oid:2.16.840.1.113883.4.4",
        "value": "21-3259825"
      } ],
      "active": true,
      "type": [ {
        "coding": [ {
          "system": "http://terminology.hl7.org/CodeSystem/organization-type",
          "code": "pay",
          "display": "Payer"
        } ]
      } ],
      "name": "Blue Cross Blue Shield of Texas",
      "telecom": [ {
        "system": "phone",
        "value": "(+1) 972-766-6900"
      } ],
      "address": [ {
        "use": "billing",
        "type": "postal",
        "line": [ "P.O. Box 660044" ],
        "city": "Dallas",
        "state": "TX",
        "postalCode": "75266-0044",
        "country": "USA"
      } ]
    }
  }, {
    "fullUrl": "https://madie.cms.gov/Practitioner/e3bc3cae-c2c7-4671-93e1-7cfc9c7d1e65",
    "resource": {
      "resourceType": "Practitioner",
      "id": "e3bc3cae-c2c7-4671-93e1-7cfc9c7d1e65",
      "meta": {
        "profile": [ "http://hl7.org/fhir/us/qicore/StructureDefinition/qicore-practitioner" ]
      },
      "identifier": [ {
        "system": "http://hl7.org/fhir/sid/us-npi",
        "value": "1234567893"
      } ],
      "name": [ {
        "family": "Evil",
        "prefix": [ "Dr" ]
      } ]
    }
  }, {
    "fullUrl": "https://madie.cms.gov/MeasureReport/edde43ad-6227-4191-a938-18d954b2ae6b",
    "resource": {
      "resourceType": "MeasureReport",
      "id": "edde43ad-6227-4191-a938-18d954b2ae6b",
      "meta": {
        "profile": [ "http://hl7.org/fhir/us/cqfmeasures/StructureDefinition/test-case-cqfm" ]
      },
      "contained": [ {
        "resourceType": "Parameters",
        "id": "605ab113-8777-492f-9c6d-f8458b0a9795-parameters",
        "parameter": [ {
          "name": "subject",
          "valueString": "84ed0de7-7cfb-4ac3-96a3-3c854eff391a"
        } ]
      } ],
      "extension": [ {
        "url": "http://hl7.org/fhir/StructureDefinition/cqf-inputParameters",
        "valueReference": {
          "reference": "#605ab113-8777-492f-9c6d-f8458b0a9795-parameters"
        }
      }, {
        "url": "http://hl7.org/fhir/us/cqfmeasures/StructureDefinition/cqfm-testCaseDescription",
        "valueMarkdown": "Active Prostate Ca Diagnosis and meets all other denominator criteria (first treatment, tumor staging, PSA test, Gleason). Testing multiple PSA results with most recent  before treatment less than 10.\n"
      } ],
      "modifierExtension": [ {
        "url": "http://hl7.org/fhir/us/cqfmeasures/StructureDefinition/cqfm-isTestCase",
        "valueBoolean": true
      } ],
      "status": "complete",
      "type": "individual",
      "measure": "https://madie.cms.gov/Measure/CMS129FHIRProstCaBoneScanUse",
      "period": {
        "start": "2026-01-01",
        "end": "2026-12-31"
      },
      "group": [ {
        "id": "Group_1",
        "population": [ {
          "id": "InitialPopulation_1",
          "code": {
            "coding": [ {
              "system": "http://terminology.hl7.org/CodeSystem/measure-population",
              "code": "initial-population",
              "display": "Initial Population"
            } ]
          },
          "count": 1
        }, {
          "id": "Denominator_1",
          "code": {
            "coding": [ {
              "system": "http://terminology.hl7.org/CodeSystem/measure-population",
              "code": "denominator",
              "display": "Denominator"
            } ]
          },
          "count": 1
        }, {
          "id": "Numerator_1",
          "code": {
            "coding": [ {
              "system": "http://terminology.hl7.org/CodeSystem/measure-population",
              "code": "numerator",
              "display": "Numerator"
            } ]
          },
          "count": 0
        }, {
          "id": "DenominatorException_1",
          "code": {
            "coding": [ {
              "system": "http://terminology.hl7.org/CodeSystem/measure-population",
              "code": "denominator-exception",
              "display": "Denominator Exception"
            } ]
          },
          "count": 0
        } ],
        "measureScore": {
          "value": 1.0
        }
      } ],
      "evaluatedResource": [ {
        "reference": "Patient/84ed0de7-7cfb-4ac3-96a3-3c854eff391a"
      }, {
        "reference": "Condition/56c073a5-7db7-4ecf-b8bd-4f759e7c26e4"
      }, {
        "reference": "Procedure/5b9125c4-cd4c-419f-915a-354468551c14"
      }, {
        "reference": "Observation/bc7482da-73d7-491d-a8e6-d89cfb504c3a"
      }, {
        "reference": "Observation/02f8ec80-c684-45c2-8b21-df82436c2c7b"
      }, {
        "reference": "Observation/655708d8-f130-4fc2-9eba-687bc15af734"
      }, {
        "reference": "Observation/a2245d76-853d-4afb-85fc-9ab98278691e"
      }, {
        "reference": "Observation/086bbaed-c2a8-43df-b207-a612634fdbe3"
      }, {
        "reference": "Observation/70684be6-9b9c-4cfa-9086-993605d47292"
      }, {
        "reference": "Coverage/14694903-f391-4a6e-be52-19f5b3e06b5a"
      }, {
        "reference": "Organization/e35bfe10-b55b-4bd9-bf8c-8d6c9e4c1415"
      }, {
        "reference": "Practitioner/e3bc3cae-c2c7-4671-93e1-7cfc9c7d1e65"
      } ]
    }
  } ]
}