{
  "resourceType": "Bundle",
  "id": "tests-8942da50-6322-4df7-bd03-21aecbc427a4-bundle",
  "type": "transaction",
  "entry": [ {
    "fullUrl": "https://madie.cms.gov/Procedure/a57471db-dd85-43ff-b417-e9bfda9e0a4e",
    "resource": {
      "resourceType": "Procedure",
      "id": "a57471db-dd85-43ff-b417-e9bfda9e0a4e",
      "meta": {
        "profile": [ "http://hl7.org/fhir/us/qicore/StructureDefinition/qicore-procedure" ]
      },
      "extension": [ {
        "url": "http://hl7.org/fhir/us/qicore/StructureDefinition/qicore-recorded",
        "valueDateTime": "2026-04-13T10:20:00.000+00:00"
      } ],
      "status": "completed",
      "code": {
        "coding": [ {
          "system": "http://www.cms.gov/Medicare/Coding/ICD10",
          "code": "0BH13EZ",
          "display": "Insertion of Endotracheal Airway into Trachea, Percutaneous Approach"
        } ],
        "text": "Insertion of Endotracheal Airway into Trachea, Percutaneous Approach"
      },
      "subject": {
        "reference": "Patient/8942da50-6322-4df7-bd03-21aecbc427a4"
      },
      "performedPeriod": {
        "start": "2026-04-12T08:00:00.000+00:00",
        "end": "2026-04-13T10:15:00.000+00:00"
      }
    },
    "request": {
      "method": "PUT",
      "url": "Procedure/a57471db-dd85-43ff-b417-e9bfda9e0a4e"
    }
  }, {
    "fullUrl": "https://madie.cms.gov/Procedure/3529e3cc-c8ef-491d-9096-b7a3f6404c83",
    "resource": {
      "resourceType": "Procedure",
      "id": "3529e3cc-c8ef-491d-9096-b7a3f6404c83",
      "meta": {
        "profile": [ "http://hl7.org/fhir/us/qicore/StructureDefinition/qicore-procedure" ]
      },
      "extension": [ {
        "url": "http://hl7.org/fhir/us/qicore/StructureDefinition/qicore-recorded",
        "valueDateTime": "2026-04-11T10:30:00.000+00:00"
      } ],
      "status": "completed",
      "category": {
        "coding": [ {
          "system": "http://snomed.info/sct",
          "code": "18286008",
          "display": "General or neuraxial anesthesia"
        } ]
      },
      "code": {
        "coding": [ {
          "system": "http://snomed.info/sct",
          "code": "112943005",
          "display": "Epidural injection of anesthetic substance, diagnostic, caudal, continuous"
        } ]
      },
      "subject": {
        "reference": "Patient/8942da50-6322-4df7-bd03-21aecbc427a4"
      },
      "performedPeriod": {
        "start": "2026-04-11T08:00:00.000+00:00",
        "end": "2026-04-11T10:15:00.000+00:00"
      }
    },
    "request": {
      "method": "PUT",
      "url": "Procedure/3529e3cc-c8ef-491d-9096-b7a3f6404c83"
    }
  }, {
    "fullUrl": "https://madie.cms.gov/Procedure/22d1d6e1-af4c-4d3c-9f0d-208cef932a86",
    "resource": {
      "resourceType": "Procedure",
      "id": "22d1d6e1-af4c-4d3c-9f0d-208cef932a86",
      "meta": {
        "profile": [ "http://hl7.org/fhir/us/qicore/StructureDefinition/qicore-procedure" ]
      },
      "extension": [ {
        "url": "http://hl7.org/fhir/us/qicore/StructureDefinition/qicore-recorded",
        "valueDateTime": "2026-04-19T10:30:00.000+00:00"
      } ],
      "status": "completed",
      "category": {
        "coding": [ {
          "system": "http://snomed.info/sct",
          "code": "18286008",
          "display": "General or neuraxial anesthesia"
        } ]
      },
      "code": {
        "coding": [ {
          "system": "http://snomed.info/sct",
          "code": "112943005",
          "display": "Epidural injection of anesthetic substance, diagnostic, caudal, continuous"
        } ]
      },
      "subject": {
        "reference": "Patient/8942da50-6322-4df7-bd03-21aecbc427a4"
      },
      "performedPeriod": {
        "start": "2026-04-19T08:00:00.000+00:00",
        "end": "2026-04-19T10:15:00.000+00:00"
      }
    },
    "request": {
      "method": "PUT",
      "url": "Procedure/22d1d6e1-af4c-4d3c-9f0d-208cef932a86"
    }
  }, {
    "fullUrl": "https://madie.cms.gov/Encounter/b6b056f2-fd04-4c38-bc42-37840961e66b",
    "resource": {
      "resourceType": "Encounter",
      "id": "b6b056f2-fd04-4c38-bc42-37840961e66b",
      "meta": {
        "profile": [ "http://hl7.org/fhir/us/qicore/StructureDefinition/qicore-encounter" ]
      },
      "status": "finished",
      "class": {
        "system": "http://terminology.hl7.org/CodeSystem/v3-ActCode",
        "code": "IMP",
        "display": "inpatient encounter"
      },
      "type": [ {
        "coding": [ {
          "system": "http://snomed.info/sct",
          "code": "112689000",
          "display": "Hospital admission, elective, with complete pre-admission work-up"
        } ],
        "text": "Hospital admission, elective, with complete pre-admission work-up"
      } ],
      "priority": {
        "coding": [ {
          "system": "http://snomed.info/sct",
          "code": "103390000"
        } ]
      },
      "subject": {
        "reference": "Patient/8942da50-6322-4df7-bd03-21aecbc427a4"
      },
      "period": {
        "start": "2026-04-10T08:00:00.000+00:00",
        "end": "2026-04-14T08:15:00.000+00:00"
      }
    },
    "request": {
      "method": "PUT",
      "url": "Encounter/b6b056f2-fd04-4c38-bc42-37840961e66b"
    }
  }, {
    "fullUrl": "https://madie.cms.gov/Patient/8942da50-6322-4df7-bd03-21aecbc427a4",
    "resource": {
      "resourceType": "Patient",
      "id": "8942da50-6322-4df7-bd03-21aecbc427a4",
      "meta": {
        "profile": [ "http://hl7.org/fhir/us/qicore/StructureDefinition/qicore-patient" ]
      },
      "extension": [ {
        "url": "http://hl7.org/fhir/us/core/StructureDefinition/us-core-race",
        "extension": [ {
          "url": "ombCategory",
          "valueCoding": {
            "system": "urn:oid:2.16.840.1.113883.6.238",
            "code": "1002-5",
            "display": "American Indian or Alaska Native",
            "userSelected": true
          }
        }, {
          "url": "text",
          "valueString": "American Indian or Alaska Native"
        } ]
      }, {
        "url": "http://hl7.org/fhir/us/core/StructureDefinition/us-core-ethnicity",
        "extension": [ {
          "url": "ombCategory",
          "valueCoding": {
            "system": "urn:oid:2.16.840.1.113883.6.238",
            "code": "2186-5",
            "display": "Not Hispanic or Latino",
            "userSelected": true
          }
        }, {
          "url": "text",
          "valueString": "Not Hispanic or Latino"
        } ]
      } ],
      "identifier": [ {
        "type": {
          "coding": [ {
            "system": "http://terminology.hl7.org/CodeSystem/v2-0203",
            "code": "MR"
          } ]
        },
        "system": "https://bonnie-fhir.healthit.gov/",
        "value": "61152a3b98086b7a79cbd7c1"
      } ],
      "active": true,
      "name": [ {
        "use": "usual",
        "family": "DENEXFail",
        "given": [ "2Enc1stMVexc2ndNum" ]
      } ],
      "gender": "male",
      "birthDate": "1966-07-12"
    },
    "request": {
      "method": "PUT",
      "url": "Patient/8942da50-6322-4df7-bd03-21aecbc427a4"
    }
  }, {
    "fullUrl": "https://madie.cms.gov/Procedure/ba2328e1-6f0a-4afd-aa9c-77407e078e18",
    "resource": {
      "resourceType": "Procedure",
      "id": "ba2328e1-6f0a-4afd-aa9c-77407e078e18",
      "meta": {
        "profile": [ "http://hl7.org/fhir/us/qicore/StructureDefinition/qicore-procedure" ]
      },
      "extension": [ {
        "url": "http://hl7.org/fhir/us/qicore/StructureDefinition/qicore-recorded",
        "valueDateTime": "2026-04-20T08:10:00.000+00:00"
      } ],
      "status": "completed",
      "code": {
        "coding": [ {
          "system": "http://www.cms.gov/Medicare/Coding/ICD10",
          "code": "0BH13EZ",
          "display": "Insertion of Endotracheal Airway into Trachea, Percutaneous Approach"
        } ],
        "text": "Insertion of Endotracheal Airway into Trachea, Percutaneous Approach"
      },
      "subject": {
        "reference": "Patient/8942da50-6322-4df7-bd03-21aecbc427a4"
      },
      "performedDateTime": "2026-04-20T08:00:00.000+00:00"
    },
    "request": {
      "method": "PUT",
      "url": "Procedure/ba2328e1-6f0a-4afd-aa9c-77407e078e18"
    }
  }, {
    "fullUrl": "https://madie.cms.gov/Procedure/78dbf62e-f921-44a1-ad22-e4a1a586a7ff",
    "resource": {
      "resourceType": "Procedure",
      "id": "78dbf62e-f921-44a1-ad22-e4a1a586a7ff",
      "meta": {
        "profile": [ "http://hl7.org/fhir/us/qicore/StructureDefinition/qicore-procedure" ]
      },
      "extension": [ {
        "url": "http://hl7.org/fhir/us/qicore/StructureDefinition/qicore-recorded",
        "valueDateTime": "2026-04-11T06:10:00.000+00:00"
      } ],
      "status": "completed",
      "code": {
        "coding": [ {
          "system": "http://snomed.info/sct",
          "code": "243141005",
          "display": "Mechanically assisted spontaneous ventilation"
        } ],
        "text": "Mechanically assisted spontaneous ventilation"
      },
      "subject": {
        "reference": "Patient/8942da50-6322-4df7-bd03-21aecbc427a4"
      },
      "performedDateTime": "2026-04-11T06:59:00.000+00:00"
    },
    "request": {
      "method": "PUT",
      "url": "Procedure/78dbf62e-f921-44a1-ad22-e4a1a586a7ff"
    }
  }, {
    "fullUrl": "https://madie.cms.gov/Encounter/cf1634b1-d0ba-4f1f-8ba3-76921186bd40",
    "resource": {
      "resourceType": "Encounter",
      "id": "cf1634b1-d0ba-4f1f-8ba3-76921186bd40",
      "meta": {
        "profile": [ "http://hl7.org/fhir/us/qicore/StructureDefinition/qicore-encounter" ]
      },
      "status": "finished",
      "class": {
        "system": "http://terminology.hl7.org/CodeSystem/v3-ActCode",
        "code": "IMP",
        "display": "inpatient encounter"
      },
      "type": [ {
        "coding": [ {
          "system": "http://snomed.info/sct",
          "code": "112689000",
          "display": "Hospital admission, elective, with complete pre-admission work-up"
        } ],
        "text": "Hospital admission, elective, with complete pre-admission work-up"
      } ],
      "priority": {
        "coding": [ {
          "system": "http://snomed.info/sct",
          "code": "103390000"
        } ]
      },
      "subject": {
        "reference": "Patient/8942da50-6322-4df7-bd03-21aecbc427a4"
      },
      "period": {
        "start": "2026-04-18T08:00:00.000+00:00",
        "end": "2026-04-22T08:15:00.000+00:00"
      }
    },
    "request": {
      "method": "PUT",
      "url": "Encounter/cf1634b1-d0ba-4f1f-8ba3-76921186bd40"
    }
  }, {
    "fullUrl": "https://madie.cms.gov/MeasureReport/290e5b8b-f5dc-4ca4-ad73-93505abc87bd",
    "resource": {
      "resourceType": "MeasureReport",
      "id": "290e5b8b-f5dc-4ca4-ad73-93505abc87bd",
      "meta": {
        "profile": [ "http://hl7.org/fhir/us/cqfmeasures/StructureDefinition/test-case-cqfm" ]
      },
      "contained": [ {
        "resourceType": "Parameters",
        "id": "6d495a27-c670-461c-b884-93b4b91c8123-parameters",
        "parameter": [ {
          "name": "subject",
          "valueString": "8942da50-6322-4df7-bd03-21aecbc427a4"
        } ]
      } ],
      "extension": [ {
        "url": "http://hl7.org/fhir/StructureDefinition/cqf-inputParameters",
        "valueReference": {
          "reference": "#6d495a27-c670-461c-b884-93b4b91c8123-parameters"
        }
      }, {
        "url": "http://hl7.org/fhir/us/cqfmeasures/StructureDefinition/cqfm-testCaseDescription",
        "valueMarkdown": "1st encounter excluded - MV starts more than 1 hr prior to first proc. 2nd encounter meets numerator 1 intubation outside of procedural area. "
      } ],
      "modifierExtension": [ {
        "url": "http://hl7.org/fhir/us/cqfmeasures/StructureDefinition/cqfm-isTestCase",
        "valueBoolean": true
      } ],
      "status": "complete",
      "type": "individual",
      "measure": "https://madie.cms.gov/Measure/CMS1218FHIRHHRF",
      "period": {
        "start": "2026-01-01",
        "end": "2026-12-31"
      },
      "group": [ {
        "id": "Group_1",
        "population": [ {
          "id": "InitialPopulation_1",
          "code": {
            "coding": [ {
              "system": "http://terminology.hl7.org/CodeSystem/measure-population",
              "code": "initial-population",
              "display": "Initial Population"
            } ]
          },
          "count": 2
        }, {
          "id": "Denominator_1",
          "code": {
            "coding": [ {
              "system": "http://terminology.hl7.org/CodeSystem/measure-population",
              "code": "denominator",
              "display": "Denominator"
            } ]
          },
          "count": 2
        }, {
          "id": "DenominatorExclusion_1",
          "code": {
            "coding": [ {
              "system": "http://terminology.hl7.org/CodeSystem/measure-population",
              "code": "denominator-exclusion",
              "display": "Denominator Exclusion"
            } ]
          },
          "count": 1
        }, {
          "id": "Numerator_1",
          "code": {
            "coding": [ {
              "system": "http://terminology.hl7.org/CodeSystem/measure-population",
              "code": "numerator",
              "display": "Numerator"
            } ]
          },
          "count": 1
        } ],
        "measureScore": {
          "value": 0.0
        }
      } ],
      "evaluatedResource": [ {
        "reference": "Procedure/a57471db-dd85-43ff-b417-e9bfda9e0a4e"
      }, {
        "reference": "Procedure/3529e3cc-c8ef-491d-9096-b7a3f6404c83"
      }, {
        "reference": "Procedure/22d1d6e1-af4c-4d3c-9f0d-208cef932a86"
      }, {
        "reference": "Encounter/b6b056f2-fd04-4c38-bc42-37840961e66b"
      }, {
        "reference": "Patient/8942da50-6322-4df7-bd03-21aecbc427a4"
      }, {
        "reference": "Procedure/ba2328e1-6f0a-4afd-aa9c-77407e078e18"
      }, {
        "reference": "Procedure/78dbf62e-f921-44a1-ad22-e4a1a586a7ff"
      }, {
        "reference": "Encounter/cf1634b1-d0ba-4f1f-8ba3-76921186bd40"
      } ]
    },
    "request": {
      "method": "PUT",
      "url": "MeasureReport/290e5b8b-f5dc-4ca4-ad73-93505abc87bd"
    }
  } ]
}