{
  "resourceType": "Bundle",
  "id": "63f628d8d289cd498bb84238",
  "type": "collection",
  "entry": [ {
    "fullUrl": "https://madie.cms.gov/Patient/3783189c-3c29-4687-9f89-c3306c6d28fd",
    "resource": {
      "resourceType": "Patient",
      "id": "3783189c-3c29-4687-9f89-c3306c6d28fd",
      "meta": {
        "profile": [ "http://hl7.org/fhir/us/qicore/StructureDefinition/qicore-patient" ]
      },
      "extension": [ {
        "url": "http://hl7.org/fhir/us/core/StructureDefinition/us-core-race",
        "extension": [ {
          "url": "ombCategory",
          "valueCoding": {
            "system": "urn:oid:2.16.840.1.113883.6.238",
            "code": "2028-9",
            "display": "Asian",
            "userSelected": true
          }
        }, {
          "url": "text",
          "valueString": "Asian"
        } ]
      }, {
        "url": "http://hl7.org/fhir/us/core/StructureDefinition/us-core-ethnicity",
        "extension": [ {
          "url": "ombCategory",
          "valueCoding": {
            "system": "urn:oid:2.16.840.1.113883.6.238",
            "code": "2135-2",
            "display": "Hispanic or Latino",
            "userSelected": true
          }
        }, {
          "url": "text",
          "valueString": "Hispanic or Latino"
        } ]
      } ],
      "identifier": [ {
        "type": {
          "coding": [ {
            "system": "http://terminology.hl7.org/CodeSystem/v2-0203",
            "code": "MR"
          } ]
        },
        "system": "https://bonnie-fhir.healthit.gov/",
        "value": "63f628d8d289cd498bb84238"
      } ],
      "name": [ {
        "family": "DENOMPass",
        "given": [ "ExamDuringEnc" ]
      } ],
      "gender": "male",
      "birthDate": "1997-11-01"
    }
  }, {
    "fullUrl": "https://madie.cms.gov/Encounter/da12a784-fcf7-4297-b11c-b12127037716",
    "resource": {
      "resourceType": "Encounter",
      "id": "da12a784-fcf7-4297-b11c-b12127037716",
      "meta": {
        "profile": [ "http://hl7.org/fhir/us/qicore/StructureDefinition/qicore-encounter" ]
      },
      "status": "finished",
      "class": {
        "system": "http://terminology.hl7.org/CodeSystem/v3-ActCode",
        "code": "AMB",
        "display": "ambulatory",
        "userSelected": true
      },
      "type": [ {
        "coding": [ {
          "system": "http://snomed.info/sct",
          "version": "http://snomed.info/sct/731000124108/version/202303",
          "code": "18170008",
          "display": "Subsequent nursing facility visit (procedure)",
          "userSelected": true
        } ]
      } ],
      "subject": {
        "reference": "Patient/3783189c-3c29-4687-9f89-c3306c6d28fd"
      },
      "period": {
        "start": "2026-03-09T08:00:00.000+00:00",
        "end": "2026-03-09T08:15:00.000+00:00"
      }
    }
  }, {
    "fullUrl": "https://madie.cms.gov/Condition/5782f072-eb4b-4d96-8e28-b16dc699fcf3",
    "resource": {
      "resourceType": "Condition",
      "id": "5782f072-eb4b-4d96-8e28-b16dc699fcf3",
      "meta": {
        "profile": [ "http://hl7.org/fhir/us/qicore/StructureDefinition/qicore-condition-problems-health-concerns" ]
      },
      "clinicalStatus": {
        "coding": [ {
          "system": "http://terminology.hl7.org/CodeSystem/condition-clinical",
          "code": "active",
          "display": "active",
          "userSelected": true
        } ]
      },
      "category": [ {
        "coding": [ {
          "system": "http://terminology.hl7.org/CodeSystem/condition-category",
          "code": "problem-list-item",
          "display": "Problem List Item"
        } ]
      }, {
        "coding": [ {
          "system": "http://terminology.hl7.org/CodeSystem/condition-ver-status",
          "code": "confirmed",
          "display": "confirmed",
          "userSelected": true
        } ]
      } ],
      "code": {
        "coding": [ {
          "system": "http://snomed.info/sct",
          "version": "http://snomed.info/sct/731000124108/version/20250301",
          "code": "193349004",
          "display": "Preproliferative retinopathy due to diabetes mellitus (disorder)",
          "userSelected": true
        } ]
      },
      "subject": {
        "reference": "Patient/3783189c-3c29-4687-9f89-c3306c6d28fd"
      },
      "onsetDateTime": "2026-01-09T08:00:00.000+00:00"
    }
  }, {
    "fullUrl": "https://madie.cms.gov/Observation/5763612c-48b9-4bbd-87c1-2e0462ea9bf9",
    "resource": {
      "resourceType": "Observation",
      "id": "5763612c-48b9-4bbd-87c1-2e0462ea9bf9",
      "meta": {
        "profile": [ "http://hl7.org/fhir/us/qicore/StructureDefinition/qicore-observation-clinical-result" ]
      },
      "status": "final",
      "category": [ {
        "coding": [ {
          "system": "http://terminology.hl7.org/CodeSystem/condition-ver-status",
          "code": "confirmed",
          "display": "confirmed",
          "userSelected": true
        } ]
      }, {
        "coding": [ {
          "system": "http://terminology.hl7.org/CodeSystem/observation-category",
          "code": "survey"
        } ]
      } ],
      "code": {
        "coding": [ {
          "system": "http://loinc.org",
          "version": "2.73",
          "code": "32451-7",
          "display": "Physical findings of Macula",
          "userSelected": true
        } ]
      },
      "subject": {
        "reference": "Patient/3783189c-3c29-4687-9f89-c3306c6d28fd"
      },
      "effectiveDateTime": "2026-03-09T08:02:00.000+00:00",
      "issued": "2026-03-09T08:05:00.000+00:00",
      "valueBoolean": true
    }
  }, {
    "fullUrl": "https://madie.cms.gov/Coverage/0d294be0-0aa0-4846-ab1c-940bf1836f17",
    "resource": {
      "resourceType": "Coverage",
      "id": "0d294be0-0aa0-4846-ab1c-940bf1836f17",
      "meta": {
        "profile": [ "http://hl7.org/fhir/us/qicore/StructureDefinition/qicore-coverage" ]
      },
      "status": "active",
      "subscriberId": "123456",
      "beneficiary": {
        "reference": "Patient/3783189c-3c29-4687-9f89-c3306c6d28fd"
      },
      "relationship": {
        "coding": [ {
          "system": "http://terminology.hl7.org/CodeSystem/subscriber-relationship",
          "code": "self",
          "display": "Self"
        } ]
      },
      "payor": [ {
        "reference": "Organization/342bafff-171f-4174-a5ab-e12251205c7f"
      } ]
    }
  }, {
    "fullUrl": "https://madie.cms.gov/Organization/342bafff-171f-4174-a5ab-e12251205c7f",
    "resource": {
      "resourceType": "Organization",
      "id": "342bafff-171f-4174-a5ab-e12251205c7f",
      "meta": {
        "profile": [ "http://hl7.org/fhir/us/qicore/StructureDefinition/qicore-organization" ]
      },
      "identifier": [ {
        "use": "temp",
        "system": "urn:oid:2.16.840.1.113883.4.4",
        "value": "21-3259825"
      } ],
      "active": true,
      "type": [ {
        "coding": [ {
          "system": "http://terminology.hl7.org/CodeSystem/organization-type",
          "code": "pay",
          "display": "Payer"
        } ]
      } ],
      "name": "Blue Cross Blue Shield of Texas",
      "telecom": [ {
        "system": "phone",
        "value": "(+1) 972-766-6900"
      } ],
      "address": [ {
        "use": "billing",
        "type": "postal",
        "line": [ "P.O. Box 660044" ],
        "city": "Dallas",
        "state": "TX",
        "postalCode": "75266-0044",
        "country": "USA"
      } ]
    }
  }, {
    "fullUrl": "https://madie.cms.gov/Practitioner/eb0d4ac7-5b93-4feb-bd36-56b3db8534fd",
    "resource": {
      "resourceType": "Practitioner",
      "id": "eb0d4ac7-5b93-4feb-bd36-56b3db8534fd",
      "identifier": [ {
        "system": "http://hl7.org/fhir/sid/us-npi",
        "value": "1689411712"
      } ],
      "name": [ {
        "family": "Evil",
        "prefix": [ "Dr" ]
      } ]
    }
  }, {
    "fullUrl": "https://madie.cms.gov/MeasureReport/70935eea-b304-43ed-865a-82d2ded700b6",
    "resource": {
      "resourceType": "MeasureReport",
      "id": "70935eea-b304-43ed-865a-82d2ded700b6",
      "meta": {
        "profile": [ "http://hl7.org/fhir/us/cqfmeasures/StructureDefinition/test-case-cqfm" ]
      },
      "contained": [ {
        "resourceType": "Parameters",
        "id": "19e6bd6e-92c2-473b-a0d6-f175ce0c04cf-parameters",
        "parameter": [ {
          "name": "subject",
          "valueString": "3783189c-3c29-4687-9f89-c3306c6d28fd"
        } ]
      } ],
      "extension": [ {
        "url": "http://hl7.org/fhir/StructureDefinition/cqf-inputParameters",
        "valueReference": {
          "reference": "#19e6bd6e-92c2-473b-a0d6-f175ce0c04cf-parameters"
        }
      }, {
        "url": "http://hl7.org/fhir/us/cqfmeasures/StructureDefinition/cqfm-testCaseDescription",
        "valueMarkdown": "Patient aged >=18 with qualifying encounter and exam"
      } ],
      "modifierExtension": [ {
        "url": "http://hl7.org/fhir/us/cqfmeasures/StructureDefinition/cqfm-isTestCase",
        "valueBoolean": true
      } ],
      "status": "complete",
      "type": "individual",
      "measure": "https://madie.cms.gov/Measure/CMS142FHIRCommWithDrManagingDiab",
      "period": {
        "start": "2026-01-01",
        "end": "2026-12-31"
      },
      "group": [ {
        "id": "Group_1",
        "population": [ {
          "id": "InitialPopulation_1",
          "code": {
            "coding": [ {
              "system": "http://terminology.hl7.org/CodeSystem/measure-population",
              "code": "initial-population",
              "display": "Initial Population"
            } ]
          },
          "count": 1
        }, {
          "id": "Denominator_1",
          "code": {
            "coding": [ {
              "system": "http://terminology.hl7.org/CodeSystem/measure-population",
              "code": "denominator",
              "display": "Denominator"
            } ]
          },
          "count": 1
        }, {
          "id": "Numerator_1",
          "code": {
            "coding": [ {
              "system": "http://terminology.hl7.org/CodeSystem/measure-population",
              "code": "numerator",
              "display": "Numerator"
            } ]
          },
          "count": 0
        }, {
          "id": "DenominatorException_1",
          "code": {
            "coding": [ {
              "system": "http://terminology.hl7.org/CodeSystem/measure-population",
              "code": "denominator-exception",
              "display": "Denominator Exception"
            } ]
          },
          "count": 0
        } ],
        "measureScore": {
          "value": 1.0
        }
      } ],
      "evaluatedResource": [ {
        "reference": "Patient/3783189c-3c29-4687-9f89-c3306c6d28fd"
      }, {
        "reference": "Encounter/da12a784-fcf7-4297-b11c-b12127037716"
      }, {
        "reference": "Condition/5782f072-eb4b-4d96-8e28-b16dc699fcf3"
      }, {
        "reference": "Observation/5763612c-48b9-4bbd-87c1-2e0462ea9bf9"
      }, {
        "reference": "Coverage/0d294be0-0aa0-4846-ab1c-940bf1836f17"
      }, {
        "reference": "Organization/342bafff-171f-4174-a5ab-e12251205c7f"
      }, {
        "reference": "Practitioner/eb0d4ac7-5b93-4feb-bd36-56b3db8534fd"
      } ]
    }
  } ]
}