{
  "resourceType": "Bundle",
  "id": "633c9d040968f8012250fca0",
  "type": "transaction",
  "entry": [ {
    "fullUrl": "https://madie.cms.gov/Patient/d4ee0f25-8c45-4db4-8795-b7dbdbbc1ecd",
    "resource": {
      "resourceType": "Patient",
      "id": "d4ee0f25-8c45-4db4-8795-b7dbdbbc1ecd",
      "meta": {
        "profile": [ "http://hl7.org/fhir/us/qicore/StructureDefinition/qicore-patient" ]
      },
      "text": {
        "status": "generated",
        "div": "<div xmlns=\"http://www.w3.org/1999/xhtml\"><div class=\"hapiHeaderText\">CMOdurEnc_NoEDObs&lt;1hrBFEnc <b>DENEXPASS </b></div><table class=\"hapiPropertyTable\"><tbody><tr><td>Identifier</td><td>02b0ef2e973beaec0a8b1e55c0dadc67beed7a4482dce2ae4bf0963095b983fa</td></tr><tr><td>Date of birth</td><td><span>18 September 1985</span></td></tr></tbody></table></div>"
      },
      "extension": [ {
        "url": "http://hl7.org/fhir/us/core/StructureDefinition/us-core-race",
        "extension": [ {
          "url": "ombCategory",
          "valueCoding": {
            "system": "urn:oid:2.16.840.1.113883.6.238",
            "code": "1002-5",
            "display": "American Indian or Alaska Native",
            "userSelected": true
          }
        }, {
          "url": "text",
          "valueString": "American Indian or Alaska Native"
        } ]
      }, {
        "url": "http://hl7.org/fhir/us/core/StructureDefinition/us-core-ethnicity",
        "extension": [ {
          "url": "ombCategory",
          "valueCoding": {
            "system": "urn:oid:2.16.840.1.113883.6.238",
            "code": "2135-2",
            "display": "Hispanic or Latino",
            "userSelected": true
          }
        }, {
          "url": "text",
          "valueString": "Hispanic or Latino"
        } ]
      } ],
      "identifier": [ {
        "type": {
          "coding": [ {
            "system": "http://terminology.hl7.org/CodeSystem/v2-0203",
            "code": "MR"
          } ]
        },
        "system": "https://bonnie-fhir.healthit.gov/",
        "value": "633c9d040968f8012250fca0"
      } ],
      "active": true,
      "name": [ {
        "use": "usual",
        "family": "DENEXPass",
        "given": [ "CMOdurEncNoEDObsLT1hrBFEnc" ]
      } ],
      "gender": "female",
      "birthDate": "1986-09-18"
    },
    "request": {
      "method": "PUT",
      "url": "Patient/d4ee0f25-8c45-4db4-8795-b7dbdbbc1ecd"
    }
  }, {
    "fullUrl": "https://madie.cms.gov/claim/5ca62962b8484628b8de1ec5",
    "resource": {
      "resourceType": "Claim",
      "id": "5ca62962b8484628b8de1ec5",
      "meta": {
        "profile": [ "http://hl7.org/fhir/us/qicore/StructureDefinition/qicore-claim" ]
      },
      "status": "active",
      "type": {
        "coding": [ {
          "system": "http://terminology.hl7.org/CodeSystem/claim-type",
          "code": "institutional"
        } ]
      },
      "use": "claim",
      "patient": {
        "reference": "Patient/d170a0a8-b5ad-4303-b6df-e304dd5f92ad"
      },
      "created": "2026-12-01",
      "provider": {
        "reference": "Practitioner/e8206742-c069-4097-874c-61b675570977"
      },
      "priority": {
        "coding": [ {
          "system": "http://terminology.hl7.org/CodeSystem/processpriority",
          "code": "normal"
        } ]
      },
      "diagnosis": [ {
        "sequence": 1,
        "diagnosisCodeableConcept": {
          "coding": [ {
            "system": "http://hl7.org/fhir/sid/icd-10-cm",
            "code": "I63.00"
          } ]
        },
        "type": [ {
          "coding": [ {
            "system": "http://terminology.hl7.org/CodeSystem/ex-diagnosistype",
            "code": "principal"
          } ]
        } ]
      } ],
      "insurance": [ {
        "sequence": 1,
        "focal": true,
        "coverage": {
          "reference": "Coverage/5fa041661c76ba66d9959367"
        }
      } ],
      "item": [ {
        "sequence": 1,
        "diagnosisSequence": [ 1 ],
        "productOrService": {
          "coding": [ {
            "system": "http://terminology.hl7.org/CodeSystem/ex-USCLS",
            "code": "99555"
          } ]
        },
        "encounter": [ {
          "reference": "Encounter/71e62bf0-ddc0-4ae2-97ab-d41009d8139d"
        } ]
      } ]
    },
    "request": {
      "method": "PUT",
      "url": "Claim/5ca62962b8484628b8de1ec5"
    }
  }, {
    "fullUrl": "https://madie.cms.gov/Condition/922f1cf9-c392-483b-a9c6-6a1e8900aeaf",
    "resource": {
      "resourceType": "Condition",
      "id": "922f1cf9-c392-483b-a9c6-6a1e8900aeaf",
      "meta": {
        "profile": [ "http://hl7.org/fhir/us/qicore/StructureDefinition/qicore-condition-problems-health-concerns" ]
      },
      "clinicalStatus": {
        "coding": [ {
          "system": "http://terminology.hl7.org/CodeSystem/condition-clinical",
          "code": "inactive"
        } ]
      },
      "verificationStatus": {
        "coding": [ {
          "system": "http://terminology.hl7.org/CodeSystem/condition-ver-status",
          "code": "confirmed"
        } ]
      },
      "category": [ {
        "coding": [ {
          "system": "http://terminology.hl7.org/CodeSystem/condition-category",
          "code": "encounter-diagnosis",
          "display": "Encounter Diagnosis"
        } ]
      } ],
      "code": {
        "coding": [ {
          "system": "http://hl7.org/fhir/sid/icd-10-cm",
          "code": "I48.20"
        }, {
          "system": "http://hl7.org/fhir/sid/icd-10-cm",
          "code": "I48.0"
        }, {
          "system": "http://snomed.info/sct",
          "code": "5370000"
        } ]
      },
      "subject": {
        "reference": "Patient/d4ee0f25-8c45-4db4-8795-b7dbdbbc1ecd"
      },
      "onsetDateTime": "2026-02-11T08:00:00.000+00:00",
      "abatementDateTime": "2026-02-11T08:15:00.000+00:00"
    },
    "request": {
      "method": "PUT",
      "url": "Condition/922f1cf9-c392-483b-a9c6-6a1e8900aeaf"
    }
  }, {
    "fullUrl": "https://madie.cms.gov/Condition/0a53958f-ff39-4d05-9e79-9ec9dd8a87c1",
    "resource": {
      "resourceType": "Condition",
      "id": "0a53958f-ff39-4d05-9e79-9ec9dd8a87c1",
      "meta": {
        "profile": [ "http://hl7.org/fhir/us/qicore/StructureDefinition/qicore-condition-problems-health-concerns" ]
      },
      "clinicalStatus": {
        "coding": [ {
          "system": "http://terminology.hl7.org/CodeSystem/condition-clinical",
          "code": "inactive"
        } ]
      },
      "verificationStatus": {
        "coding": [ {
          "system": "http://terminology.hl7.org/CodeSystem/condition-ver-status",
          "code": "confirmed"
        } ]
      },
      "category": [ {
        "coding": [ {
          "system": "http://terminology.hl7.org/CodeSystem/condition-category",
          "code": "encounter-diagnosis",
          "display": "Encounter Diagnosis"
        } ]
      } ],
      "code": {
        "coding": [ {
          "system": "http://hl7.org/fhir/sid/icd-10-cm",
          "code": "I48.20"
        }, {
          "system": "http://hl7.org/fhir/sid/icd-10-cm",
          "code": "I48.0"
        }, {
          "system": "http://snomed.info/sct",
          "code": "5370000"
        } ]
      },
      "subject": {
        "reference": "Patient/d4ee0f25-8c45-4db4-8795-b7dbdbbc1ecd"
      },
      "onsetDateTime": "2026-10-01T09:00:00.000+00:00",
      "abatementDateTime": "2026-10-12T08:15:00.000+00:00"
    },
    "request": {
      "method": "PUT",
      "url": "Condition/0a53958f-ff39-4d05-9e79-9ec9dd8a87c1"
    }
  }, {
    "fullUrl": "https://madie.cms.gov/Encounter/1723cc80-d13c-403f-aade-3e3280b1f341",
    "resource": {
      "resourceType": "Encounter",
      "id": "1723cc80-d13c-403f-aade-3e3280b1f341",
      "meta": {
        "profile": [ "http://hl7.org/fhir/us/qicore/StructureDefinition/qicore-encounter" ]
      },
      "status": "finished",
      "class": {
        "system": "http://terminology.hl7.org/CodeSystem/v3-ActCode",
        "code": "OBSENC",
        "display": "observation encounter"
      },
      "type": [ {
        "coding": [ {
          "system": "http://snomed.info/sct",
          "code": "448851000124103"
        } ]
      } ],
      "subject": {
        "reference": "Patient/d4ee0f25-8c45-4db4-8795-b7dbdbbc1ecd"
      },
      "period": {
        "start": "2026-10-01T06:00:00.000+00:00",
        "end": "2026-10-01T09:59:00.000+00:00"
      },
      "length": {
        "value": 0,
        "unit": "days"
      }
    },
    "request": {
      "method": "PUT",
      "url": "Encounter/1723cc80-d13c-403f-aade-3e3280b1f341"
    }
  }, {
    "fullUrl": "https://madie.cms.gov/Encounter/71e62bf0-ddc0-4ae2-97ab-d41009d8139d",
    "resource": {
      "resourceType": "Encounter",
      "id": "71e62bf0-ddc0-4ae2-97ab-d41009d8139d",
      "meta": {
        "profile": [ "http://hl7.org/fhir/us/qicore/StructureDefinition/qicore-encounter" ]
      },
      "status": "finished",
      "class": {
        "system": "http://terminology.hl7.org/CodeSystem/v3-ActCode",
        "code": "IMP",
        "display": "inpatient encounter"
      },
      "type": [ {
        "coding": [ {
          "system": "http://snomed.info/sct",
          "code": "32485007"
        } ]
      } ],
      "subject": {
        "reference": "Patient/d4ee0f25-8c45-4db4-8795-b7dbdbbc1ecd"
      },
      "period": {
        "start": "2026-10-01T10:00:00.000+00:00",
        "end": "2026-10-12T08:15:00.000+00:00"
      },
      "length": {
        "value": 11,
        "unit": "days"
      },
      "reasonReference": [ {
        "reference": "Condition/922f1cf9-c392-483b-a9c6-6a1e8900aeaf"
      } ]
    },
    "request": {
      "method": "PUT",
      "url": "Encounter/71e62bf0-ddc0-4ae2-97ab-d41009d8139d"
    }
  }, {
    "fullUrl": "https://madie.cms.gov/ServiceRequest/1a9d24f1-43b8-4ebc-8a6f-c2da7c193b57",
    "resource": {
      "resourceType": "ServiceRequest",
      "id": "1a9d24f1-43b8-4ebc-8a6f-c2da7c193b57",
      "meta": {
        "profile": [ "http://hl7.org/fhir/us/qicore/StructureDefinition/qicore-servicerequest" ]
      },
      "status": "active",
      "intent": "order",
      "code": {
        "coding": [ {
          "system": "http://snomed.info/sct",
          "code": "133918004"
        } ]
      },
      "subject": {
        "reference": "Patient/d4ee0f25-8c45-4db4-8795-b7dbdbbc1ecd"
      },
      "authoredOn": "2026-10-03T00:00:00.000+00:00"
    },
    "request": {
      "method": "PUT",
      "url": "ServiceRequest/1a9d24f1-43b8-4ebc-8a6f-c2da7c193b57"
    }
  }, {
    "fullUrl": "https://madie.cms.gov/Coverage/a68e1ed1-c8d2-4ad3-8247-b95823680f17",
    "resource": {
      "resourceType": "Coverage",
      "id": "a68e1ed1-c8d2-4ad3-8247-b95823680f17",
      "status": "active",
      "subscriberId": "523435",
      "beneficiary": {
        "reference": "Patient/d4ee0f25-8c45-4db4-8795-b7dbdbbc1ecd"
      },
      "relationship": {
        "coding": [ {
          "system": "http://terminology.hl7.org/CodeSystem/subscriber-relationship",
          "code": "self"
        } ]
      },
      "period": {
        "start": "1986-09-18T08:00:00.000+00:00"
      },
      "payor": [ {
        "reference": "Organization/5e8b874d-42a9-4b0a-a659-a67a89a03dc9"
      } ]
    },
    "request": {
      "method": "PUT",
      "url": "Coverage/a68e1ed1-c8d2-4ad3-8247-b95823680f17"
    }
  }, {
    "fullUrl": "https://madie.cms.gov/Condition/15f9f59d-0b41-48b3-9fc5-25f0a23f2025",
    "resource": {
      "resourceType": "Condition",
      "id": "15f9f59d-0b41-48b3-9fc5-25f0a23f2025",
      "meta": {
        "profile": [ "http://hl7.org/fhir/us/qicore/StructureDefinition/qicore-condition-problems-health-concerns" ]
      },
      "clinicalStatus": {
        "coding": [ {
          "system": "http://terminology.hl7.org/CodeSystem/condition-clinical",
          "code": "active"
        } ]
      },
      "verificationStatus": {
        "coding": [ {
          "system": "http://terminology.hl7.org/CodeSystem/condition-ver-status",
          "code": "confirmed"
        } ]
      },
      "category": [ {
        "coding": [ {
          "system": "http://terminology.hl7.org/CodeSystem/condition-category",
          "code": "encounter-diagnosis",
          "display": "Encounter Diagnosis"
        } ]
      } ],
      "code": {
        "coding": [ {
          "system": "http://snomed.info/sct",
          "version": "2021-09",
          "code": "111297002",
          "display": "Nonparalytic stroke (disorder)",
          "userSelected": true
        } ]
      },
      "subject": {
        "reference": "Patient/d4ee0f25-8c45-4db4-8795-b7dbdbbc1ecd"
      },
      "recordedDate": "2026-10-13T08:00:00.000+00:00"
    },
    "request": {
      "method": "PUT",
      "url": "Condition/15f9f59d-0b41-48b3-9fc5-25f0a23f2025"
    }
  }, {
    "fullUrl": "https://madie.cms.gov/Organization/5e8b874d-42a9-4b0a-a659-a67a89a03dc9",
    "resource": {
      "resourceType": "Organization",
      "id": "5e8b874d-42a9-4b0a-a659-a67a89a03dc9",
      "meta": {
        "profile": [ "http://hl7.org/fhir/us/qicore/StructureDefinition/qicore-organization" ]
      },
      "identifier": [ {
        "use": "temp",
        "system": "urn:oid:2.16.840.1.113883.4.4",
        "value": "21-3259825"
      } ],
      "active": true,
      "type": [ {
        "coding": [ {
          "system": "http://terminology.hl7.org/CodeSystem/organization-type",
          "code": "pay",
          "display": "Payer"
        } ]
      } ],
      "name": "Blue Cross Blue Shield of Texas",
      "telecom": [ {
        "system": "phone",
        "value": "(+1) 972-766-6900"
      } ],
      "address": [ {
        "use": "billing",
        "type": "postal",
        "line": [ "P.O. Box 660044" ],
        "city": "Dallas",
        "state": "TX",
        "postalCode": "75266-0044",
        "country": "USA"
      } ]
    },
    "request": {
      "method": "PUT",
      "url": "Organization/5e8b874d-42a9-4b0a-a659-a67a89a03dc9"
    }
  }, {
    "fullUrl": "https://madie.cms.gov/Practitioner/e8206742-c069-4097-874c-61b675570977",
    "resource": {
      "resourceType": "Practitioner",
      "id": "e8206742-c069-4097-874c-61b675570977",
      "meta": {
        "profile": [ "http://hl7.org/fhir/us/qicore/StructureDefinition/qicore-practitioner" ]
      },
      "identifier": [ {
        "system": "http://hl7.org/fhir/sid/us-npi",
        "value": "9999999896"
      } ],
      "name": [ {
        "family": "Evil",
        "prefix": [ "Dr" ]
      } ]
    },
    "request": {
      "method": "PUT",
      "url": "Practitioner/e8206742-c069-4097-874c-61b675570977"
    }
  }, {
    "fullUrl": "https://madie.cms.gov/MeasureReport/b99bb44e-b9d6-425a-bb47-0a40ca208c21",
    "resource": {
      "resourceType": "MeasureReport",
      "id": "b99bb44e-b9d6-425a-bb47-0a40ca208c21",
      "meta": {
        "profile": [ "http://hl7.org/fhir/us/cqfmeasures/StructureDefinition/test-case-cqfm" ]
      },
      "contained": [ {
        "resourceType": "Parameters",
        "id": "d03e90cb-ce2b-4d71-a414-0c39d865116f-parameters",
        "parameter": [ {
          "name": "subject",
          "valueString": "d4ee0f25-8c45-4db4-8795-b7dbdbbc1ecd"
        } ]
      } ],
      "extension": [ {
        "url": "http://hl7.org/fhir/StructureDefinition/cqf-inputParameters",
        "valueReference": {
          "reference": "#d03e90cb-ce2b-4d71-a414-0c39d865116f-parameters"
        }
      }, {
        "url": "http://hl7.org/fhir/us/cqfmeasures/StructureDefinition/cqfm-testCaseDescription",
        "valueMarkdown": "Patient receives CMO during inpatient encounter No ED. Observation ends 1 minute before inpatient encounter start. Testing HospitalizationWithObservation function.\n"
      } ],
      "modifierExtension": [ {
        "url": "http://hl7.org/fhir/us/cqfmeasures/StructureDefinition/cqfm-isTestCase",
        "valueBoolean": true
      } ],
      "status": "complete",
      "type": "individual",
      "measure": "https://madie.cms.gov/Measure/CMS71FHIRSTKAnticoagAFFlutter",
      "period": {
        "start": "2026-01-01",
        "end": "2026-12-31"
      },
      "group": [ {
        "id": "Group_1",
        "population": [ {
          "id": "InitialPopulation_1",
          "code": {
            "coding": [ {
              "system": "http://terminology.hl7.org/CodeSystem/measure-population",
              "code": "initial-population",
              "display": "Initial Population"
            } ]
          },
          "count": 1
        }, {
          "id": "Denominator_1",
          "code": {
            "coding": [ {
              "system": "http://terminology.hl7.org/CodeSystem/measure-population",
              "code": "denominator",
              "display": "Denominator"
            } ]
          },
          "count": 1
        }, {
          "id": "DenominatorExclusion_1",
          "code": {
            "coding": [ {
              "system": "http://terminology.hl7.org/CodeSystem/measure-population",
              "code": "denominator-exclusion",
              "display": "Denominator Exclusion"
            } ]
          },
          "count": 1
        }, {
          "id": "Numerator_1",
          "code": {
            "coding": [ {
              "system": "http://terminology.hl7.org/CodeSystem/measure-population",
              "code": "numerator",
              "display": "Numerator"
            } ]
          },
          "count": 0
        }, {
          "id": "DenominatorException_1",
          "code": {
            "coding": [ {
              "system": "http://terminology.hl7.org/CodeSystem/measure-population",
              "code": "denominator-exception",
              "display": "Denominator Exception"
            } ]
          },
          "count": 0
        } ],
        "measureScore": {
          "value": 0.0
        }
      } ],
      "evaluatedResource": [ {
        "reference": "Patient/d4ee0f25-8c45-4db4-8795-b7dbdbbc1ecd"
      }, {
        "reference": "Claim/5ca62962b8484628b8de1ec5"
      }, {
        "reference": "Condition/922f1cf9-c392-483b-a9c6-6a1e8900aeaf"
      }, {
        "reference": "Condition/0a53958f-ff39-4d05-9e79-9ec9dd8a87c1"
      }, {
        "reference": "Encounter/1723cc80-d13c-403f-aade-3e3280b1f341"
      }, {
        "reference": "Encounter/71e62bf0-ddc0-4ae2-97ab-d41009d8139d"
      }, {
        "reference": "ServiceRequest/1a9d24f1-43b8-4ebc-8a6f-c2da7c193b57"
      }, {
        "reference": "Coverage/a68e1ed1-c8d2-4ad3-8247-b95823680f17"
      }, {
        "reference": "Condition/15f9f59d-0b41-48b3-9fc5-25f0a23f2025"
      }, {
        "reference": "Organization/5e8b874d-42a9-4b0a-a659-a67a89a03dc9"
      }, {
        "reference": "Practitioner/e8206742-c069-4097-874c-61b675570977"
      } ]
    },
    "request": {
      "method": "PUT",
      "url": "MeasureReport/b99bb44e-b9d6-425a-bb47-0a40ca208c21"
    }
  } ]
}