{
  "resourceType": "Bundle",
  "id": "612e6f6e02c62a011f2f1d45",
  "type": "transaction",
  "entry": [ {
    "fullUrl": "https://madie.cms.gov/Patient/2899457d-5309-43e4-a7f0-a4ff34276b9d",
    "resource": {
      "resourceType": "Patient",
      "id": "2899457d-5309-43e4-a7f0-a4ff34276b9d",
      "meta": {
        "profile": [ "http://hl7.org/fhir/us/qicore/StructureDefinition/qicore-patient" ]
      },
      "text": {
        "status": "generated",
        "div": "<div xmlns=\"http://www.w3.org/1999/xhtml\"><div class=\"hapiHeaderText\">DAVFPDayOfICUWICULOSEQ0Day<b>NUMERPASS </b></div><table class=\"hapiPropertyTable\"><tbody><tr><td>Identifier</td><td>f9dd0d7a6a9f775928ab2c47f31bfdd50dfc6c91e6f0b0e678b3985354333a28</td></tr><tr><td>Date of birth</td><td><span>03 March 1974</span></td></tr></tbody></table></div>"
      },
      "extension": [ {
        "url": "http://hl7.org/fhir/us/core/StructureDefinition/us-core-race",
        "extension": [ {
          "url": "ombCategory",
          "valueCoding": {
            "system": "urn:oid:2.16.840.1.113883.6.238",
            "code": "1002-5",
            "display": "American Indian or Alaska Native",
            "userSelected": true
          }
        }, {
          "url": "text",
          "valueString": "American Indian or Alaska Native"
        } ]
      }, {
        "url": "http://hl7.org/fhir/us/core/StructureDefinition/us-core-ethnicity",
        "extension": [ {
          "url": "ombCategory",
          "valueCoding": {
            "system": "urn:oid:2.16.840.1.113883.6.238",
            "code": "2135-2",
            "display": "Hispanic or Latino",
            "userSelected": true
          }
        }, {
          "url": "text",
          "valueString": "Hispanic or Latino"
        } ]
      } ],
      "identifier": [ {
        "type": {
          "coding": [ {
            "system": "http://terminology.hl7.org/CodeSystem/v2-0203",
            "code": "MR"
          } ]
        },
        "system": "https://bonnie-fhir.healthit.gov/",
        "value": "612e6f6e02c62a011f2f1d45"
      } ],
      "active": true,
      "name": [ {
        "use": "usual",
        "family": "NUMERPass",
        "given": [ "DAVFPDayOfICUWICULOSEQ0Day" ]
      } ],
      "gender": "female",
      "birthDate": "1975-03-03"
    },
    "request": {
      "method": "PUT",
      "url": "Patient/2899457d-5309-43e4-a7f0-a4ff34276b9d"
    }
  }, {
    "fullUrl": "https://madie.cms.gov/Encounter/b6bc8448-4232-4b2c-9967-015e7fee977b",
    "resource": {
      "resourceType": "Encounter",
      "id": "b6bc8448-4232-4b2c-9967-015e7fee977b",
      "meta": {
        "profile": [ "http://hl7.org/fhir/us/qicore/StructureDefinition/qicore-encounter" ]
      },
      "status": "finished",
      "class": {
        "system": "http://terminology.hl7.org/CodeSystem/v3-ActCode",
        "code": "IMP",
        "display": "inpatient encounter"
      },
      "type": [ {
        "coding": [ {
          "system": "http://snomed.info/sct",
          "code": "183452005"
        } ]
      } ],
      "subject": {
        "reference": "Patient/2899457d-5309-43e4-a7f0-a4ff34276b9d"
      },
      "period": {
        "start": "2026-03-22T08:00:00.000+00:00",
        "end": "2026-03-26T08:15:00.000+00:00"
      },
      "length": {
        "value": 4,
        "unit": "days"
      },
      "location": [ {
        "location": {
          "reference": "Location/124d8ca4-f9b0-4f90-8dd4-308a1d125a0a"
        },
        "period": {
          "start": "2026-03-22T08:15:00.000+00:00",
          "end": "2026-03-22T19:00:00.000+00:00"
        }
      } ]
    },
    "request": {
      "method": "PUT",
      "url": "Encounter/b6bc8448-4232-4b2c-9967-015e7fee977b"
    }
  }, {
    "fullUrl": "https://madie.cms.gov/Coverage/1e54784f-c24f-4a57-9b04-710afb006973",
    "resource": {
      "resourceType": "Coverage",
      "id": "1e54784f-c24f-4a57-9b04-710afb006973",
      "status": "active",
      "beneficiary": {
        "reference": "Patient/2899457d-5309-43e4-a7f0-a4ff34276b9d"
      },
      "period": {
        "start": "1975-03-03T08:00:00.000+00:00"
      },
      "payor": [ {
        "reference": "Organization/ba2848d8-d96a-4f1c-a378-c40c3d1f36ae"
      } ]
    },
    "request": {
      "method": "PUT",
      "url": "Coverage/1e54784f-c24f-4a57-9b04-710afb006973"
    }
  }, {
    "fullUrl": "https://madie.cms.gov/Location/124d8ca4-f9b0-4f90-8dd4-308a1d125a0a",
    "resource": {
      "resourceType": "Location",
      "id": "124d8ca4-f9b0-4f90-8dd4-308a1d125a0a",
      "meta": {
        "profile": [ "http://hl7.org/fhir/us/qicore/StructureDefinition/qicore-location" ]
      },
      "identifier": [ {
        "use": "usual",
        "system": "http://exampleoflocation.com",
        "value": "B1-S.F2"
      } ],
      "name": "Medical Surgical East, first floor",
      "type": [ {
        "coding": [ {
          "system": "https://www.cdc.gov/nhsn/cdaportal/terminology/codesystem/hsloc.html",
          "code": "1025-6",
          "display": "Trauma Critical Care",
          "userSelected": true
        } ]
      } ]
    },
    "request": {
      "method": "PUT",
      "url": "Location/124d8ca4-f9b0-4f90-8dd4-308a1d125a0a"
    }
  }, {
    "fullUrl": "https://madie.cms.gov/Location/e756a1da-1d04-45db-9816-0130aef04505",
    "resource": {
      "resourceType": "Location",
      "id": "e756a1da-1d04-45db-9816-0130aef04505",
      "meta": {
        "profile": [ "http://hl7.org/fhir/us/qicore/StructureDefinition/qicore-location" ]
      },
      "identifier": [ {
        "use": "usual",
        "system": "http://exampleoflocation.com",
        "value": "B1-S.F2"
      } ],
      "name": "Medical Surgical East, first floor",
      "type": [ {
        "coding": [ {
          "system": "https://www.cdc.gov/nhsn/cdaportal/terminology/codesystem/hsloc.html",
          "code": "1025-6",
          "display": "Trauma Critical Care",
          "userSelected": true
        } ]
      } ]
    },
    "request": {
      "method": "PUT",
      "url": "Location/e756a1da-1d04-45db-9816-0130aef04505"
    }
  }, {
    "fullUrl": "https://madie.cms.gov/Procedure/220532ee-4677-4a37-8928-31dd99f40ebd",
    "resource": {
      "resourceType": "Procedure",
      "id": "220532ee-4677-4a37-8928-31dd99f40ebd",
      "meta": {
        "profile": [ "http://hl7.org/fhir/us/qicore/StructureDefinition/qicore-procedure" ]
      },
      "extension": [ {
        "url": "http://hl7.org/fhir/us/qicore/StructureDefinition/qicore-recorded",
        "valueDateTime": "2026-03-26T13:35:00.000+00:00"
      } ],
      "status": "completed",
      "code": {
        "coding": [ {
          "system": "http://snomed.info/sct",
          "code": "424831005",
          "display": "Application of foot pump (procedure)"
        } ]
      },
      "subject": {
        "reference": "Patient/2899457d-5309-43e4-a7f0-a4ff34276b9d"
      },
      "performedPeriod": {
        "start": "2026-03-22T08:20:00.000+00:00",
        "end": "2026-03-22T08:25:00.000+00:00"
      }
    },
    "request": {
      "method": "PUT",
      "url": "Procedure/220532ee-4677-4a37-8928-31dd99f40ebd"
    }
  }, {
    "fullUrl": "https://madie.cms.gov/Organization/ba2848d8-d96a-4f1c-a378-c40c3d1f36ae",
    "resource": {
      "resourceType": "Organization",
      "id": "ba2848d8-d96a-4f1c-a378-c40c3d1f36ae",
      "meta": {
        "profile": [ "http://hl7.org/fhir/us/qicore/StructureDefinition/qicore-organization" ]
      },
      "identifier": [ {
        "use": "temp",
        "system": "urn:oid:2.16.840.1.113883.4.4",
        "value": "21-3259825"
      } ],
      "active": true,
      "type": [ {
        "coding": [ {
          "system": "http://terminology.hl7.org/CodeSystem/organization-type",
          "code": "pay",
          "display": "Payer"
        } ]
      } ],
      "name": "Blue Cross Blue Shield of Texas",
      "telecom": [ {
        "system": "phone",
        "value": "(+1) 972-766-6900"
      } ],
      "address": [ {
        "use": "billing",
        "type": "postal",
        "line": [ "P.O. Box 660044" ],
        "city": "Dallas",
        "state": "TX",
        "postalCode": "75266-0044",
        "country": "USA"
      } ]
    },
    "request": {
      "method": "PUT",
      "url": "Organization/ba2848d8-d96a-4f1c-a378-c40c3d1f36ae"
    }
  }, {
    "fullUrl": "https://madie.cms.gov/Practitioner/1ee33950-2c15-4692-ad92-511e00947739",
    "resource": {
      "resourceType": "Practitioner",
      "id": "1ee33950-2c15-4692-ad92-511e00947739",
      "identifier": [ {
        "system": "http://hl7.org/fhir/sid/us-npi",
        "value": "123456"
      } ],
      "name": [ {
        "family": "Evil",
        "prefix": [ "Dr" ]
      } ]
    },
    "request": {
      "method": "PUT",
      "url": "Practitioner/1ee33950-2c15-4692-ad92-511e00947739"
    }
  }, {
    "fullUrl": "https://madie.cms.gov/MeasureReport/f3726749-b32f-474c-9bf8-fed452d4b24c",
    "resource": {
      "resourceType": "MeasureReport",
      "id": "f3726749-b32f-474c-9bf8-fed452d4b24c",
      "meta": {
        "profile": [ "http://hl7.org/fhir/us/cqfmeasures/StructureDefinition/test-case-cqfm" ]
      },
      "contained": [ {
        "resourceType": "Parameters",
        "id": "c0aff18b-b09d-4266-88a7-4437de1b75b5-parameters",
        "parameter": [ {
          "name": "subject",
          "valueString": "2899457d-5309-43e4-a7f0-a4ff34276b9d"
        } ]
      } ],
      "extension": [ {
        "url": "http://hl7.org/fhir/StructureDefinition/cqf-inputParameters",
        "valueReference": {
          "reference": "#c0aff18b-b09d-4266-88a7-4437de1b75b5-parameters"
        }
      }, {
        "url": "http://hl7.org/fhir/us/cqfmeasures/StructureDefinition/cqfm-testCaseDescription",
        "valueMarkdown": "Venous Foot Pump was applied on the day ICU adm, and ICU Stay is equal to 0 day so it is NOT excluded from Den"
      } ],
      "modifierExtension": [ {
        "url": "http://hl7.org/fhir/us/cqfmeasures/StructureDefinition/cqfm-isTestCase",
        "valueBoolean": true
      } ],
      "status": "complete",
      "type": "individual",
      "measure": "https://madie.cms.gov/Measure/CMS108FHIRVTEProphylaxis",
      "period": {
        "start": "2026-01-01",
        "end": "2026-12-31"
      },
      "group": [ {
        "id": "Group_1",
        "population": [ {
          "id": "InitialPopulation_1",
          "code": {
            "coding": [ {
              "system": "http://terminology.hl7.org/CodeSystem/measure-population",
              "code": "initial-population",
              "display": "Initial Population"
            } ]
          },
          "count": 1
        }, {
          "id": "Denominator_1",
          "code": {
            "coding": [ {
              "system": "http://terminology.hl7.org/CodeSystem/measure-population",
              "code": "denominator",
              "display": "Denominator"
            } ]
          },
          "count": 1
        }, {
          "id": "DenominatorExclusion_1",
          "code": {
            "coding": [ {
              "system": "http://terminology.hl7.org/CodeSystem/measure-population",
              "code": "denominator-exclusion",
              "display": "Denominator Exclusion"
            } ]
          },
          "count": 0
        }, {
          "id": "Numerator_1",
          "code": {
            "coding": [ {
              "system": "http://terminology.hl7.org/CodeSystem/measure-population",
              "code": "numerator",
              "display": "Numerator"
            } ]
          },
          "count": 1
        } ],
        "measureScore": {
          "value": 0.0
        }
      } ],
      "evaluatedResource": [ {
        "reference": "Patient/2899457d-5309-43e4-a7f0-a4ff34276b9d"
      }, {
        "reference": "Encounter/b6bc8448-4232-4b2c-9967-015e7fee977b"
      }, {
        "reference": "Coverage/1e54784f-c24f-4a57-9b04-710afb006973"
      }, {
        "reference": "Location/124d8ca4-f9b0-4f90-8dd4-308a1d125a0a"
      }, {
        "reference": "Location/e756a1da-1d04-45db-9816-0130aef04505"
      }, {
        "reference": "Procedure/220532ee-4677-4a37-8928-31dd99f40ebd"
      }, {
        "reference": "Organization/ba2848d8-d96a-4f1c-a378-c40c3d1f36ae"
      }, {
        "reference": "Practitioner/1ee33950-2c15-4692-ad92-511e00947739"
      } ]
    },
    "request": {
      "method": "PUT",
      "url": "MeasureReport/f3726749-b32f-474c-9bf8-fed452d4b24c"
    }
  } ]
}