{
  "resourceType": "Bundle",
  "id": "62aa583cc4be4c506d4a5341",
  "type": "collection",
  "entry": [ {
    "fullUrl": "https://madie.cms.gov/Patient/953ef59d-4c39-40ef-8067-87b5ecf84727",
    "resource": {
      "resourceType": "Patient",
      "id": "953ef59d-4c39-40ef-8067-87b5ecf84727",
      "meta": {
        "profile": [ "http://hl7.org/fhir/us/qicore/StructureDefinition/qicore-patient" ]
      },
      "extension": [ {
        "url": "http://hl7.org/fhir/us/core/StructureDefinition/us-core-race",
        "extension": [ {
          "url": "ombCategory",
          "valueCoding": {
            "system": "urn:oid:2.16.840.1.113883.6.238",
            "code": "2028-9",
            "display": "Asian",
            "userSelected": true
          }
        }, {
          "url": "text",
          "valueString": "Asian"
        } ]
      }, {
        "url": "http://hl7.org/fhir/us/core/StructureDefinition/us-core-ethnicity",
        "extension": [ {
          "url": "ombCategory",
          "valueCoding": {
            "system": "urn:oid:2.16.840.1.113883.6.238",
            "code": "2186-5",
            "display": "Not Hispanic or Latino",
            "userSelected": true
          }
        }, {
          "url": "text",
          "valueString": "Not Hispanic or Latino"
        } ]
      } ],
      "identifier": [ {
        "type": {
          "coding": [ {
            "system": "http://terminology.hl7.org/CodeSystem/v2-0203",
            "code": "MR"
          } ]
        },
        "system": "https://bonnie-fhir.healthit.gov/",
        "value": "62aa583cc4be4c506d4a5341"
      } ],
      "name": [ {
        "family": "DENEXPass",
        "given": [ "HospiceOrder" ]
      } ],
      "gender": "female",
      "birthDate": "2001-01-01"
    }
  }, {
    "fullUrl": "https://madie.cms.gov/Encounter/023f1b70-0a1d-470f-90e3-bdaf98b10a65",
    "resource": {
      "resourceType": "Encounter",
      "id": "023f1b70-0a1d-470f-90e3-bdaf98b10a65",
      "meta": {
        "profile": [ "http://hl7.org/fhir/us/qicore/StructureDefinition/qicore-encounter" ]
      },
      "status": "finished",
      "class": {
        "system": "http://terminology.hl7.org/CodeSystem/v3-ActCode",
        "code": "AMB",
        "display": "ambulatory"
      },
      "type": [ {
        "coding": [ {
          "system": "http://snomed.info/sct",
          "code": "10197000",
          "display": "Psychiatric interview and evaluation (procedure)",
          "userSelected": true
        } ]
      } ],
      "subject": {
        "reference": "Patient/953ef59d-4c39-40ef-8067-87b5ecf84727"
      },
      "period": {
        "start": "2026-01-01T00:00:00.000+00:00",
        "end": "2026-01-01T00:30:00.000+00:00"
      }
    }
  }, {
    "fullUrl": "https://madie.cms.gov/ServiceRequest/36ec03b2-8f3b-452b-b01e-c6bbc2eaf2d2",
    "resource": {
      "resourceType": "ServiceRequest",
      "id": "36ec03b2-8f3b-452b-b01e-c6bbc2eaf2d2",
      "meta": {
        "profile": [ "http://hl7.org/fhir/us/qicore/StructureDefinition/qicore-servicerequest" ]
      },
      "status": "active",
      "intent": "order",
      "code": {
        "coding": [ {
          "system": "http://snomed.info/sct",
          "code": "385763009",
          "display": "Hospice care (regime/therapy)",
          "userSelected": true
        } ]
      },
      "subject": {
        "reference": "Patient/953ef59d-4c39-40ef-8067-87b5ecf84727"
      },
      "authoredOn": "2026-01-01T00:30:00.000+00:00"
    }
  }, {
    "fullUrl": "https://madie.cms.gov/Coverage/10def516-ebab-4721-864e-ee47fa8a006d",
    "resource": {
      "resourceType": "Coverage",
      "id": "10def516-ebab-4721-864e-ee47fa8a006d",
      "meta": {
        "profile": [ "http://hl7.org/fhir/us/qicore/StructureDefinition/qicore-coverage" ]
      },
      "status": "active",
      "subscriberId": "123456",
      "beneficiary": {
        "reference": "Patient/953ef59d-4c39-40ef-8067-87b5ecf84727"
      },
      "relationship": {
        "coding": [ {
          "system": "http://terminology.hl7.org/CodeSystem/subscriber-relationship",
          "code": "self",
          "display": "Self",
          "userSelected": true
        } ]
      },
      "payor": [ {
        "reference": "Organization/519197b6-fcc6-44c1-87b8-5cf48a2c40d4"
      } ]
    }
  }, {
    "fullUrl": "https://madie.cms.gov/Organization/519197b6-fcc6-44c1-87b8-5cf48a2c40d4",
    "resource": {
      "resourceType": "Organization",
      "id": "519197b6-fcc6-44c1-87b8-5cf48a2c40d4",
      "meta": {
        "profile": [ "http://hl7.org/fhir/us/qicore/StructureDefinition/qicore-organization" ]
      },
      "identifier": [ {
        "use": "temp",
        "system": "urn:oid:2.16.840.1.113883.4.4",
        "value": "21-3259825"
      } ],
      "active": true,
      "type": [ {
        "coding": [ {
          "system": "http://terminology.hl7.org/CodeSystem/organization-type",
          "code": "pay",
          "display": "Payer"
        } ]
      } ],
      "name": "Blue Cross Blue Shield of Texas",
      "telecom": [ {
        "system": "phone",
        "value": "(+1) 972-766-6900"
      } ],
      "address": [ {
        "use": "billing",
        "type": "postal",
        "line": [ "P.O. Box 660044" ],
        "city": "Dallas",
        "state": "TX",
        "postalCode": "75266-0044",
        "country": "USA"
      } ]
    }
  }, {
    "fullUrl": "https://madie.cms.gov/MeasureReport/70849e89-3eeb-47cb-932a-413e6967a1cd",
    "resource": {
      "resourceType": "MeasureReport",
      "id": "70849e89-3eeb-47cb-932a-413e6967a1cd",
      "meta": {
        "profile": [ "http://hl7.org/fhir/us/cqfmeasures/StructureDefinition/test-case-cqfm" ]
      },
      "contained": [ {
        "resourceType": "Parameters",
        "id": "8016c8a2-ce5b-4ff5-90fe-0a2359674850-parameters",
        "parameter": [ {
          "name": "subject",
          "valueString": "953ef59d-4c39-40ef-8067-87b5ecf84727"
        } ]
      } ],
      "extension": [ {
        "url": "http://hl7.org/fhir/StructureDefinition/cqf-inputParameters",
        "valueReference": {
          "reference": "#8016c8a2-ce5b-4ff5-90fe-0a2359674850-parameters"
        }
      }, {
        "url": "http://hl7.org/fhir/us/cqfmeasures/StructureDefinition/cqfm-testCaseDescription",
        "valueMarkdown": "Adult, ambulatory enc first 30 minutes of the first day of the year of the MP, hospice order during MP - meets denex. "
      } ],
      "modifierExtension": [ {
        "url": "http://hl7.org/fhir/us/cqfmeasures/StructureDefinition/cqfm-isTestCase",
        "valueBoolean": true
      } ],
      "status": "complete",
      "type": "individual",
      "measure": "https://madie.cms.gov/Measure/CMS69FHIRPCSBMIScreenAndFollowUp",
      "period": {
        "start": "2026-01-01",
        "end": "2026-12-31"
      },
      "group": [ {
        "id": "Group_1",
        "population": [ {
          "id": "InitialPopulation_1",
          "code": {
            "coding": [ {
              "system": "http://terminology.hl7.org/CodeSystem/measure-population",
              "code": "initial-population",
              "display": "Initial Population"
            } ]
          },
          "count": 1
        }, {
          "id": "Denominator_1",
          "code": {
            "coding": [ {
              "system": "http://terminology.hl7.org/CodeSystem/measure-population",
              "code": "denominator",
              "display": "Denominator"
            } ]
          },
          "count": 1
        }, {
          "id": "DenominatorExclusion_1",
          "code": {
            "coding": [ {
              "system": "http://terminology.hl7.org/CodeSystem/measure-population",
              "code": "denominator-exclusion",
              "display": "Denominator Exclusion"
            } ]
          },
          "count": 1
        }, {
          "id": "Numerator_1",
          "code": {
            "coding": [ {
              "system": "http://terminology.hl7.org/CodeSystem/measure-population",
              "code": "numerator",
              "display": "Numerator"
            } ]
          },
          "count": 0
        }, {
          "id": "DenominatorException_1",
          "code": {
            "coding": [ {
              "system": "http://terminology.hl7.org/CodeSystem/measure-population",
              "code": "denominator-exception",
              "display": "Denominator Exception"
            } ]
          },
          "count": 0
        } ],
        "measureScore": {
          "value": 1.0
        }
      } ],
      "evaluatedResource": [ {
        "reference": "Patient/953ef59d-4c39-40ef-8067-87b5ecf84727"
      }, {
        "reference": "Encounter/023f1b70-0a1d-470f-90e3-bdaf98b10a65"
      }, {
        "reference": "ServiceRequest/36ec03b2-8f3b-452b-b01e-c6bbc2eaf2d2"
      }, {
        "reference": "Coverage/10def516-ebab-4721-864e-ee47fa8a006d"
      }, {
        "reference": "Organization/519197b6-fcc6-44c1-87b8-5cf48a2c40d4"
      } ]
    }
  } ]
}