{
  "resourceType": "Bundle",
  "id": "6179e726ad1a790b7af75248",
  "type": "transaction",
  "entry": [ {
    "fullUrl": "https://madie.cms.gov/Patient/c485da91-d480-4bb6-b24d-0280bda7c512",
    "resource": {
      "resourceType": "Patient",
      "id": "c485da91-d480-4bb6-b24d-0280bda7c512",
      "meta": {
        "profile": [ "http://hl7.org/fhir/us/qicore/StructureDefinition/qicore-patient" ]
      },
      "extension": [ {
        "url": "http://hl7.org/fhir/us/core/StructureDefinition/us-core-race",
        "extension": [ {
          "url": "ombCategory",
          "valueCoding": {
            "system": "urn:oid:2.16.840.1.113883.6.238",
            "code": "2076-8",
            "display": "Native Hawaiian or Other Pacific Islander",
            "userSelected": true
          }
        }, {
          "url": "text",
          "valueString": "Native Hawaiian or Other Pacific Islander"
        } ]
      }, {
        "url": "http://hl7.org/fhir/us/core/StructureDefinition/us-core-ethnicity",
        "extension": [ {
          "url": "ombCategory",
          "valueCoding": {
            "system": "urn:oid:2.16.840.1.113883.6.238",
            "code": "2186-5",
            "display": "Not Hispanic or Latino",
            "userSelected": true
          }
        }, {
          "url": "text",
          "valueString": "Not Hispanic or Latino"
        } ]
      }, {
        "url": "http://hl7.org/fhir/us/core/StructureDefinition/us-core-sex",
        "valueCode": "248152002"
      } ],
      "identifier": [ {
        "type": {
          "coding": [ {
            "system": "http://terminology.hl7.org/CodeSystem/v2-0203",
            "code": "MR"
          } ]
        },
        "system": "https://bonnie-fhir.healthit.gov/",
        "value": "6179e726ad1a790b7af75248"
      } ],
      "name": [ {
        "family": "DenExcl1Pass",
        "given": [ "DxExclStartsDuringEndsAfterED" ]
      } ],
      "gender": "female",
      "birthDate": "1985-12-02"
    },
    "request": {
      "method": "PUT",
      "url": "Patient/c485da91-d480-4bb6-b24d-0280bda7c512"
    }
  }, {
    "fullUrl": "https://madie.cms.gov/Encounter/bd7d9d35-e23f-4455-91de-81e37e0bb7ef",
    "resource": {
      "resourceType": "Encounter",
      "id": "bd7d9d35-e23f-4455-91de-81e37e0bb7ef",
      "meta": {
        "profile": [ "http://hl7.org/fhir/us/qicore/StructureDefinition/qicore-encounter" ]
      },
      "status": "finished",
      "class": {
        "system": "http://terminology.hl7.org/CodeSystem/v3-ActCode",
        "code": "EMER",
        "display": "emergency",
        "userSelected": true
      },
      "type": [ {
        "coding": [ {
          "system": "http://snomed.info/sct",
          "version": "2020-09",
          "code": "4525004",
          "display": "Emergency department patient visit (procedure)",
          "userSelected": true
        } ]
      } ],
      "subject": {
        "reference": "Patient/c485da91-d480-4bb6-b24d-0280bda7c512"
      },
      "period": {
        "start": "2026-10-09T08:05:00.000+00:00",
        "end": "2026-10-10T07:15:00.000+00:00"
      },
      "reasonReference": [ {
        "reference": "Condition/c251b257-254b-4b16-bb43-fc781ac1d5ef"
      } ]
    },
    "request": {
      "method": "PUT",
      "url": "Encounter/bd7d9d35-e23f-4455-91de-81e37e0bb7ef"
    }
  }, {
    "fullUrl": "https://madie.cms.gov/Condition/c251b257-254b-4b16-bb43-fc781ac1d5ef",
    "resource": {
      "resourceType": "Condition",
      "id": "c251b257-254b-4b16-bb43-fc781ac1d5ef",
      "meta": {
        "profile": [ "http://hl7.org/fhir/us/qicore/StructureDefinition/qicore-condition-problems-health-concerns" ]
      },
      "clinicalStatus": {
        "coding": [ {
          "system": "http://terminology.hl7.org/CodeSystem/condition-clinical",
          "code": "active",
          "display": "active",
          "userSelected": true
        } ]
      },
      "verificationStatus": {
        "coding": [ {
          "system": "http://terminology.hl7.org/CodeSystem/condition-ver-status",
          "code": "differential"
        } ]
      },
      "category": [ {
        "coding": [ {
          "system": "http://terminology.hl7.org/CodeSystem/condition-category",
          "code": "problem-list-item",
          "display": "Problem List Item",
          "userSelected": true
        } ]
      } ],
      "code": {
        "coding": [ {
          "system": "http://snomed.info/sct",
          "version": "2020-09",
          "code": "401303003",
          "display": "Acute ST segment elevation myocardial infarction (disorder)",
          "userSelected": true
        } ]
      },
      "subject": {
        "reference": "Patient/c485da91-d480-4bb6-b24d-0280bda7c512"
      },
      "onsetDateTime": "2026-10-09T08:30:00.000+00:00"
    },
    "request": {
      "method": "PUT",
      "url": "Condition/c251b257-254b-4b16-bb43-fc781ac1d5ef"
    }
  }, {
    "fullUrl": "https://madie.cms.gov/Condition/ec367ba7-f312-4fc4-bfe1-8e51d382b395",
    "resource": {
      "resourceType": "Condition",
      "id": "ec367ba7-f312-4fc4-bfe1-8e51d382b395",
      "meta": {
        "profile": [ "http://hl7.org/fhir/us/qicore/StructureDefinition/qicore-condition-problems-health-concerns" ]
      },
      "clinicalStatus": {
        "coding": [ {
          "system": "http://terminology.hl7.org/CodeSystem/condition-clinical",
          "version": "4.0.1",
          "code": "inactive",
          "display": "Inactive",
          "userSelected": true
        } ]
      },
      "verificationStatus": {
        "coding": [ {
          "system": "http://terminology.hl7.org/CodeSystem/condition-ver-status",
          "code": "unconfirmed"
        } ]
      },
      "category": [ {
        "coding": [ {
          "system": "http://terminology.hl7.org/CodeSystem/condition-category",
          "code": "problem-list-item",
          "display": "Problem List Item",
          "userSelected": true
        } ]
      } ],
      "code": {
        "coding": [ {
          "system": "http://snomed.info/sct",
          "version": "2020-09",
          "code": "14336007",
          "display": "Ruptured abdominal aortic aneurysm (disorder)",
          "userSelected": true
        } ]
      },
      "subject": {
        "reference": "Patient/c485da91-d480-4bb6-b24d-0280bda7c512"
      },
      "onsetDateTime": "2026-10-09T13:00:00.000+00:00",
      "abatementDateTime": "2026-11-07T09:15:00.000+00:00"
    },
    "request": {
      "method": "PUT",
      "url": "Condition/ec367ba7-f312-4fc4-bfe1-8e51d382b395"
    }
  }, {
    "fullUrl": "https://madie.cms.gov/MeasureReport/48117592-0bf4-413d-9f1f-5e956f85a86a",
    "resource": {
      "resourceType": "MeasureReport",
      "id": "48117592-0bf4-413d-9f1f-5e956f85a86a",
      "meta": {
        "profile": [ "http://hl7.org/fhir/us/cqfmeasures/StructureDefinition/test-case-cqfm" ]
      },
      "contained": [ {
        "resourceType": "Parameters",
        "id": "e0de07ca-00c6-4280-8594-4e5885032df7-parameters",
        "parameter": [ {
          "name": "subject",
          "valueString": "c485da91-d480-4bb6-b24d-0280bda7c512"
        } ]
      } ],
      "extension": [ {
        "url": "http://hl7.org/fhir/StructureDefinition/cqf-inputParameters",
        "valueReference": {
          "reference": "#e0de07ca-00c6-4280-8594-4e5885032df7-parameters"
        }
      }, {
        "url": "http://hl7.org/fhir/us/cqfmeasures/StructureDefinition/cqfm-testCaseDescription",
        "valueMarkdown": "Patient has aortic dissection (exclusion diagnosis) that starts during and ends after the ED encounter"
      } ],
      "modifierExtension": [ {
        "url": "http://hl7.org/fhir/us/cqfmeasures/StructureDefinition/cqfm-isTestCase",
        "valueBoolean": true
      } ],
      "status": "complete",
      "type": "individual",
      "measure": "https://madie.cms.gov/Measure/CMS996FHIRAptTxforSTEMI",
      "period": {
        "start": "2026-01-01",
        "end": "2026-12-31"
      },
      "group": [ {
        "id": "Group_1",
        "population": [ {
          "id": "InitialPopulation_1",
          "code": {
            "coding": [ {
              "system": "http://terminology.hl7.org/CodeSystem/measure-population",
              "code": "initial-population",
              "display": "Initial Population"
            } ]
          },
          "count": 1
        }, {
          "id": "Denominator_1",
          "code": {
            "coding": [ {
              "system": "http://terminology.hl7.org/CodeSystem/measure-population",
              "code": "denominator",
              "display": "Denominator"
            } ]
          },
          "count": 1
        }, {
          "id": "DenominatorExclusion_1",
          "code": {
            "coding": [ {
              "system": "http://terminology.hl7.org/CodeSystem/measure-population",
              "code": "denominator-exclusion",
              "display": "Denominator Exclusion"
            } ]
          },
          "count": 1
        }, {
          "id": "Numerator_1",
          "code": {
            "coding": [ {
              "system": "http://terminology.hl7.org/CodeSystem/measure-population",
              "code": "numerator",
              "display": "Numerator"
            } ]
          },
          "count": 0
        }, {
          "id": "DenominatorException_1",
          "code": {
            "coding": [ {
              "system": "http://terminology.hl7.org/CodeSystem/measure-population",
              "code": "denominator-exception",
              "display": "Denominator Exception"
            } ]
          },
          "count": 0
        } ],
        "measureScore": {
          "value": 0.0
        }
      } ],
      "evaluatedResource": [ {
        "reference": "Patient/c485da91-d480-4bb6-b24d-0280bda7c512"
      }, {
        "reference": "Encounter/bd7d9d35-e23f-4455-91de-81e37e0bb7ef"
      }, {
        "reference": "Condition/c251b257-254b-4b16-bb43-fc781ac1d5ef"
      }, {
        "reference": "Condition/ec367ba7-f312-4fc4-bfe1-8e51d382b395"
      } ]
    },
    "request": {
      "method": "PUT",
      "url": "MeasureReport/48117592-0bf4-413d-9f1f-5e956f85a86a"
    }
  } ]
}