{
  "resourceType": "Bundle",
  "id": "DENEXFail-HospiceProcedureStartsAfterMP",
  "type": "transaction",
  "entry": [ {
    "fullUrl": "https://madie.cms.gov/Patient/67ee2f03-89c1-4edb-b0fa-7e07effb4477",
    "resource": {
      "resourceType": "Patient",
      "id": "67ee2f03-89c1-4edb-b0fa-7e07effb4477",
      "meta": {
        "profile": [ "http://hl7.org/fhir/us/qicore/StructureDefinition/qicore-patient" ]
      },
      "extension": [ {
        "url": "http://hl7.org/fhir/us/core/StructureDefinition/us-core-race",
        "extension": [ {
          "url": "ombCategory",
          "valueCoding": {
            "system": "urn:oid:2.16.840.1.113883.6.238",
            "code": "2028-9",
            "display": "Asian"
          }
        }, {
          "url": "text",
          "valueString": "Asian"
        } ]
      }, {
        "url": "http://hl7.org/fhir/us/core/StructureDefinition/us-core-ethnicity",
        "extension": [ {
          "url": "ombCategory",
          "valueCoding": {
            "system": "urn:oid:2.16.840.1.113883.6.238",
            "code": "2135-2",
            "display": "Hispanic or Latino"
          }
        }, {
          "url": "text",
          "valueString": "Hispanic or Latino"
        } ]
      } ],
      "identifier": [ {
        "system": "http://hospital.smarthealthit.org",
        "value": "999999995"
      } ],
      "name": [ {
        "family": "IPFail",
        "given": [ "HospiceProcedureStartsAfterMP" ]
      } ],
      "gender": "female",
      "birthDate": "2007-12-31"
    },
    "request": {
      "method": "PUT",
      "url": "Patient/67ee2f03-89c1-4edb-b0fa-7e07effb4477"
    }
  }, {
    "fullUrl": "https://madie.cms.gov/Encounter/4346114d-fd4c-415a-b96a-9e811ba0e867",
    "resource": {
      "resourceType": "Encounter",
      "id": "4346114d-fd4c-415a-b96a-9e811ba0e867",
      "meta": {
        "profile": [ "http://hl7.org/fhir/us/qicore/StructureDefinition/qicore-encounter" ]
      },
      "status": "finished",
      "class": {
        "system": "http://terminology.hl7.org/CodeSystem/v3-ActCode",
        "code": "AMB",
        "display": "ambulatory"
      },
      "type": [ {
        "coding": [ {
          "system": "http://snomed.info/sct",
          "code": "3391000175108",
          "display": "Office visit for pediatric care and assessment (procedure)"
        } ]
      } ],
      "subject": {
        "reference": "Patient/67ee2f03-89c1-4edb-b0fa-7e07effb4477"
      },
      "period": {
        "start": "2026-01-01T00:00:00.000+00:00",
        "end": "2026-01-01T01:00:00.000+00:00"
      }
    },
    "request": {
      "method": "PUT",
      "url": "Encounter/4346114d-fd4c-415a-b96a-9e811ba0e867"
    }
  }, {
    "fullUrl": "https://madie.cms.gov/Condition/3f0676b2-065c-4d42-a596-8957111454e2",
    "resource": {
      "resourceType": "Condition",
      "id": "3f0676b2-065c-4d42-a596-8957111454e2",
      "meta": {
        "profile": [ "http://hl7.org/fhir/us/qicore/StructureDefinition/qicore-condition-encounter-diagnosis" ]
      },
      "clinicalStatus": {
        "coding": [ {
          "system": "http://terminology.hl7.org/CodeSystem/condition-clinical",
          "code": "active"
        } ]
      },
      "category": [ {
        "coding": [ {
          "system": "http://terminology.hl7.org/CodeSystem/condition-category",
          "code": "encounter-diagnosis",
          "display": "Encounter Diagnosis"
        } ]
      } ],
      "code": {
        "coding": [ {
          "system": "http://snomed.info/sct",
          "code": "371125006",
          "display": "Labile essential hypertension (disorder)"
        } ]
      },
      "subject": {
        "reference": "Patient/67ee2f03-89c1-4edb-b0fa-7e07effb4477"
      },
      "onsetDateTime": "2026-06-30T23:59:59.000+00:00"
    },
    "request": {
      "method": "PUT",
      "url": "Condition/3f0676b2-065c-4d42-a596-8957111454e2"
    }
  }, {
    "fullUrl": "https://madie.cms.gov/Procedure/fa39a739-58d9-4d1e-9ba8-7df1a05fffcb",
    "resource": {
      "resourceType": "Procedure",
      "id": "fa39a739-58d9-4d1e-9ba8-7df1a05fffcb",
      "meta": {
        "profile": [ "http://hl7.org/fhir/us/qicore/StructureDefinition/qicore-procedure" ]
      },
      "extension": [ {
        "url": "http://hl7.org/fhir/us/qicore/StructureDefinition/qicore-recorded",
        "valueDateTime": "2026-12-31T00:00:00.000+00:00"
      } ],
      "status": "completed",
      "code": {
        "coding": [ {
          "system": "http://snomed.info/sct",
          "code": "385763009",
          "display": "Hospice care (regime/therapy)"
        } ]
      },
      "subject": {
        "reference": "Patient/67ee2f03-89c1-4edb-b0fa-7e07effb4477"
      },
      "performedPeriod": {
        "start": "2027-01-01T00:00:00.000+00:00",
        "end": "2027-01-01T01:00:00.000+00:00"
      }
    },
    "request": {
      "method": "PUT",
      "url": "Procedure/fa39a739-58d9-4d1e-9ba8-7df1a05fffcb"
    }
  }, {
    "fullUrl": "https://madie.cms.gov/MeasureReport/85796632-f2d0-4cca-a88a-f3dbacbb3715",
    "resource": {
      "resourceType": "MeasureReport",
      "id": "85796632-f2d0-4cca-a88a-f3dbacbb3715",
      "meta": {
        "profile": [ "http://hl7.org/fhir/us/cqfmeasures/StructureDefinition/test-case-cqfm" ]
      },
      "contained": [ {
        "resourceType": "Parameters",
        "id": "6b8aaaba-6506-4237-9faf-06d8ae055aef-parameters",
        "parameter": [ {
          "name": "subject",
          "valueString": "67ee2f03-89c1-4edb-b0fa-7e07effb4477"
        } ]
      } ],
      "extension": [ {
        "url": "http://hl7.org/fhir/StructureDefinition/cqf-inputParameters",
        "valueReference": {
          "reference": "#6b8aaaba-6506-4237-9faf-06d8ae055aef-parameters"
        }
      }, {
        "url": "http://hl7.org/fhir/us/cqfmeasures/StructureDefinition/cqfm-testCaseDescription",
        "valueMarkdown": "Hospice procedure starts after MP"
      } ],
      "modifierExtension": [ {
        "url": "http://hl7.org/fhir/us/cqfmeasures/StructureDefinition/cqfm-isTestCase",
        "valueBoolean": true
      } ],
      "status": "complete",
      "type": "individual",
      "measure": "https://madie.cms.gov/Measure/CMS165FHIRControllingHighBP",
      "period": {
        "start": "2026-01-01",
        "end": "2026-12-31"
      },
      "group": [ {
        "id": "Group_1",
        "population": [ {
          "id": "InitialPopulation_1",
          "code": {
            "coding": [ {
              "system": "http://terminology.hl7.org/CodeSystem/measure-population",
              "code": "initial-population",
              "display": "Initial Population"
            } ]
          },
          "count": 1
        }, {
          "id": "Denominator_1",
          "code": {
            "coding": [ {
              "system": "http://terminology.hl7.org/CodeSystem/measure-population",
              "code": "denominator",
              "display": "Denominator"
            } ]
          },
          "count": 1
        }, {
          "id": "DenominatorExclusion_1",
          "code": {
            "coding": [ {
              "system": "http://terminology.hl7.org/CodeSystem/measure-population",
              "code": "denominator-exclusion",
              "display": "Denominator Exclusion"
            } ]
          },
          "count": 0
        }, {
          "id": "Numerator_1",
          "code": {
            "coding": [ {
              "system": "http://terminology.hl7.org/CodeSystem/measure-population",
              "code": "numerator",
              "display": "Numerator"
            } ]
          },
          "count": 0
        } ],
        "measureScore": {
          "value": 1.0
        }
      } ],
      "evaluatedResource": [ {
        "reference": "Patient/67ee2f03-89c1-4edb-b0fa-7e07effb4477"
      }, {
        "reference": "Encounter/4346114d-fd4c-415a-b96a-9e811ba0e867"
      }, {
        "reference": "Condition/3f0676b2-065c-4d42-a596-8957111454e2"
      }, {
        "reference": "Procedure/fa39a739-58d9-4d1e-9ba8-7df1a05fffcb"
      } ]
    },
    "request": {
      "method": "PUT",
      "url": "MeasureReport/85796632-f2d0-4cca-a88a-f3dbacbb3715"
    }
  } ]
}