{
  "resourceType": "Bundle",
  "id": "62c880ec0111a60120dc21ed",
  "type": "transaction",
  "entry": [ {
    "fullUrl": "https://madie.cms.gov/Patient/a6620e07-4eac-4f5c-afb4-3e5e43cb1bf4",
    "resource": {
      "resourceType": "Patient",
      "id": "a6620e07-4eac-4f5c-afb4-3e5e43cb1bf4",
      "meta": {
        "profile": [ "http://hl7.org/fhir/us/qicore/StructureDefinition/qicore-patient" ]
      },
      "text": {
        "status": "generated",
        "div": "<div xmlns=\"http://www.w3.org/1999/xhtml\"><div class=\"hapiHeaderText\">CancerDxInvalidCode<b>DENOMFailPop2</b></div><table class=\"hapiPropertyTable\"><tbody><tr><td>Date of birth</td><td><span>04 March 1978</span></td></tr></tbody></table></div>"
      },
      "extension": [ {
        "url": "http://hl7.org/fhir/us/core/StructureDefinition/us-core-race",
        "extension": [ {
          "url": "ombCategory",
          "valueCoding": {
            "system": "urn:oid:2.16.840.1.113883.6.238",
            "code": "1002-5",
            "display": "American Indian or Alaska Native",
            "userSelected": true
          }
        }, {
          "url": "text",
          "valueString": "American Indian or Alaska Native"
        } ]
      }, {
        "url": "http://hl7.org/fhir/us/core/StructureDefinition/us-core-ethnicity",
        "extension": [ {
          "url": "ombCategory",
          "valueCoding": {
            "system": "urn:oid:2.16.840.1.113883.6.238",
            "code": "2135-2",
            "display": "Hispanic or Latino",
            "userSelected": true
          }
        }, {
          "url": "text",
          "valueString": "Hispanic or Latino"
        } ]
      } ],
      "identifier": [ {
        "type": {
          "coding": [ {
            "system": "http://terminology.hl7.org/CodeSystem/v2-0203",
            "code": "MR"
          } ]
        },
        "system": "https://bonnie-fhir.healthit.gov/",
        "value": "62c880ec0111a60120dc21ed"
      } ],
      "active": true,
      "name": [ {
        "use": "usual",
        "family": "DENOMFailPop2",
        "given": [ "CancerDxInvalidCode" ]
      } ],
      "gender": "female",
      "birthDate": "1979-03-04"
    },
    "request": {
      "method": "PUT",
      "url": "Patient/a6620e07-4eac-4f5c-afb4-3e5e43cb1bf4"
    }
  }, {
    "fullUrl": "https://madie.cms.gov/Condition/81a2fff2-541f-4c0b-b454-c63ec116c3cb",
    "resource": {
      "resourceType": "Condition",
      "id": "81a2fff2-541f-4c0b-b454-c63ec116c3cb",
      "meta": {
        "profile": [ "http://hl7.org/fhir/us/qicore/StructureDefinition/qicore-condition" ]
      },
      "clinicalStatus": {
        "coding": [ {
          "system": "http://terminology.hl7.org/CodeSystem/condition-clinical",
          "code": "inactive",
          "display": "inactive"
        } ]
      },
      "verificationStatus": {
        "coding": [ {
          "system": "http://terminology.hl7.org/CodeSystem/condition-ver-status",
          "code": "confirmed",
          "display": "confirmed"
        } ]
      },
      "category": [ {
        "coding": [ {
          "system": "http://terminology.hl7.org/CodeSystem/condition-category",
          "code": "problem-list-item",
          "display": "Problem List Item"
        } ]
      } ],
      "code": {
        "coding": [ {
          "system": "http://snomed.info/sct",
          "code": "000000"
        } ]
      },
      "subject": {
        "reference": "Patient/a6620e07-4eac-4f5c-afb4-3e5e43cb1bf4"
      },
      "onsetDateTime": "2026-02-10T08:00:00.000+00:00",
      "abatementDateTime": "2026-02-10T08:15:00.000+00:00"
    },
    "request": {
      "method": "PUT",
      "url": "Condition/81a2fff2-541f-4c0b-b454-c63ec116c3cb"
    }
  }, {
    "fullUrl": "https://madie.cms.gov/Coverage/a301320c-af99-4f31-9625-03ddc16a03df",
    "resource": {
      "resourceType": "Coverage",
      "id": "a301320c-af99-4f31-9625-03ddc16a03df",
      "meta": {
        "profile": [ "http://hl7.org/fhir/us/qicore/StructureDefinition/qicore-coverage" ]
      },
      "status": "active",
      "beneficiary": {
        "reference": "Patient/a6620e07-4eac-4f5c-afb4-3e5e43cb1bf4"
      },
      "period": {
        "start": "1979-03-04T08:00:00.000+00:00"
      },
      "payor": [ {
        "reference": "Organization/0f29b23d-a2a4-40bf-ba57-8d3f800013a5"
      } ]
    },
    "request": {
      "method": "PUT",
      "url": "Coverage/a301320c-af99-4f31-9625-03ddc16a03df"
    }
  }, {
    "fullUrl": "https://madie.cms.gov/Encounter/2765d921-3e3e-4fb3-a088-990d52145338",
    "resource": {
      "resourceType": "Encounter",
      "id": "2765d921-3e3e-4fb3-a088-990d52145338",
      "meta": {
        "profile": [ "http://hl7.org/fhir/us/qicore/StructureDefinition/qicore-encounter" ]
      },
      "status": "finished",
      "class": {
        "system": "http://terminology.hl7.org/CodeSystem/v3-ActCode",
        "code": "AMB",
        "display": "ambulatory",
        "userSelected": true
      },
      "type": [ {
        "coding": [ {
          "system": "http://www.ama-assn.org/go/cpt",
          "code": "77427"
        } ]
      } ],
      "subject": {
        "reference": "Patient/a6620e07-4eac-4f5c-afb4-3e5e43cb1bf4"
      },
      "period": {
        "start": "2026-02-10T08:00:00.000+00:00",
        "end": "2026-02-10T08:15:00.000+00:00"
      }
    },
    "request": {
      "method": "PUT",
      "url": "Encounter/2765d921-3e3e-4fb3-a088-990d52145338"
    }
  }, {
    "fullUrl": "https://madie.cms.gov/Organization/0f29b23d-a2a4-40bf-ba57-8d3f800013a5",
    "resource": {
      "resourceType": "Organization",
      "id": "0f29b23d-a2a4-40bf-ba57-8d3f800013a5",
      "meta": {
        "profile": [ "http://hl7.org/fhir/us/qicore/StructureDefinition/qicore-organization" ]
      },
      "identifier": [ {
        "use": "temp",
        "system": "urn:oid:2.16.840.1.113883.4.4",
        "value": "21-3259825"
      } ],
      "active": true,
      "type": [ {
        "coding": [ {
          "system": "http://terminology.hl7.org/CodeSystem/organization-type",
          "code": "pay",
          "display": "Payer"
        } ]
      } ],
      "name": "Blue Cross Blue Shield of Texas",
      "telecom": [ {
        "system": "phone",
        "value": "(+1) 972-766-6900"
      } ],
      "address": [ {
        "use": "billing",
        "type": "postal",
        "line": [ "P.O. Box 660044" ],
        "city": "Dallas",
        "state": "TX",
        "postalCode": "75266-0044",
        "country": "USA"
      } ]
    },
    "request": {
      "method": "PUT",
      "url": "Organization/0f29b23d-a2a4-40bf-ba57-8d3f800013a5"
    }
  }, {
    "fullUrl": "https://madie.cms.gov/Practitioner/4ead6860-aa81-4c4b-a37d-4946b1129d17",
    "resource": {
      "resourceType": "Practitioner",
      "id": "4ead6860-aa81-4c4b-a37d-4946b1129d17",
      "meta": {
        "profile": [ "http://hl7.org/fhir/us/qicore/StructureDefinition/qicore-practitioner" ]
      },
      "identifier": [ {
        "system": "http://hl7.org/fhir/sid/us-npi",
        "value": "123456"
      } ],
      "name": [ {
        "family": "Evil",
        "prefix": [ "Dr" ]
      } ]
    },
    "request": {
      "method": "PUT",
      "url": "Practitioner/4ead6860-aa81-4c4b-a37d-4946b1129d17"
    }
  }, {
    "fullUrl": "https://madie.cms.gov/MeasureReport/8c81f4a6-880c-4ffa-9bd5-146a98815075",
    "resource": {
      "resourceType": "MeasureReport",
      "id": "8c81f4a6-880c-4ffa-9bd5-146a98815075",
      "meta": {
        "profile": [ "http://hl7.org/fhir/us/cqfmeasures/StructureDefinition/test-case-cqfm" ]
      },
      "contained": [ {
        "resourceType": "Parameters",
        "id": "8fe7db48-4c7d-4303-9889-15e7a0cedc6c-parameters",
        "parameter": [ {
          "name": "subject",
          "valueString": "a6620e07-4eac-4f5c-afb4-3e5e43cb1bf4"
        } ]
      } ],
      "extension": [ {
        "url": "http://hl7.org/fhir/StructureDefinition/cqf-inputParameters",
        "valueReference": {
          "reference": "#8fe7db48-4c7d-4303-9889-15e7a0cedc6c-parameters"
        }
      }, {
        "url": "http://hl7.org/fhir/us/cqfmeasures/StructureDefinition/cqfm-testCaseDescription",
        "valueMarkdown": "Cancer diagnosis code used is invalid or custom code.\n"
      } ],
      "modifierExtension": [ {
        "url": "http://hl7.org/fhir/us/cqfmeasures/StructureDefinition/cqfm-isTestCase",
        "valueBoolean": true
      } ],
      "status": "complete",
      "type": "individual",
      "measure": "https://madie.cms.gov/Measure/CMS157FHIRPainIntensityQuantified",
      "period": {
        "start": "2026-01-01",
        "end": "2026-12-31"
      },
      "group": [ {
        "id": "Group_1",
        "population": [ {
          "id": "InitialPopulation_1",
          "code": {
            "coding": [ {
              "system": "http://terminology.hl7.org/CodeSystem/measure-population",
              "code": "initial-population",
              "display": "Initial Population"
            } ]
          },
          "count": 0
        }, {
          "id": "Denominator_1",
          "code": {
            "coding": [ {
              "system": "http://terminology.hl7.org/CodeSystem/measure-population",
              "code": "denominator",
              "display": "Denominator"
            } ]
          },
          "count": 0
        }, {
          "id": "Numerator_1",
          "code": {
            "coding": [ {
              "system": "http://terminology.hl7.org/CodeSystem/measure-population",
              "code": "numerator",
              "display": "Numerator"
            } ]
          },
          "count": 0
        } ],
        "measureScore": {
          "value": 0.0
        }
      }, {
        "id": "Group_2",
        "population": [ {
          "id": "InitialPopulation_2",
          "code": {
            "coding": [ {
              "system": "http://terminology.hl7.org/CodeSystem/measure-population",
              "code": "initial-population",
              "display": "Initial Population"
            } ]
          },
          "count": 0
        }, {
          "id": "Denominator_2",
          "code": {
            "coding": [ {
              "system": "http://terminology.hl7.org/CodeSystem/measure-population",
              "code": "denominator",
              "display": "Denominator"
            } ]
          },
          "count": 0
        }, {
          "id": "Numerator_2",
          "code": {
            "coding": [ {
              "system": "http://terminology.hl7.org/CodeSystem/measure-population",
              "code": "numerator",
              "display": "Numerator"
            } ]
          },
          "count": 0
        } ],
        "measureScore": {
          "value": 0.0
        }
      } ],
      "evaluatedResource": [ {
        "reference": "Patient/a6620e07-4eac-4f5c-afb4-3e5e43cb1bf4"
      }, {
        "reference": "Condition/81a2fff2-541f-4c0b-b454-c63ec116c3cb"
      }, {
        "reference": "Coverage/a301320c-af99-4f31-9625-03ddc16a03df"
      }, {
        "reference": "Encounter/2765d921-3e3e-4fb3-a088-990d52145338"
      }, {
        "reference": "Organization/0f29b23d-a2a4-40bf-ba57-8d3f800013a5"
      }, {
        "reference": "Practitioner/4ead6860-aa81-4c4b-a37d-4946b1129d17"
      } ]
    },
    "request": {
      "method": "PUT",
      "url": "MeasureReport/8c81f4a6-880c-4ffa-9bd5-146a98815075"
    }
  } ]
}