{
  "resourceType": "Bundle",
  "id": "63487c2f0968f8012254019e",
  "type": "transaction",
  "entry": [ {
    "fullUrl": "https://madie.cms.gov/Patient/05a14141-d625-46ef-8ec1-f522980d2daa",
    "resource": {
      "resourceType": "Patient",
      "id": "05a14141-d625-46ef-8ec1-f522980d2daa",
      "meta": {
        "profile": [ "http://hl7.org/fhir/us/qicore/StructureDefinition/qicore-patient" ]
      },
      "text": {
        "status": "generated",
        "div": "<div xmlns=\"http://www.w3.org/1999/xhtml\"><div class=\"hapiHeaderText\">CalcEGA37Weeks_EDD1minBFDeliveryTime <b>DENPASS </b></div><table class=\"hapiPropertyTable\"><tbody><tr><td>Identifier</td><td>c6b51506d3a7092894a3f06af44f7ab397fd257a35f97f16644057feff48ec70</td></tr><tr><td>Date of birth</td><td><span>14 February 1985</span></td></tr></tbody></table></div>"
      },
      "extension": [ {
        "url": "http://hl7.org/fhir/us/core/StructureDefinition/us-core-race",
        "extension": [ {
          "url": "ombCategory",
          "valueCoding": {
            "system": "urn:oid:2.16.840.1.113883.6.238",
            "code": "1002-5",
            "display": "American Indian or Alaska Native",
            "userSelected": true
          }
        }, {
          "url": "text",
          "valueString": "American Indian or Alaska Native"
        } ]
      }, {
        "url": "http://hl7.org/fhir/us/core/StructureDefinition/us-core-ethnicity",
        "extension": [ {
          "url": "ombCategory",
          "valueCoding": {
            "system": "urn:oid:2.16.840.1.113883.6.238",
            "code": "2135-2",
            "display": "Hispanic or Latino",
            "userSelected": true
          }
        }, {
          "url": "text",
          "valueString": "Hispanic or Latino"
        } ]
      } ],
      "identifier": [ {
        "type": {
          "coding": [ {
            "system": "http://terminology.hl7.org/CodeSystem/v2-0203",
            "code": "MR"
          } ]
        },
        "system": "https://bonnie-fhir.healthit.gov/",
        "value": "63487c2f0968f8012254019e"
      } ],
      "active": true,
      "name": [ {
        "use": "usual",
        "family": "DENPass",
        "given": [ "CalcEGA37Weeks_EDD1minBFDeliveryTime" ]
      } ],
      "gender": "female",
      "birthDate": "1998-02-14"
    },
    "request": {
      "method": "PUT",
      "url": "Patient/05a14141-d625-46ef-8ec1-f522980d2daa"
    }
  }, {
    "fullUrl": "https://madie.cms.gov/Observation/577ee686-c0a7-4806-9da7-feec197322df",
    "resource": {
      "resourceType": "Observation",
      "id": "577ee686-c0a7-4806-9da7-feec197322df",
      "meta": {
        "profile": [ "http://hl7.org/fhir/us/qicore/StructureDefinition/qicore-simple-observation" ]
      },
      "status": "final",
      "category": [ {
        "coding": [ {
          "system": "http://terminology.hl7.org/CodeSystem/observation-category",
          "code": "exam",
          "display": "exam",
          "userSelected": true
        } ]
      } ],
      "code": {
        "coding": [ {
          "system": "http://loinc.org",
          "code": "11996-6"
        } ]
      },
      "subject": {
        "reference": "Patient/05a14141-d625-46ef-8ec1-f522980d2daa"
      },
      "effectiveDateTime": "2025-08-19T19:00:00.000+00:00",
      "valueInteger": 1
    },
    "request": {
      "method": "PUT",
      "url": "Observation/577ee686-c0a7-4806-9da7-feec197322df"
    }
  }, {
    "fullUrl": "https://madie.cms.gov/Observation/4ce2243e-85c5-41f9-b300-88b58d77a572",
    "resource": {
      "resourceType": "Observation",
      "id": "4ce2243e-85c5-41f9-b300-88b58d77a572",
      "meta": {
        "profile": [ "http://hl7.org/fhir/us/qicore/StructureDefinition/qicore-simple-observation" ]
      },
      "status": "final",
      "category": [ {
        "coding": [ {
          "system": "http://terminology.hl7.org/CodeSystem/observation-category",
          "code": "exam",
          "display": "exam",
          "userSelected": true
        } ]
      } ],
      "code": {
        "coding": [ {
          "system": "http://loinc.org",
          "code": "93857-1"
        } ]
      },
      "subject": {
        "reference": "Patient/05a14141-d625-46ef-8ec1-f522980d2daa"
      },
      "effectiveDateTime": "2026-01-15T19:00:00.000+00:00",
      "valueDateTime": "2026-01-15T19:00:00.000+00:00"
    },
    "request": {
      "method": "PUT",
      "url": "Observation/4ce2243e-85c5-41f9-b300-88b58d77a572"
    }
  }, {
    "fullUrl": "https://madie.cms.gov/Observation/2fb6abf6-bcb8-47aa-94db-67826ad4bd9b",
    "resource": {
      "resourceType": "Observation",
      "id": "2fb6abf6-bcb8-47aa-94db-67826ad4bd9b",
      "meta": {
        "profile": [ "http://hl7.org/fhir/us/qicore/StructureDefinition/qicore-simple-observation" ]
      },
      "status": "final",
      "category": [ {
        "coding": [ {
          "system": "http://terminology.hl7.org/CodeSystem/observation-category",
          "code": "exam",
          "display": "exam",
          "userSelected": true
        } ]
      } ],
      "code": {
        "coding": [ {
          "system": "http://loinc.org",
          "code": "11778-8"
        } ]
      },
      "subject": {
        "reference": "Patient/05a14141-d625-46ef-8ec1-f522980d2daa"
      },
      "effectiveDateTime": "2026-01-15T18:59:00.000+00:00",
      "valueDateTime": "2026-02-05T08:00:00.000+00:00"
    },
    "request": {
      "method": "PUT",
      "url": "Observation/2fb6abf6-bcb8-47aa-94db-67826ad4bd9b"
    }
  }, {
    "fullUrl": "https://madie.cms.gov/Encounter/69b63d52-f4f9-46c9-bb71-e30bfbe2aede",
    "resource": {
      "resourceType": "Encounter",
      "id": "69b63d52-f4f9-46c9-bb71-e30bfbe2aede",
      "meta": {
        "profile": [ "http://hl7.org/fhir/us/qicore/StructureDefinition/qicore-encounter" ]
      },
      "status": "finished",
      "class": {
        "system": "http://terminology.hl7.org/CodeSystem/v3-ActCode",
        "code": "IMP",
        "display": "inpatient encounter"
      },
      "type": [ {
        "coding": [ {
          "system": "http://snomed.info/sct",
          "code": "183452005"
        } ]
      } ],
      "subject": {
        "reference": "Patient/05a14141-d625-46ef-8ec1-f522980d2daa"
      },
      "period": {
        "start": "2026-01-15T08:00:00.000+00:00",
        "end": "2026-01-20T08:15:00.000+00:00"
      },
      "length": {
        "value": 2,
        "unit": "days"
      },
      "reasonReference": [ {
        "reference": "Condition/56d74df3-b1c8-46bb-9e03-266b680d8bce"
      } ]
    },
    "request": {
      "method": "PUT",
      "url": "Encounter/69b63d52-f4f9-46c9-bb71-e30bfbe2aede"
    }
  }, {
    "fullUrl": "https://madie.cms.gov/Procedure/efdd6ae2-21be-488b-8160-fc6381f312de",
    "resource": {
      "resourceType": "Procedure",
      "id": "efdd6ae2-21be-488b-8160-fc6381f312de",
      "meta": {
        "profile": [ "http://hl7.org/fhir/us/qicore/StructureDefinition/qicore-procedure" ]
      },
      "extension": [ {
        "url": "http://hl7.org/fhir/us/qicore/StructureDefinition/qicore-recorded",
        "valueDateTime": "2014-04-05T13:35:00.000+00:00"
      } ],
      "status": "completed",
      "code": {
        "coding": [ {
          "system": "http://www.cms.gov/Medicare/Coding/ICD10",
          "code": "10D07Z3"
        } ]
      },
      "subject": {
        "reference": "Patient/05a14141-d625-46ef-8ec1-f522980d2daa"
      },
      "performedPeriod": {
        "start": "2026-01-15T08:10:00.000+00:00",
        "end": "2026-01-15T09:14:00.000+00:00"
      }
    },
    "request": {
      "method": "PUT",
      "url": "Procedure/efdd6ae2-21be-488b-8160-fc6381f312de"
    }
  }, {
    "fullUrl": "https://madie.cms.gov/Condition/56d74df3-b1c8-46bb-9e03-266b680d8bce",
    "resource": {
      "resourceType": "Condition",
      "id": "56d74df3-b1c8-46bb-9e03-266b680d8bce",
      "meta": {
        "profile": [ "http://hl7.org/fhir/us/qicore/StructureDefinition/qicore-condition-encounter-diagnosis" ]
      },
      "category": [ {
        "coding": [ {
          "system": "http://terminology.hl7.org/CodeSystem/condition-category",
          "code": "encounter-diagnosis",
          "display": "Encounter Diagnosis"
        } ]
      } ],
      "code": {
        "coding": [ {
          "system": "http://snomed.info/sct",
          "version": "2022-09",
          "code": "169826009",
          "display": "Single live birth (finding)",
          "userSelected": true
        } ]
      },
      "subject": {
        "reference": "Patient/05a14141-d625-46ef-8ec1-f522980d2daa"
      },
      "encounter": {
        "reference": "Encounter/69b63d52-f4f9-46c9-bb71-e30bfbe2aede"
      },
      "recordedDate": "2026-10-20T08:00:00.000+00:00"
    },
    "request": {
      "method": "PUT",
      "url": "Condition/56d74df3-b1c8-46bb-9e03-266b680d8bce"
    }
  }, {
    "fullUrl": "https://madie.cms.gov/Coverage/70af8819-5016-4daf-b942-7bb5b67183b9",
    "resource": {
      "resourceType": "Coverage",
      "id": "70af8819-5016-4daf-b942-7bb5b67183b9",
      "meta": {
        "profile": [ "http://hl7.org/fhir/us/qicore/StructureDefinition/qicore-coverage" ]
      },
      "status": "active",
      "beneficiary": {
        "reference": "Patient/05a14141-d625-46ef-8ec1-f522980d2daa"
      },
      "payor": [ {
        "reference": "Organization/b55fd809-0001-4374-abae-90d8b1984f6c"
      } ]
    },
    "request": {
      "method": "PUT",
      "url": "Coverage/70af8819-5016-4daf-b942-7bb5b67183b9"
    }
  }, {
    "fullUrl": "https://madie.cms.gov/Organization/b55fd809-0001-4374-abae-90d8b1984f6c",
    "resource": {
      "resourceType": "Organization",
      "id": "b55fd809-0001-4374-abae-90d8b1984f6c",
      "meta": {
        "profile": [ "http://hl7.org/fhir/us/qicore/StructureDefinition/qicore-organization" ]
      },
      "identifier": [ {
        "use": "temp",
        "system": "urn:oid:2.16.840.1.113883.4.4",
        "value": "21-3259825"
      } ],
      "active": true,
      "type": [ {
        "coding": [ {
          "system": "http://terminology.hl7.org/CodeSystem/organization-type",
          "code": "pay",
          "display": "Payer"
        } ]
      } ],
      "name": "Blue Cross Blue Shield of Texas",
      "telecom": [ {
        "system": "phone",
        "value": "(+1) 972-766-6900"
      } ],
      "address": [ {
        "use": "billing",
        "type": "postal",
        "line": [ "P.O. Box 660044" ],
        "city": "Dallas",
        "state": "TX",
        "postalCode": "75266-0044",
        "country": "USA"
      } ]
    },
    "request": {
      "method": "PUT",
      "url": "Organization/b55fd809-0001-4374-abae-90d8b1984f6c"
    }
  }, {
    "fullUrl": "https://madie.cms.gov/Practitioner/461b92c1-b39b-486c-861c-38c6c1c4f58a",
    "resource": {
      "resourceType": "Practitioner",
      "id": "461b92c1-b39b-486c-861c-38c6c1c4f58a",
      "identifier": [ {
        "system": "http://hl7.org/fhir/sid/us-npi",
        "value": "123456"
      } ],
      "name": [ {
        "family": "Evil",
        "prefix": [ "Dr" ]
      } ]
    },
    "request": {
      "method": "PUT",
      "url": "Practitioner/461b92c1-b39b-486c-861c-38c6c1c4f58a"
    }
  }, {
    "fullUrl": "https://madie.cms.gov/MeasureReport/8577d670-33df-45b3-9aa6-d2214426e617",
    "resource": {
      "resourceType": "MeasureReport",
      "id": "8577d670-33df-45b3-9aa6-d2214426e617",
      "meta": {
        "profile": [ "http://hl7.org/fhir/us/cqfmeasures/StructureDefinition/test-case-cqfm" ]
      },
      "contained": [ {
        "resourceType": "Parameters",
        "id": "7f93c688-9cb0-4d8b-b89d-cc2cd9b44e25-parameters",
        "parameter": [ {
          "name": "subject",
          "valueString": "05a14141-d625-46ef-8ec1-f522980d2daa"
        } ]
      } ],
      "extension": [ {
        "url": "http://hl7.org/fhir/StructureDefinition/cqf-inputParameters",
        "valueReference": {
          "reference": "#7f93c688-9cb0-4d8b-b89d-cc2cd9b44e25-parameters"
        }
      }, {
        "url": "http://hl7.org/fhir/us/cqfmeasures/StructureDefinition/cqfm-testCaseDescription",
        "valueMarkdown": "EDD is 1 min before delivery time so CGA37Weeks\n"
      } ],
      "modifierExtension": [ {
        "url": "http://hl7.org/fhir/us/cqfmeasures/StructureDefinition/cqfm-isTestCase",
        "valueBoolean": true
      } ],
      "status": "complete",
      "type": "individual",
      "measure": "https://madie.cms.gov/Measure/CMS0334FHIRPCCesareanBirth",
      "period": {
        "start": "2026-01-01",
        "end": "2026-12-31"
      },
      "group": [ {
        "id": "Group_1",
        "population": [ {
          "id": "InitialPopulation_1",
          "code": {
            "coding": [ {
              "system": "http://terminology.hl7.org/CodeSystem/measure-population",
              "code": "initial-population",
              "display": "Initial Population"
            } ]
          },
          "count": 1
        }, {
          "id": "Denominator_1",
          "code": {
            "coding": [ {
              "system": "http://terminology.hl7.org/CodeSystem/measure-population",
              "code": "denominator",
              "display": "Denominator"
            } ]
          },
          "count": 1
        }, {
          "id": "DenominatorExclusion_1",
          "code": {
            "coding": [ {
              "system": "http://terminology.hl7.org/CodeSystem/measure-population",
              "code": "denominator-exclusion",
              "display": "Denominator Exclusion"
            } ]
          },
          "count": 0
        }, {
          "id": "Numerator_1",
          "code": {
            "coding": [ {
              "system": "http://terminology.hl7.org/CodeSystem/measure-population",
              "code": "numerator",
              "display": "Numerator"
            } ]
          },
          "count": 0
        } ],
        "measureScore": {
          "value": 0.0
        }
      } ],
      "evaluatedResource": [ {
        "reference": "Patient/05a14141-d625-46ef-8ec1-f522980d2daa"
      }, {
        "reference": "Observation/577ee686-c0a7-4806-9da7-feec197322df"
      }, {
        "reference": "Observation/4ce2243e-85c5-41f9-b300-88b58d77a572"
      }, {
        "reference": "Observation/2fb6abf6-bcb8-47aa-94db-67826ad4bd9b"
      }, {
        "reference": "Encounter/69b63d52-f4f9-46c9-bb71-e30bfbe2aede"
      }, {
        "reference": "Procedure/efdd6ae2-21be-488b-8160-fc6381f312de"
      }, {
        "reference": "Condition/56d74df3-b1c8-46bb-9e03-266b680d8bce"
      }, {
        "reference": "Coverage/70af8819-5016-4daf-b942-7bb5b67183b9"
      }, {
        "reference": "Organization/b55fd809-0001-4374-abae-90d8b1984f6c"
      }, {
        "reference": "Practitioner/461b92c1-b39b-486c-861c-38c6c1c4f58a"
      } ]
    },
    "request": {
      "method": "PUT",
      "url": "MeasureReport/8577d670-33df-45b3-9aa6-d2214426e617"
    }
  } ]
}