{
  "resourceType": "Bundle",
  "id": "NUMPass-RetinalExamRetinopathyInRightEyeJan1OfMP",
  "type": "transaction",
  "entry": [ {
    "fullUrl": "https://madie.cms.gov/Patient/f850c570-3a2b-4b3b-a9f8-f5fc1b03f639",
    "resource": {
      "resourceType": "Patient",
      "id": "f850c570-3a2b-4b3b-a9f8-f5fc1b03f639",
      "meta": {
        "profile": [ "http://hl7.org/fhir/us/qicore/StructureDefinition/qicore-patient" ]
      },
      "extension": [ {
        "url": "http://hl7.org/fhir/us/core/StructureDefinition/us-core-race",
        "extension": [ {
          "url": "ombCategory",
          "valueCoding": {
            "system": "urn:oid:2.16.840.1.113883.6.238",
            "code": "2028-9",
            "display": "Asian",
            "userSelected": true
          }
        }, {
          "url": "text",
          "valueString": "Asian"
        } ]
      }, {
        "url": "http://hl7.org/fhir/us/core/StructureDefinition/us-core-ethnicity",
        "extension": [ {
          "url": "ombCategory",
          "valueCoding": {
            "system": "urn:oid:2.16.840.1.113883.6.238",
            "code": "2135-2",
            "display": "Hispanic or Latino",
            "userSelected": true
          }
        }, {
          "url": "text",
          "valueString": "Hispanic or Latino"
        } ]
      } ],
      "identifier": [ {
        "type": {
          "coding": [ {
            "system": "http://terminology.hl7.org/CodeSystem/v2-0203",
            "code": "MR"
          } ]
        },
        "system": "http://hospital.smarthealthit.org",
        "value": "999999995"
      } ],
      "name": [ {
        "family": "Bertha",
        "given": [ "Betty" ]
      } ],
      "gender": "female",
      "birthDate": "2007-12-31"
    },
    "request": {
      "method": "PUT",
      "url": "Patient/f850c570-3a2b-4b3b-a9f8-f5fc1b03f639"
    }
  }, {
    "fullUrl": "https://madie.cms.gov/Encounter/52cb71d3-464b-4207-befc-14175082256e",
    "resource": {
      "resourceType": "Encounter",
      "id": "52cb71d3-464b-4207-befc-14175082256e",
      "meta": {
        "profile": [ "http://hl7.org/fhir/us/qicore/StructureDefinition/qicore-encounter" ]
      },
      "status": "finished",
      "class": {
        "system": "http://terminology.hl7.org/CodeSystem/v3-ActCode",
        "code": "AMB",
        "display": "ambulatory"
      },
      "type": [ {
        "coding": [ {
          "system": "http://snomed.info/sct",
          "code": "185463005",
          "display": "Visit out of hours (procedure)"
        } ]
      } ],
      "subject": {
        "reference": "Patient/f850c570-3a2b-4b3b-a9f8-f5fc1b03f639"
      },
      "period": {
        "start": "2026-01-01T00:00:00.000+00:00",
        "end": "2026-01-01T00:00:00.000+00:00"
      }
    },
    "request": {
      "method": "PUT",
      "url": "Encounter/52cb71d3-464b-4207-befc-14175082256e"
    }
  }, {
    "fullUrl": "https://madie.cms.gov/Condition/728591fc-6936-4dec-a58e-0f7052160221",
    "resource": {
      "resourceType": "Condition",
      "id": "728591fc-6936-4dec-a58e-0f7052160221",
      "meta": {
        "profile": [ "http://hl7.org/fhir/us/qicore/StructureDefinition/qicore-condition-encounter-diagnosis" ]
      },
      "clinicalStatus": {
        "coding": [ {
          "system": "http://terminology.hl7.org/CodeSystem/condition-clinical",
          "code": "active"
        } ]
      },
      "category": [ {
        "coding": [ {
          "system": "http://terminology.hl7.org/CodeSystem/condition-category",
          "code": "encounter-diagnosis",
          "display": "Encounter Diagnosis"
        } ]
      } ],
      "code": {
        "coding": [ {
          "system": "http://snomed.info/sct",
          "code": "102781000119107",
          "display": "Sensory neuropathy due to type 1 diabetes mellitus (disorder)"
        } ]
      },
      "subject": {
        "reference": "Patient/f850c570-3a2b-4b3b-a9f8-f5fc1b03f639"
      },
      "onsetDateTime": "2026-01-01T00:00:00.000+00:00"
    },
    "request": {
      "method": "PUT",
      "url": "Condition/728591fc-6936-4dec-a58e-0f7052160221"
    }
  }, {
    "fullUrl": "https://madie.cms.gov/Observation/4729c16d-e1d6-401a-b089-79a89765bbb9",
    "resource": {
      "resourceType": "Observation",
      "id": "4729c16d-e1d6-401a-b089-79a89765bbb9",
      "meta": {
        "profile": [ "http://hl7.org/fhir/us/qicore/StructureDefinition/qicore-observation-clinical-result" ]
      },
      "status": "final",
      "category": [ {
        "coding": [ {
          "system": "http://terminology.hl7.org/CodeSystem/observation-category",
          "code": "exam"
        } ]
      } ],
      "code": {
        "coding": [ {
          "system": "http://loinc.org",
          "code": "71490-7",
          "display": "Left eye Diabetic retinopathy severity level by Ophthalmoscopy"
        } ]
      },
      "subject": {
        "reference": "Patient/f850c570-3a2b-4b3b-a9f8-f5fc1b03f639"
      },
      "effectivePeriod": {
        "start": "2025-01-01T00:00:00.000+00:00",
        "end": "2025-01-01T00:00:00.000+00:00"
      },
      "valueCodeableConcept": {
        "coding": [ {
          "system": "http://loinc.org",
          "code": "LA18643-9",
          "display": "No apparent retinopathy"
        } ]
      }
    },
    "request": {
      "method": "PUT",
      "url": "Observation/4729c16d-e1d6-401a-b089-79a89765bbb9"
    }
  }, {
    "fullUrl": "https://madie.cms.gov/Observation/6459bd20-3848-46d5-8f4b-1890fb8e7774",
    "resource": {
      "resourceType": "Observation",
      "id": "6459bd20-3848-46d5-8f4b-1890fb8e7774",
      "meta": {
        "profile": [ "http://hl7.org/fhir/us/qicore/StructureDefinition/qicore-observation-clinical-result" ]
      },
      "status": "final",
      "category": [ {
        "coding": [ {
          "system": "http://terminology.hl7.org/CodeSystem/observation-category",
          "code": "exam"
        } ]
      } ],
      "code": {
        "coding": [ {
          "system": "http://loinc.org",
          "code": "71491-5",
          "display": "Right eye Diabetic retinopathy severity level by Ophthalmoscopy"
        } ]
      },
      "subject": {
        "reference": "Patient/f850c570-3a2b-4b3b-a9f8-f5fc1b03f639"
      },
      "effectivePeriod": {
        "start": "2026-01-01T00:00:00.000+00:00",
        "end": "2026-01-01T00:00:00.000+00:00"
      },
      "valueCodeableConcept": {
        "coding": [ {
          "system": "http://loinc.org",
          "code": "LA18645-4",
          "display": "Moderate non-proliferative retinopathy"
        } ]
      }
    },
    "request": {
      "method": "PUT",
      "url": "Observation/6459bd20-3848-46d5-8f4b-1890fb8e7774"
    }
  }, {
    "fullUrl": "https://madie.cms.gov/MeasureReport/55b562ca-ff3c-47cf-99c9-b6aef6e08cd4",
    "resource": {
      "resourceType": "MeasureReport",
      "id": "55b562ca-ff3c-47cf-99c9-b6aef6e08cd4",
      "meta": {
        "profile": [ "http://hl7.org/fhir/us/cqfmeasures/StructureDefinition/test-case-cqfm" ]
      },
      "contained": [ {
        "resourceType": "Parameters",
        "id": "3d370558-651c-43cb-aa52-b6ea74345e05-parameters",
        "parameter": [ {
          "name": "subject",
          "valueString": "f850c570-3a2b-4b3b-a9f8-f5fc1b03f639"
        } ]
      } ],
      "extension": [ {
        "url": "http://hl7.org/fhir/StructureDefinition/cqf-inputParameters",
        "valueReference": {
          "reference": "#3d370558-651c-43cb-aa52-b6ea74345e05-parameters"
        }
      }, {
        "url": "http://hl7.org/fhir/us/cqfmeasures/StructureDefinition/cqfm-testCaseDescription",
        "valueMarkdown": "Retinal exam finding of retinopathy in right eye on 1/1 of MP"
      } ],
      "modifierExtension": [ {
        "url": "http://hl7.org/fhir/us/cqfmeasures/StructureDefinition/cqfm-isTestCase",
        "valueBoolean": true
      } ],
      "status": "complete",
      "type": "individual",
      "measure": "https://madie.cms.gov/Measure/CMS131FHIRDiabetesEyeExam",
      "period": {
        "start": "2026-01-01",
        "end": "2026-12-31"
      },
      "group": [ {
        "id": "Group_1",
        "population": [ {
          "id": "InitialPopulation_1",
          "code": {
            "coding": [ {
              "system": "http://terminology.hl7.org/CodeSystem/measure-population",
              "code": "initial-population",
              "display": "Initial Population"
            } ]
          },
          "count": 1
        }, {
          "id": "Denominator_1",
          "code": {
            "coding": [ {
              "system": "http://terminology.hl7.org/CodeSystem/measure-population",
              "code": "denominator",
              "display": "Denominator"
            } ]
          },
          "count": 1
        }, {
          "id": "DenominatorExclusion_1",
          "code": {
            "coding": [ {
              "system": "http://terminology.hl7.org/CodeSystem/measure-population",
              "code": "denominator-exclusion",
              "display": "Denominator Exclusion"
            } ]
          },
          "count": 0
        }, {
          "id": "Numerator_1",
          "code": {
            "coding": [ {
              "system": "http://terminology.hl7.org/CodeSystem/measure-population",
              "code": "numerator",
              "display": "Numerator"
            } ]
          },
          "count": 1
        } ],
        "measureScore": {
          "value": 1.0
        }
      } ],
      "evaluatedResource": [ {
        "reference": "Patient/f850c570-3a2b-4b3b-a9f8-f5fc1b03f639"
      }, {
        "reference": "Encounter/52cb71d3-464b-4207-befc-14175082256e"
      }, {
        "reference": "Condition/728591fc-6936-4dec-a58e-0f7052160221"
      }, {
        "reference": "Observation/4729c16d-e1d6-401a-b089-79a89765bbb9"
      }, {
        "reference": "Observation/6459bd20-3848-46d5-8f4b-1890fb8e7774"
      } ]
    },
    "request": {
      "method": "PUT",
      "url": "MeasureReport/55b562ca-ff3c-47cf-99c9-b6aef6e08cd4"
    }
  } ]
}