{
  "resourceType": "Bundle",
  "id": "62c880ec0111a60120dc21f4",
  "type": "transaction",
  "entry": [ {
    "fullUrl": "https://madie.cms.gov/Patient/1e0e0760-4753-41f3-9638-424028d00381",
    "resource": {
      "resourceType": "Patient",
      "id": "1e0e0760-4753-41f3-9638-424028d00381",
      "meta": {
        "profile": [ "http://hl7.org/fhir/us/qicore/StructureDefinition/qicore-patient" ]
      },
      "text": {
        "status": "generated",
        "div": "<div xmlns=\"http://www.w3.org/1999/xhtml\"><div class=\"hapiHeaderText\">CancerDxStartsAfterRadTx<b>IPPFailPop2</b></div><table class=\"hapiPropertyTable\"><tbody><tr><td>Identifier</td><td>b72e5f89763c87db67d9b2ca3d51e949</td></tr><tr><td>Date of birth</td><td><span>22 January 1921</span></td></tr></tbody></table></div>"
      },
      "extension": [ {
        "url": "http://hl7.org/fhir/us/core/StructureDefinition/us-core-race",
        "extension": [ {
          "url": "ombCategory",
          "valueCoding": {
            "system": "urn:oid:2.16.840.1.113883.6.238",
            "code": "1002-5",
            "display": "American Indian or Alaska Native",
            "userSelected": true
          }
        }, {
          "url": "text",
          "valueString": "American Indian or Alaska Native"
        } ]
      }, {
        "url": "http://hl7.org/fhir/us/core/StructureDefinition/us-core-ethnicity",
        "extension": [ {
          "url": "ombCategory",
          "valueCoding": {
            "system": "urn:oid:2.16.840.1.113883.6.238",
            "code": "2135-2",
            "display": "Hispanic or Latino",
            "userSelected": true
          }
        }, {
          "url": "text",
          "valueString": "Hispanic or Latino"
        } ]
      } ],
      "identifier": [ {
        "type": {
          "coding": [ {
            "system": "http://terminology.hl7.org/CodeSystem/v2-0203",
            "code": "MR"
          } ]
        },
        "system": "https://bonnie-fhir.healthit.gov/",
        "value": "62c880ec0111a60120dc21f4"
      } ],
      "active": true,
      "name": [ {
        "use": "usual",
        "family": "IPPFailPop2",
        "given": [ "CancerDxStartsAfterRadTx" ]
      } ],
      "gender": "female",
      "birthDate": "1922-01-22"
    },
    "request": {
      "method": "PUT",
      "url": "Patient/1e0e0760-4753-41f3-9638-424028d00381"
    }
  }, {
    "fullUrl": "https://madie.cms.gov/Condition/253a2247-8d8b-4e6f-800c-a884b6daa83c",
    "resource": {
      "resourceType": "Condition",
      "id": "253a2247-8d8b-4e6f-800c-a884b6daa83c",
      "meta": {
        "profile": [ "http://hl7.org/fhir/us/qicore/StructureDefinition/qicore-condition" ]
      },
      "clinicalStatus": {
        "coding": [ {
          "system": "http://terminology.hl7.org/CodeSystem/condition-clinical",
          "code": "active",
          "display": "active",
          "userSelected": true
        } ]
      },
      "verificationStatus": {
        "coding": [ {
          "system": "http://terminology.hl7.org/CodeSystem/condition-ver-status",
          "code": "confirmed",
          "display": "Confirmed"
        } ]
      },
      "category": [ {
        "coding": [ {
          "system": "http://terminology.hl7.org/CodeSystem/condition-category",
          "code": "problem-list-item",
          "display": "Problem List Item"
        } ]
      } ],
      "code": {
        "coding": [ {
          "system": "http://snomed.info/sct",
          "code": "408644002"
        } ]
      },
      "subject": {
        "reference": "Patient/1e0e0760-4753-41f3-9638-424028d00381"
      },
      "onsetDateTime": "2026-03-30T12:00:00.000+00:00"
    },
    "request": {
      "method": "PUT",
      "url": "Condition/253a2247-8d8b-4e6f-800c-a884b6daa83c"
    }
  }, {
    "fullUrl": "https://madie.cms.gov/Coverage/87b7b9a1-ab40-4527-8a5a-12bce6758776",
    "resource": {
      "resourceType": "Coverage",
      "id": "87b7b9a1-ab40-4527-8a5a-12bce6758776",
      "meta": {
        "profile": [ "http://hl7.org/fhir/us/qicore/StructureDefinition/qicore-coverage" ]
      },
      "status": "active",
      "beneficiary": {
        "reference": "Patient/1e0e0760-4753-41f3-9638-424028d00381"
      },
      "period": {
        "start": "1922-01-22T08:00:00.000+00:00"
      },
      "payor": [ {
        "reference": "Organization/1c035c72-9c3a-4e09-b0ad-69c6e0e91723"
      } ]
    },
    "request": {
      "method": "PUT",
      "url": "Coverage/87b7b9a1-ab40-4527-8a5a-12bce6758776"
    }
  }, {
    "fullUrl": "https://madie.cms.gov/Encounter/fa698a63-1185-4502-917a-dcd74553418b",
    "resource": {
      "resourceType": "Encounter",
      "id": "fa698a63-1185-4502-917a-dcd74553418b",
      "meta": {
        "profile": [ "http://hl7.org/fhir/us/qicore/StructureDefinition/qicore-encounter" ]
      },
      "status": "finished",
      "class": {
        "system": "http://terminology.hl7.org/CodeSystem/v3-ActCode",
        "code": "AMB",
        "display": "ambulatory",
        "userSelected": true
      },
      "type": [ {
        "coding": [ {
          "system": "http://www.ama-assn.org/go/cpt",
          "version": "2023",
          "code": "77427",
          "userSelected": true
        } ]
      } ],
      "subject": {
        "reference": "Patient/1e0e0760-4753-41f3-9638-424028d00381"
      },
      "period": {
        "start": "2026-03-01T13:45:00.000+00:00",
        "end": "2026-03-01T13:45:00.000+00:00"
      }
    },
    "request": {
      "method": "PUT",
      "url": "Encounter/fa698a63-1185-4502-917a-dcd74553418b"
    }
  }, {
    "fullUrl": "https://madie.cms.gov/Organization/1c035c72-9c3a-4e09-b0ad-69c6e0e91723",
    "resource": {
      "resourceType": "Organization",
      "id": "1c035c72-9c3a-4e09-b0ad-69c6e0e91723",
      "meta": {
        "profile": [ "http://hl7.org/fhir/us/qicore/StructureDefinition/qicore-organization" ]
      },
      "identifier": [ {
        "use": "temp",
        "system": "urn:oid:2.16.840.1.113883.4.4",
        "value": "21-3259825"
      } ],
      "active": true,
      "type": [ {
        "coding": [ {
          "system": "http://terminology.hl7.org/CodeSystem/organization-type",
          "code": "pay",
          "display": "Payer"
        } ]
      } ],
      "name": "Blue Cross Blue Shield of Texas",
      "telecom": [ {
        "system": "phone",
        "value": "(+1) 972-766-6900"
      } ],
      "address": [ {
        "use": "billing",
        "type": "postal",
        "line": [ "P.O. Box 660044" ],
        "city": "Dallas",
        "state": "TX",
        "postalCode": "75266-0044",
        "country": "USA"
      } ]
    },
    "request": {
      "method": "PUT",
      "url": "Organization/1c035c72-9c3a-4e09-b0ad-69c6e0e91723"
    }
  }, {
    "fullUrl": "https://madie.cms.gov/Practitioner/ac052363-d07b-42af-9cf6-910e85db1d5e",
    "resource": {
      "resourceType": "Practitioner",
      "id": "ac052363-d07b-42af-9cf6-910e85db1d5e",
      "meta": {
        "profile": [ "http://hl7.org/fhir/us/qicore/StructureDefinition/qicore-practitioner" ]
      },
      "identifier": [ {
        "system": "http://hl7.org/fhir/sid/us-npi",
        "value": "123456"
      } ],
      "name": [ {
        "family": "Evil",
        "prefix": [ "Dr" ]
      } ]
    },
    "request": {
      "method": "PUT",
      "url": "Practitioner/ac052363-d07b-42af-9cf6-910e85db1d5e"
    }
  }, {
    "fullUrl": "https://madie.cms.gov/MeasureReport/7985ccd3-c590-453d-80a5-98a3eaf093f4",
    "resource": {
      "resourceType": "MeasureReport",
      "id": "7985ccd3-c590-453d-80a5-98a3eaf093f4",
      "meta": {
        "profile": [ "http://hl7.org/fhir/us/cqfmeasures/StructureDefinition/test-case-cqfm" ]
      },
      "contained": [ {
        "resourceType": "Parameters",
        "id": "568a43dc-b7da-45e3-8f6a-f56888ad70c8-parameters",
        "parameter": [ {
          "name": "subject",
          "valueString": "1e0e0760-4753-41f3-9638-424028d00381"
        } ]
      } ],
      "extension": [ {
        "url": "http://hl7.org/fhir/StructureDefinition/cqf-inputParameters",
        "valueReference": {
          "reference": "#568a43dc-b7da-45e3-8f6a-f56888ad70c8-parameters"
        }
      }, {
        "url": "http://hl7.org/fhir/us/cqfmeasures/StructureDefinition/cqfm-testCaseDescription",
        "valueMarkdown": "Patient with cancer diagnosis that starts after radiation treatment management.\n"
      } ],
      "modifierExtension": [ {
        "url": "http://hl7.org/fhir/us/cqfmeasures/StructureDefinition/cqfm-isTestCase",
        "valueBoolean": true
      } ],
      "status": "complete",
      "type": "individual",
      "measure": "https://madie.cms.gov/Measure/CMS157FHIRPainIntensityQuantified",
      "period": {
        "start": "2026-01-01",
        "end": "2026-12-31"
      },
      "group": [ {
        "id": "Group_1",
        "population": [ {
          "id": "InitialPopulation_1",
          "code": {
            "coding": [ {
              "system": "http://terminology.hl7.org/CodeSystem/measure-population",
              "code": "initial-population",
              "display": "Initial Population"
            } ]
          },
          "count": 0
        }, {
          "id": "Denominator_1",
          "code": {
            "coding": [ {
              "system": "http://terminology.hl7.org/CodeSystem/measure-population",
              "code": "denominator",
              "display": "Denominator"
            } ]
          },
          "count": 0
        }, {
          "id": "Numerator_1",
          "code": {
            "coding": [ {
              "system": "http://terminology.hl7.org/CodeSystem/measure-population",
              "code": "numerator",
              "display": "Numerator"
            } ]
          },
          "count": 0
        } ],
        "measureScore": {
          "value": 0.0
        }
      }, {
        "id": "Group_2",
        "population": [ {
          "id": "InitialPopulation_2",
          "code": {
            "coding": [ {
              "system": "http://terminology.hl7.org/CodeSystem/measure-population",
              "code": "initial-population",
              "display": "Initial Population"
            } ]
          },
          "count": 0
        }, {
          "id": "Denominator_2",
          "code": {
            "coding": [ {
              "system": "http://terminology.hl7.org/CodeSystem/measure-population",
              "code": "denominator",
              "display": "Denominator"
            } ]
          },
          "count": 0
        }, {
          "id": "Numerator_2",
          "code": {
            "coding": [ {
              "system": "http://terminology.hl7.org/CodeSystem/measure-population",
              "code": "numerator",
              "display": "Numerator"
            } ]
          },
          "count": 0
        } ],
        "measureScore": {
          "value": 0.0
        }
      } ],
      "evaluatedResource": [ {
        "reference": "Patient/1e0e0760-4753-41f3-9638-424028d00381"
      }, {
        "reference": "Condition/253a2247-8d8b-4e6f-800c-a884b6daa83c"
      }, {
        "reference": "Coverage/87b7b9a1-ab40-4527-8a5a-12bce6758776"
      }, {
        "reference": "Encounter/fa698a63-1185-4502-917a-dcd74553418b"
      }, {
        "reference": "Organization/1c035c72-9c3a-4e09-b0ad-69c6e0e91723"
      }, {
        "reference": "Practitioner/ac052363-d07b-42af-9cf6-910e85db1d5e"
      } ]
    },
    "request": {
      "method": "PUT",
      "url": "MeasureReport/7985ccd3-c590-453d-80a5-98a3eaf093f4"
    }
  } ]
}