{
  "resourceType": "Bundle",
  "id": "612e6b7a02c62a011f2eddf3",
  "type": "transaction",
  "entry": [ {
    "fullUrl": "https://madie.cms.gov/Patient/554c649c-cc35-489d-9216-31ccf349a841",
    "resource": {
      "resourceType": "Patient",
      "id": "554c649c-cc35-489d-9216-31ccf349a841",
      "meta": {
        "profile": [ "http://hl7.org/fhir/us/qicore/StructureDefinition/qicore-patient" ]
      },
      "text": {
        "status": "generated",
        "div": "<div xmlns=\"http://www.w3.org/1999/xhtml\"><div class=\"hapiHeaderText\">VTE_RiskAsseOnAnesEndTime <b>NUMERPASS </b></div><table class=\"hapiPropertyTable\"><tbody><tr><td>Identifier</td><td>f5d2e33da369b2287bfe6d238bf1cc3e</td></tr><tr><td>Date of birth</td><td><span>02 January 1974</span></td></tr></tbody></table></div>"
      },
      "extension": [ {
        "url": "http://hl7.org/fhir/us/core/StructureDefinition/us-core-race",
        "extension": [ {
          "url": "ombCategory",
          "valueCoding": {
            "system": "urn:oid:2.16.840.1.113883.6.238",
            "code": "1002-5",
            "display": "American Indian or Alaska Native",
            "userSelected": true
          }
        }, {
          "url": "text",
          "valueString": "American Indian or Alaska Native"
        } ]
      }, {
        "url": "http://hl7.org/fhir/us/core/StructureDefinition/us-core-ethnicity",
        "extension": [ {
          "url": "ombCategory",
          "valueCoding": {
            "system": "urn:oid:2.16.840.1.113883.6.238",
            "code": "2135-2",
            "display": "Hispanic or Latino",
            "userSelected": true
          }
        }, {
          "url": "text",
          "valueString": "Hispanic or Latino"
        } ]
      } ],
      "identifier": [ {
        "type": {
          "coding": [ {
            "system": "http://terminology.hl7.org/CodeSystem/v2-0203",
            "code": "MR"
          } ]
        },
        "system": "https://bonnie-fhir.healthit.gov/",
        "value": "612e6b7a02c62a011f2eddf3"
      } ],
      "active": true,
      "name": [ {
        "use": "usual",
        "family": "NUMERPass",
        "given": [ "VTERiskAssesOnAnesEndTime" ]
      } ],
      "gender": "male",
      "birthDate": "1975-01-02"
    },
    "request": {
      "method": "PUT",
      "url": "Patient/554c649c-cc35-489d-9216-31ccf349a841"
    }
  }, {
    "fullUrl": "https://madie.cms.gov/Encounter/1badf97e-a6f4-41a8-ab34-7a329fca9256",
    "resource": {
      "resourceType": "Encounter",
      "id": "1badf97e-a6f4-41a8-ab34-7a329fca9256",
      "meta": {
        "profile": [ "http://hl7.org/fhir/us/qicore/StructureDefinition/qicore-encounter" ]
      },
      "status": "finished",
      "class": {
        "system": "http://terminology.hl7.org/CodeSystem/v3-ActCode",
        "code": "IMP",
        "display": "inpatient encounter"
      },
      "type": [ {
        "coding": [ {
          "system": "http://snomed.info/sct",
          "code": "8715000"
        } ]
      } ],
      "subject": {
        "reference": "Patient/554c649c-cc35-489d-9216-31ccf349a841"
      },
      "period": {
        "start": "2026-11-01T08:00:00.000+00:00",
        "end": "2026-11-26T08:15:00.000+00:00"
      },
      "length": {
        "value": 25,
        "unit": "days"
      }
    },
    "request": {
      "method": "PUT",
      "url": "Encounter/1badf97e-a6f4-41a8-ab34-7a329fca9256"
    }
  }, {
    "fullUrl": "https://madie.cms.gov/Observation/40cafbfd-ece1-48a0-b4b9-1e588c4cc0e1",
    "resource": {
      "resourceType": "Observation",
      "id": "40cafbfd-ece1-48a0-b4b9-1e588c4cc0e1",
      "meta": {
        "profile": [ "http://hl7.org/fhir/us/qicore/StructureDefinition/qicore-simple-observation" ]
      },
      "status": "final",
      "category": [ {
        "coding": [ {
          "system": "http://terminology.hl7.org/CodeSystem/observation-category",
          "code": "exam",
          "display": "exam"
        } ]
      } ],
      "code": {
        "coding": [ {
          "system": "http://loinc.org",
          "code": "72136-5"
        } ]
      },
      "subject": {
        "reference": "Patient/554c649c-cc35-489d-9216-31ccf349a841"
      },
      "effectiveDateTime": "2026-11-02T09:15:00.000+00:00",
      "valueCodeableConcept": {
        "coding": [ {
          "system": "http://snomed.info/sct",
          "code": "260362008",
          "display": "Very low (qualifier value)",
          "userSelected": true
        } ]
      }
    },
    "request": {
      "method": "PUT",
      "url": "Observation/40cafbfd-ece1-48a0-b4b9-1e588c4cc0e1"
    }
  }, {
    "fullUrl": "https://madie.cms.gov/Coverage/2fe27e38-ed69-403d-936a-18dd8ce97338",
    "resource": {
      "resourceType": "Coverage",
      "id": "2fe27e38-ed69-403d-936a-18dd8ce97338",
      "status": "active",
      "beneficiary": {
        "reference": "Patient/554c649c-cc35-489d-9216-31ccf349a841"
      },
      "period": {
        "start": "1975-01-02T08:00:00.000+00:00"
      },
      "payor": [ {
        "reference": "Organization/4efc43a8-a05c-4ae8-a3ec-f12b6f43a7ff"
      } ]
    },
    "request": {
      "method": "PUT",
      "url": "Coverage/2fe27e38-ed69-403d-936a-18dd8ce97338"
    }
  }, {
    "fullUrl": "https://madie.cms.gov/Procedure/108e95c2-fe94-4538-94ad-04d630141bc9",
    "resource": {
      "resourceType": "Procedure",
      "id": "108e95c2-fe94-4538-94ad-04d630141bc9",
      "meta": {
        "profile": [ "http://hl7.org/fhir/us/qicore/StructureDefinition/qicore-procedure" ]
      },
      "extension": [ {
        "url": "http://hl7.org/fhir/us/qicore/StructureDefinition/qicore-recorded",
        "valueDateTime": "2026-11-02T13:35:00.000+00:00"
      } ],
      "status": "completed",
      "code": {
        "coding": [ {
          "system": "http://www.icd10data.com/icd10pcs",
          "code": "3E030FZ"
        }, {
          "system": "http://snomed.info/sct",
          "code": "18946005"
        } ]
      },
      "subject": {
        "reference": "Patient/554c649c-cc35-489d-9216-31ccf349a841"
      },
      "performedPeriod": {
        "start": "2026-11-02T09:00:00.000+00:00",
        "end": "2026-11-02T09:15:00.000+00:00"
      }
    },
    "request": {
      "method": "PUT",
      "url": "Procedure/108e95c2-fe94-4538-94ad-04d630141bc9"
    }
  }, {
    "fullUrl": "https://madie.cms.gov/Organization/4efc43a8-a05c-4ae8-a3ec-f12b6f43a7ff",
    "resource": {
      "resourceType": "Organization",
      "id": "4efc43a8-a05c-4ae8-a3ec-f12b6f43a7ff",
      "meta": {
        "profile": [ "http://hl7.org/fhir/us/qicore/StructureDefinition/qicore-organization" ]
      },
      "identifier": [ {
        "use": "temp",
        "system": "urn:oid:2.16.840.1.113883.4.4",
        "value": "21-3259825"
      } ],
      "active": true,
      "type": [ {
        "coding": [ {
          "system": "http://terminology.hl7.org/CodeSystem/organization-type",
          "code": "pay",
          "display": "Payer"
        } ]
      } ],
      "name": "Blue Cross Blue Shield of Texas",
      "telecom": [ {
        "system": "phone",
        "value": "(+1) 972-766-6900"
      } ],
      "address": [ {
        "use": "billing",
        "type": "postal",
        "line": [ "P.O. Box 660044" ],
        "city": "Dallas",
        "state": "TX",
        "postalCode": "75266-0044",
        "country": "USA"
      } ]
    },
    "request": {
      "method": "PUT",
      "url": "Organization/4efc43a8-a05c-4ae8-a3ec-f12b6f43a7ff"
    }
  }, {
    "fullUrl": "https://madie.cms.gov/Practitioner/574b7397-2c11-438a-a144-8196586e3b6b",
    "resource": {
      "resourceType": "Practitioner",
      "id": "574b7397-2c11-438a-a144-8196586e3b6b",
      "identifier": [ {
        "system": "http://hl7.org/fhir/sid/us-npi",
        "value": "123456"
      } ],
      "name": [ {
        "family": "Evil",
        "prefix": [ "Dr" ]
      } ]
    },
    "request": {
      "method": "PUT",
      "url": "Practitioner/574b7397-2c11-438a-a144-8196586e3b6b"
    }
  }, {
    "fullUrl": "https://madie.cms.gov/MeasureReport/f209eeb0-8553-4e8f-8be0-6817679aa96f",
    "resource": {
      "resourceType": "MeasureReport",
      "id": "f209eeb0-8553-4e8f-8be0-6817679aa96f",
      "meta": {
        "profile": [ "http://hl7.org/fhir/us/cqfmeasures/StructureDefinition/test-case-cqfm" ]
      },
      "contained": [ {
        "resourceType": "Parameters",
        "id": "72e57d35-3334-49bd-92e0-2e27b3c765d8-parameters",
        "parameter": [ {
          "name": "subject",
          "valueString": "554c649c-cc35-489d-9216-31ccf349a841"
        } ]
      } ],
      "extension": [ {
        "url": "http://hl7.org/fhir/StructureDefinition/cqf-inputParameters",
        "valueReference": {
          "reference": "#72e57d35-3334-49bd-92e0-2e27b3c765d8-parameters"
        }
      }, {
        "url": "http://hl7.org/fhir/us/cqfmeasures/StructureDefinition/cqfm-testCaseDescription",
        "valueMarkdown": "risk assessment done concurrent with the end of anesthesia\n"
      } ],
      "modifierExtension": [ {
        "url": "http://hl7.org/fhir/us/cqfmeasures/StructureDefinition/cqfm-isTestCase",
        "valueBoolean": true
      } ],
      "status": "complete",
      "type": "individual",
      "measure": "https://madie.cms.gov/Measure/CMS108FHIRVTEProphylaxis",
      "period": {
        "start": "2026-01-01",
        "end": "2026-12-31"
      },
      "group": [ {
        "id": "Group_1",
        "population": [ {
          "id": "InitialPopulation_1",
          "code": {
            "coding": [ {
              "system": "http://terminology.hl7.org/CodeSystem/measure-population",
              "code": "initial-population",
              "display": "Initial Population"
            } ]
          },
          "count": 1
        }, {
          "id": "Denominator_1",
          "code": {
            "coding": [ {
              "system": "http://terminology.hl7.org/CodeSystem/measure-population",
              "code": "denominator",
              "display": "Denominator"
            } ]
          },
          "count": 1
        }, {
          "id": "DenominatorExclusion_1",
          "code": {
            "coding": [ {
              "system": "http://terminology.hl7.org/CodeSystem/measure-population",
              "code": "denominator-exclusion",
              "display": "Denominator Exclusion"
            } ]
          },
          "count": 0
        }, {
          "id": "Numerator_1",
          "code": {
            "coding": [ {
              "system": "http://terminology.hl7.org/CodeSystem/measure-population",
              "code": "numerator",
              "display": "Numerator"
            } ]
          },
          "count": 1
        } ],
        "measureScore": {
          "value": 0.0
        }
      } ],
      "evaluatedResource": [ {
        "reference": "Patient/554c649c-cc35-489d-9216-31ccf349a841"
      }, {
        "reference": "Encounter/1badf97e-a6f4-41a8-ab34-7a329fca9256"
      }, {
        "reference": "Observation/40cafbfd-ece1-48a0-b4b9-1e588c4cc0e1"
      }, {
        "reference": "Coverage/2fe27e38-ed69-403d-936a-18dd8ce97338"
      }, {
        "reference": "Procedure/108e95c2-fe94-4538-94ad-04d630141bc9"
      }, {
        "reference": "Organization/4efc43a8-a05c-4ae8-a3ec-f12b6f43a7ff"
      }, {
        "reference": "Practitioner/574b7397-2c11-438a-a144-8196586e3b6b"
      } ]
    },
    "request": {
      "method": "PUT",
      "url": "MeasureReport/f209eeb0-8553-4e8f-8be0-6817679aa96f"
    }
  } ]
}