{
  "resourceType": "Bundle",
  "id": "63f3a249ccb3770120ffe6eb",
  "type": "transaction",
  "entry": [ {
    "fullUrl": "https://madie.cms.gov/Patient/af1b9448-3e7a-4b7f-8934-15bb63258b75",
    "resource": {
      "resourceType": "Patient",
      "id": "af1b9448-3e7a-4b7f-8934-15bb63258b75",
      "meta": {
        "profile": [ "http://hl7.org/fhir/us/qicore/StructureDefinition/qicore-patient" ]
      },
      "text": {
        "status": "generated",
        "div": "<div xmlns=\"http://www.w3.org/1999/xhtml\"><div class=\"hapiHeaderText\">LTE24before <b>BICARBPASS </b></div><table class=\"hapiPropertyTable\"><tbody><tr><td>Identifier</td><td>d69abbc179641b9cd673a4a9152886e8e63bc2e0e7b27e1a51505ef2a774679e</td></tr><tr><td>Date of birth</td><td><span>15 June 1956</span></td></tr></tbody></table></div>"
      },
      "extension": [ {
        "url": "http://hl7.org/fhir/us/core/StructureDefinition/us-core-race",
        "extension": [ {
          "url": "ombCategory",
          "valueCoding": {
            "system": "urn:oid:2.16.840.1.113883.6.238",
            "code": "1002-5",
            "display": "American Indian or Alaska Native",
            "userSelected": true
          }
        }, {
          "url": "text",
          "valueString": "American Indian or Alaska Native"
        } ]
      }, {
        "url": "http://hl7.org/fhir/us/core/StructureDefinition/us-core-ethnicity",
        "extension": [ {
          "url": "ombCategory",
          "valueCoding": {
            "system": "urn:oid:2.16.840.1.113883.6.238",
            "code": "2186-5",
            "display": "Not Hispanic or Latino",
            "userSelected": true
          }
        }, {
          "url": "text",
          "valueString": "Not Hispanic or Latino"
        } ]
      }, {
        "url": "http://hl7.org/fhir/us/core/StructureDefinition/us-core-sex",
        "valueCode": "248153007"
      } ],
      "identifier": [ {
        "type": {
          "coding": [ {
            "system": "http://terminology.hl7.org/CodeSystem/v2-0203",
            "code": "MR"
          } ]
        },
        "system": "https://bonnie-fhir.healthit.gov/",
        "value": "63f3a249ccb3770120ffe6eb"
      } ],
      "active": true,
      "name": [ {
        "use": "usual",
        "family": "BicarbonatePass",
        "given": [ "MultipleEncounters" ]
      } ],
      "gender": "male",
      "birthDate": "1961-07-01"
    },
    "request": {
      "method": "PUT",
      "url": "Patient/af1b9448-3e7a-4b7f-8934-15bb63258b75"
    }
  }, {
    "fullUrl": "https://madie.cms.gov/Encounter/64bb9ba4-1620-4fe5-8afc-1ea5e666c0ab",
    "resource": {
      "resourceType": "Encounter",
      "id": "64bb9ba4-1620-4fe5-8afc-1ea5e666c0ab",
      "meta": {
        "profile": [ "http://hl7.org/fhir/us/qicore/StructureDefinition/qicore-encounter" ]
      },
      "status": "finished",
      "class": {
        "system": "http://terminology.hl7.org/CodeSystem/v3-ActCode",
        "code": "IMP",
        "display": "inpatient encounter",
        "userSelected": true
      },
      "type": [ {
        "coding": [ {
          "system": "http://snomed.info/sct",
          "code": "183452005"
        } ]
      } ],
      "subject": {
        "reference": "Patient/af1b9448-3e7a-4b7f-8934-15bb63258b75"
      },
      "period": {
        "start": "2026-07-01T08:00:00Z",
        "end": "2026-07-03T08:15:00Z"
      }
    },
    "request": {
      "method": "PUT",
      "url": "Encounter/64bb9ba4-1620-4fe5-8afc-1ea5e666c0ab"
    }
  }, {
    "fullUrl": "https://madie.cms.gov/Encounter/64bb9ba4-1620-4fe5-8afc-1ea5e666c0ab1",
    "resource": {
      "resourceType": "Encounter",
      "id": "64bb9ba4-1620-4fe5-8afc-1ea5e666c0ab1",
      "meta": {
        "profile": [ "http://hl7.org/fhir/us/qicore/StructureDefinition/qicore-encounter" ]
      },
      "status": "finished",
      "class": {
        "system": "http://terminology.hl7.org/CodeSystem/v3-ActCode",
        "code": "IMP",
        "display": "inpatient encounter",
        "userSelected": true
      },
      "type": [ {
        "coding": [ {
          "system": "http://snomed.info/sct",
          "code": "183452005"
        } ]
      } ],
      "subject": {
        "reference": "Patient/af1b9448-3e7a-4b7f-8934-15bb63258b75"
      },
      "period": {
        "start": "2027-01-01T08:00:00Z",
        "end": "2027-01-03T08:15:00Z"
      }
    },
    "request": {
      "method": "PUT",
      "url": "Encounter/64bb9ba4-1620-4fe5-8afc-1ea5e666c0ab1"
    }
  }, {
    "fullUrl": "https://madie.cms.gov/Coverage/79b8751a-17c4-4dc9-85d2-d58e6c91dd4b",
    "resource": {
      "resourceType": "Coverage",
      "id": "79b8751a-17c4-4dc9-85d2-d58e6c91dd4b",
      "meta": {
        "profile": [ "http://hl7.org/fhir/us/qicore/StructureDefinition/qicore-coverage" ]
      },
      "status": "active",
      "type": {
        "coding": [ {
          "system": "https://nahdo.org/sopt",
          "version": "1.0.1",
          "code": "1",
          "display": "MEDICARE",
          "userSelected": true
        } ]
      },
      "subscriberId": "AB9876",
      "beneficiary": {
        "reference": "Patient/af1b9448-3e7a-4b7f-8934-15bb63258b75"
      },
      "relationship": {
        "coding": [ {
          "system": "http://terminology.hl7.org/CodeSystem/subscriber-relationship",
          "code": "self"
        } ]
      },
      "period": {
        "start": "2026-01-01T08:00:00Z",
        "end": "2026-12-31T08:15:00Z"
      },
      "payor": [ {
        "reference": "Organization/09fa0674-ca8c-49ce-bea0-e166bf711784"
      } ]
    },
    "request": {
      "method": "PUT",
      "url": "Coverage/79b8751a-17c4-4dc9-85d2-d58e6c91dd4b"
    }
  }, {
    "fullUrl": "https://madie.cms.gov/Observation/9fa6691b-d77c-4904-8af8-ec44f1b7a4a8",
    "resource": {
      "resourceType": "Observation",
      "id": "9fa6691b-d77c-4904-8af8-ec44f1b7a4a8",
      "meta": {
        "profile": [ "http://hl7.org/fhir/us/qicore/StructureDefinition/qicore-observation-lab" ]
      },
      "status": "final",
      "category": [ {
        "coding": [ {
          "system": "http://terminology.hl7.org/CodeSystem/observation-category",
          "code": "laboratory",
          "display": "Laboratory",
          "userSelected": true
        } ]
      } ],
      "code": {
        "coding": [ {
          "system": "http://loinc.org",
          "version": "2.72",
          "code": "14627-4",
          "display": "Bicarbonate [Moles/volume] in Venous blood"
        } ]
      },
      "subject": {
        "reference": "Patient/af1b9448-3e7a-4b7f-8934-15bb63258b75"
      },
      "effectiveDateTime": "2026-07-01T08:01:00Z",
      "issued": "2026-07-01T08:01:00Z",
      "performer": [ {
        "reference": "Organization/Organization-1"
      } ],
      "valueQuantity": {
        "value": 25,
        "unit": "mmol/L",
        "system": "http://unitsofmeasure.org",
        "code": "mg/dL"
      }
    },
    "request": {
      "method": "PUT",
      "url": "Observation/9fa6691b-d77c-4904-8af8-ec44f1b7a4a8"
    }
  }, {
    "fullUrl": "https://madie.cms.gov/Observation/54ab8a18-2602-4165-8824-17858340bf6a",
    "resource": {
      "resourceType": "Observation",
      "id": "54ab8a18-2602-4165-8824-17858340bf6a",
      "meta": {
        "profile": [ "http://hl7.org/fhir/us/qicore/StructureDefinition/qicore-observation-lab" ]
      },
      "status": "final",
      "category": [ {
        "coding": [ {
          "system": "http://terminology.hl7.org/CodeSystem/observation-category",
          "code": "laboratory",
          "display": "Laboratory",
          "userSelected": true
        } ]
      } ],
      "code": {
        "coding": [ {
          "system": "http://loinc.org",
          "version": "2.72",
          "code": "14627-4",
          "display": "Bicarbonate [Moles/volume] in Venous blood"
        } ]
      },
      "subject": {
        "reference": "Patient/af1b9448-3e7a-4b7f-8934-15bb63258b75"
      },
      "effectiveDateTime": "2027-01-01T08:01:00Z",
      "issued": "2027-01-01T08:01:00Z",
      "performer": [ {
        "reference": "Organization/Organization-1"
      } ],
      "valueQuantity": {
        "value": 25,
        "unit": "mmol/L",
        "system": "http://unitsofmeasure.org",
        "code": "mg/dL"
      }
    },
    "request": {
      "method": "PUT",
      "url": "Observation/54ab8a18-2602-4165-8824-17858340bf6a"
    }
  }, {
    "fullUrl": "https://madie.cms.gov/Organization/09fa0674-ca8c-49ce-bea0-e166bf711784",
    "resource": {
      "resourceType": "Organization",
      "id": "09fa0674-ca8c-49ce-bea0-e166bf711784",
      "meta": {
        "profile": [ "http://hl7.org/fhir/us/qicore/StructureDefinition/qicore-organization" ]
      },
      "identifier": [ {
        "use": "temp",
        "system": "urn:oid:2.16.840.1.113883.4.4",
        "value": "21-3259825"
      } ],
      "active": true,
      "type": [ {
        "coding": [ {
          "system": "http://terminology.hl7.org/CodeSystem/organization-type",
          "code": "pay",
          "display": "Payer"
        } ]
      } ],
      "name": "Blue Cross Blue Shield of Texas",
      "telecom": [ {
        "system": "phone",
        "value": "(+1) 972-766-6900"
      } ],
      "address": [ {
        "use": "billing",
        "type": "postal",
        "line": [ "P.O. Box 660044" ],
        "city": "Dallas",
        "state": "TX",
        "postalCode": "75266-0044",
        "country": "USA"
      } ]
    },
    "request": {
      "method": "PUT",
      "url": "Organization/09fa0674-ca8c-49ce-bea0-e166bf711784"
    }
  }, {
    "fullUrl": "https://madie.cms.gov/Practitioner/fafc71aa-374d-417b-8262-836df5727e24",
    "resource": {
      "resourceType": "Practitioner",
      "id": "fafc71aa-374d-417b-8262-836df5727e24",
      "meta": {
        "profile": [ "http://hl7.org/fhir/us/qicore/StructureDefinition/qicore-practitioner" ]
      },
      "identifier": [ {
        "system": "http://hl7.org/fhir/sid/us-npi",
        "value": "0723660813"
      } ],
      "name": [ {
        "family": "Evil",
        "prefix": [ "Dr" ]
      } ]
    },
    "request": {
      "method": "PUT",
      "url": "Practitioner/fafc71aa-374d-417b-8262-836df5727e24"
    }
  }, {
    "fullUrl": "https://madie.cms.gov/MeasureReport/7afefb0f-3075-4fb8-8d56-474ba1112c38",
    "resource": {
      "resourceType": "MeasureReport",
      "id": "7afefb0f-3075-4fb8-8d56-474ba1112c38",
      "meta": {
        "profile": [ "http://hl7.org/fhir/us/cqfmeasures/StructureDefinition/test-case-cqfm" ]
      },
      "contained": [ {
        "resourceType": "Parameters",
        "id": "56cd0b71-f8b5-4c6a-b971-7eafe1343cff-parameters",
        "parameter": [ {
          "name": "subject",
          "valueString": "af1b9448-3e7a-4b7f-8934-15bb63258b75"
        } ]
      } ],
      "extension": [ {
        "url": "http://hl7.org/fhir/StructureDefinition/cqf-inputParameters",
        "valueReference": {
          "reference": "#56cd0b71-f8b5-4c6a-b971-7eafe1343cff-parameters"
        }
      }, {
        "url": "http://hl7.org/fhir/us/cqfmeasures/StructureDefinition/cqfm-testCaseDescription",
        "valueMarkdown": "Enc 1 first day of MP bircarbonate 25 mmol/L 24 hrs after admission\nEnc 2 bircarbonate 28 mmol/L at admission "
      } ],
      "modifierExtension": [ {
        "url": "http://hl7.org/fhir/us/cqfmeasures/StructureDefinition/cqfm-isTestCase",
        "valueBoolean": true
      } ],
      "status": "complete",
      "type": "individual",
      "measure": "https://madie.cms.gov/Measure/CMSFHIR844HybridHospitalWideMortality",
      "period": {
        "start": "2026-07-01",
        "end": "2027-06-30"
      },
      "group": [ {
        "id": "Group_1",
        "population": [ {
          "id": "InitialPopulation_1",
          "code": {
            "coding": [ {
              "system": "http://terminology.hl7.org/CodeSystem/measure-population",
              "code": "initial-population",
              "display": "Initial Population"
            } ]
          },
          "count": 2
        } ],
        "measureScore": {
          "value": 0.0
        }
      } ],
      "evaluatedResource": [ {
        "reference": "Patient/af1b9448-3e7a-4b7f-8934-15bb63258b75"
      }, {
        "reference": "Encounter/64bb9ba4-1620-4fe5-8afc-1ea5e666c0ab"
      }, {
        "reference": "Encounter/64bb9ba4-1620-4fe5-8afc-1ea5e666c0ab1"
      }, {
        "reference": "Coverage/79b8751a-17c4-4dc9-85d2-d58e6c91dd4b"
      }, {
        "reference": "Observation/9fa6691b-d77c-4904-8af8-ec44f1b7a4a8"
      }, {
        "reference": "Observation/54ab8a18-2602-4165-8824-17858340bf6a"
      }, {
        "reference": "Organization/09fa0674-ca8c-49ce-bea0-e166bf711784"
      }, {
        "reference": "Practitioner/fafc71aa-374d-417b-8262-836df5727e24"
      } ]
    },
    "request": {
      "method": "PUT",
      "url": "MeasureReport/7afefb0f-3075-4fb8-8d56-474ba1112c38"
    }
  } ]
}