{
  "resourceType": "Bundle",
  "id": "612e6a5e02c62a011f2e9d40",
  "type": "transaction",
  "entry": [ {
    "fullUrl": "https://madie.cms.gov/Patient/41a02e47-7593-4107-bed2-b24fca5ddf3d",
    "resource": {
      "resourceType": "Patient",
      "id": "41a02e47-7593-4107-bed2-b24fca5ddf3d",
      "meta": {
        "profile": [ "http://hl7.org/fhir/us/qicore/StructureDefinition/qicore-patient" ]
      },
      "text": {
        "status": "generated",
        "div": "<div xmlns=\"http://www.w3.org/1999/xhtml\"><div class=\"hapiHeaderText\">MAWarfarinConcurrentAnes <b>NUMERPASS </b></div><table class=\"hapiPropertyTable\"><tbody><tr><td>Identifier</td><td>8a73949853d1489520b4f85cece6c975</td></tr><tr><td>Date of birth</td><td><span>02 January 1974</span></td></tr></tbody></table></div>"
      },
      "extension": [ {
        "url": "http://hl7.org/fhir/us/core/StructureDefinition/us-core-race",
        "extension": [ {
          "url": "ombCategory",
          "valueCoding": {
            "system": "urn:oid:2.16.840.1.113883.6.238",
            "code": "1002-5",
            "display": "American Indian or Alaska Native",
            "userSelected": true
          }
        }, {
          "url": "text",
          "valueString": "American Indian or Alaska Native"
        } ]
      }, {
        "url": "http://hl7.org/fhir/us/core/StructureDefinition/us-core-ethnicity",
        "extension": [ {
          "url": "ombCategory",
          "valueCoding": {
            "system": "urn:oid:2.16.840.1.113883.6.238",
            "code": "2135-2",
            "display": "Hispanic or Latino",
            "userSelected": true
          }
        }, {
          "url": "text",
          "valueString": "Hispanic or Latino"
        } ]
      } ],
      "identifier": [ {
        "type": {
          "coding": [ {
            "system": "http://terminology.hl7.org/CodeSystem/v2-0203",
            "code": "MR"
          } ]
        },
        "system": "https://bonnie-fhir.healthit.gov/",
        "value": "612e6a5e02c62a011f2e9d40"
      } ],
      "active": true,
      "name": [ {
        "use": "usual",
        "family": "NUMERPass",
        "given": [ "MAWarfarinConcurrentAnes" ]
      } ],
      "gender": "male",
      "birthDate": "1975-01-02"
    },
    "request": {
      "method": "PUT",
      "url": "Patient/41a02e47-7593-4107-bed2-b24fca5ddf3d"
    }
  }, {
    "fullUrl": "https://madie.cms.gov/Encounter/59f42f61-d848-49e6-bf4f-0ba36f323738",
    "resource": {
      "resourceType": "Encounter",
      "id": "59f42f61-d848-49e6-bf4f-0ba36f323738",
      "meta": {
        "profile": [ "http://hl7.org/fhir/us/qicore/StructureDefinition/qicore-encounter" ]
      },
      "status": "finished",
      "class": {
        "system": "http://terminology.hl7.org/CodeSystem/v3-ActCode",
        "code": "IMP",
        "display": "inpatient encounter"
      },
      "type": [ {
        "coding": [ {
          "system": "http://snomed.info/sct",
          "code": "8715000"
        } ]
      } ],
      "subject": {
        "reference": "Patient/41a02e47-7593-4107-bed2-b24fca5ddf3d"
      },
      "period": {
        "start": "2026-11-01T08:00:00.000+00:00",
        "end": "2026-11-26T08:15:00.000+00:00"
      },
      "length": {
        "value": 25.0,
        "unit": "days"
      },
      "location": [ {
        "location": {
          "reference": "Location/fe20c1eb-258a-40ca-a85f-10efae3a5aa2"
        },
        "period": {
          "start": "2026-11-01T09:00:00.000+00:00",
          "end": "2026-11-10T08:15:00.000+00:00"
        }
      } ]
    },
    "request": {
      "method": "PUT",
      "url": "Encounter/59f42f61-d848-49e6-bf4f-0ba36f323738"
    }
  }, {
    "fullUrl": "https://madie.cms.gov/Coverage/549e95bc-ce44-4591-8d82-e21a523575d3",
    "resource": {
      "resourceType": "Coverage",
      "id": "549e95bc-ce44-4591-8d82-e21a523575d3",
      "status": "active",
      "beneficiary": {
        "reference": "Patient/41a02e47-7593-4107-bed2-b24fca5ddf3d"
      },
      "period": {
        "start": "1975-01-02T08:00:00.000+00:00"
      },
      "payor": [ {
        "reference": "Organization/7c42044c-20aa-4848-bfdb-65674a853e14"
      } ]
    },
    "request": {
      "method": "PUT",
      "url": "Coverage/549e95bc-ce44-4591-8d82-e21a523575d3"
    }
  }, {
    "fullUrl": "https://madie.cms.gov/MedicationAdministration/42edce33-2da6-4e9f-b8f4-6f7b87933f1d",
    "resource": {
      "resourceType": "MedicationAdministration",
      "id": "42edce33-2da6-4e9f-b8f4-6f7b87933f1d",
      "meta": {
        "profile": [ "http://hl7.org/fhir/us/qicore/StructureDefinition/qicore-medicationadministration" ]
      },
      "status": "completed",
      "medicationCodeableConcept": {
        "coding": [ {
          "system": "http://www.nlm.nih.gov/research/umls/rxnorm",
          "code": "855288"
        } ]
      },
      "subject": {
        "reference": "Patient/41a02e47-7593-4107-bed2-b24fca5ddf3d"
      },
      "effectivePeriod": {
        "start": "2026-11-01T10:00:00.000+00:00",
        "end": "2026-11-02T08:15:00.000+00:00"
      }
    },
    "request": {
      "method": "PUT",
      "url": "MedicationAdministration/42edce33-2da6-4e9f-b8f4-6f7b87933f1d"
    }
  }, {
    "fullUrl": "https://madie.cms.gov/Procedure/25c0a82a-92fc-4e37-97a8-75b33f4f923b",
    "resource": {
      "resourceType": "Procedure",
      "id": "25c0a82a-92fc-4e37-97a8-75b33f4f923b",
      "meta": {
        "profile": [ "http://hl7.org/fhir/us/qicore/StructureDefinition/qicore-procedure" ]
      },
      "extension": [ {
        "url": "http://hl7.org/fhir/us/qicore/StructureDefinition/qicore-recorded",
        "valueDateTime": "2026-11-01T13:35:00.000+00:00"
      } ],
      "status": "completed",
      "code": {
        "coding": [ {
          "system": "http://www.icd10data.com/icd10pcs",
          "code": "3E030FZ"
        }, {
          "system": "http://snomed.info/sct",
          "code": "18946005"
        } ]
      },
      "subject": {
        "reference": "Patient/41a02e47-7593-4107-bed2-b24fca5ddf3d"
      },
      "performedPeriod": {
        "start": "2026-11-01T09:00:00.000+00:00",
        "end": "2026-11-01T10:00:00.000+00:00"
      }
    },
    "request": {
      "method": "PUT",
      "url": "Procedure/25c0a82a-92fc-4e37-97a8-75b33f4f923b"
    }
  }, {
    "fullUrl": "https://madie.cms.gov/Location/fe20c1eb-258a-40ca-a85f-10efae3a5aa2",
    "resource": {
      "resourceType": "Location",
      "id": "fe20c1eb-258a-40ca-a85f-10efae3a5aa2",
      "meta": {
        "profile": [ "http://hl7.org/fhir/us/qicore/StructureDefinition/qicore-location" ]
      },
      "identifier": [ {
        "use": "usual",
        "system": "http://exampleoflocation.com",
        "value": "B1-S.F2"
      } ],
      "name": "Medical Surgical East, first floor",
      "type": [ {
        "coding": [ {
          "system": "https://www.cdc.gov/nhsn/cdaportal/terminology/codesystem/hsloc.html",
          "code": "1025-6",
          "display": "Trauma Critical Care",
          "userSelected": true
        } ]
      } ]
    },
    "request": {
      "method": "PUT",
      "url": "Location/fe20c1eb-258a-40ca-a85f-10efae3a5aa2"
    }
  }, {
    "fullUrl": "https://madie.cms.gov/Organization/7c42044c-20aa-4848-bfdb-65674a853e14",
    "resource": {
      "resourceType": "Organization",
      "id": "7c42044c-20aa-4848-bfdb-65674a853e14",
      "meta": {
        "profile": [ "http://hl7.org/fhir/us/qicore/StructureDefinition/qicore-organization" ]
      },
      "identifier": [ {
        "use": "temp",
        "system": "urn:oid:2.16.840.1.113883.4.4",
        "value": "21-3259825"
      } ],
      "active": true,
      "type": [ {
        "coding": [ {
          "system": "http://terminology.hl7.org/CodeSystem/organization-type",
          "code": "pay",
          "display": "Payer"
        } ]
      } ],
      "name": "Blue Cross Blue Shield of Texas",
      "telecom": [ {
        "system": "phone",
        "value": "(+1) 972-766-6900"
      } ],
      "address": [ {
        "use": "billing",
        "type": "postal",
        "line": [ "P.O. Box 660044" ],
        "city": "Dallas",
        "state": "TX",
        "postalCode": "75266-0044",
        "country": "USA"
      } ]
    },
    "request": {
      "method": "PUT",
      "url": "Organization/7c42044c-20aa-4848-bfdb-65674a853e14"
    }
  }, {
    "fullUrl": "https://madie.cms.gov/Practitioner/2ee0bedc-208a-4cb4-bc16-b9be849857a2",
    "resource": {
      "resourceType": "Practitioner",
      "id": "2ee0bedc-208a-4cb4-bc16-b9be849857a2",
      "identifier": [ {
        "system": "http://hl7.org/fhir/sid/us-npi",
        "value": "123456"
      } ],
      "name": [ {
        "family": "Evil",
        "prefix": [ "Dr" ]
      } ]
    },
    "request": {
      "method": "PUT",
      "url": "Practitioner/2ee0bedc-208a-4cb4-bc16-b9be849857a2"
    }
  }, {
    "fullUrl": "https://madie.cms.gov/MeasureReport/76104606-7960-47d3-8e02-b856031c8361",
    "resource": {
      "resourceType": "MeasureReport",
      "id": "76104606-7960-47d3-8e02-b856031c8361",
      "meta": {
        "profile": [ "http://hl7.org/fhir/us/cqfmeasures/StructureDefinition/test-case-cqfm" ]
      },
      "contained": [ {
        "resourceType": "Parameters",
        "id": "b3f2549c-e32e-4059-a6be-198d5c1c9e32-parameters",
        "parameter": [ {
          "name": "subject",
          "valueString": "41a02e47-7593-4107-bed2-b24fca5ddf3d"
        } ]
      } ],
      "extension": [ {
        "url": "http://hl7.org/fhir/StructureDefinition/cqf-inputParameters",
        "valueReference": {
          "reference": "#b3f2549c-e32e-4059-a6be-198d5c1c9e32-parameters"
        }
      }, {
        "url": "http://hl7.org/fhir/us/cqfmeasures/StructureDefinition/cqfm-testCaseDescription",
        "valueMarkdown": "Warf concurrent with  anesthesia.\n"
      } ],
      "modifierExtension": [ {
        "url": "http://hl7.org/fhir/us/cqfmeasures/StructureDefinition/cqfm-isTestCase",
        "valueBoolean": true
      } ],
      "status": "complete",
      "type": "individual",
      "measure": "https://madie.cms.gov/Measure/CMS190FHIRVTEProphylaxisICU",
      "period": {
        "start": "2026-01-01",
        "end": "2026-12-31"
      },
      "group": [ {
        "id": "Group_1",
        "population": [ {
          "id": "InitialPopulation_1",
          "code": {
            "coding": [ {
              "system": "http://terminology.hl7.org/CodeSystem/measure-population",
              "code": "initial-population",
              "display": "Initial Population"
            } ]
          },
          "count": 1
        }, {
          "id": "Denominator_1",
          "code": {
            "coding": [ {
              "system": "http://terminology.hl7.org/CodeSystem/measure-population",
              "code": "denominator",
              "display": "Denominator"
            } ]
          },
          "count": 1
        }, {
          "id": "DenominatorExclusion_1",
          "code": {
            "coding": [ {
              "system": "http://terminology.hl7.org/CodeSystem/measure-population",
              "code": "denominator-exclusion",
              "display": "Denominator Exclusion"
            } ]
          },
          "count": 0
        }, {
          "id": "Numerator_1",
          "code": {
            "coding": [ {
              "system": "http://terminology.hl7.org/CodeSystem/measure-population",
              "code": "numerator",
              "display": "Numerator"
            } ]
          },
          "count": 1
        }, {
          "id": "DenominatorException_1",
          "code": {
            "coding": [ {
              "system": "http://terminology.hl7.org/CodeSystem/measure-population",
              "code": "denominator-exception",
              "display": "Denominator Exception"
            } ]
          },
          "count": 0
        } ],
        "measureScore": {
          "value": 0.0
        }
      } ],
      "evaluatedResource": [ {
        "reference": "Patient/41a02e47-7593-4107-bed2-b24fca5ddf3d"
      }, {
        "reference": "Encounter/59f42f61-d848-49e6-bf4f-0ba36f323738"
      }, {
        "reference": "Coverage/549e95bc-ce44-4591-8d82-e21a523575d3"
      }, {
        "reference": "MedicationAdministration/42edce33-2da6-4e9f-b8f4-6f7b87933f1d"
      }, {
        "reference": "Procedure/25c0a82a-92fc-4e37-97a8-75b33f4f923b"
      }, {
        "reference": "Location/fe20c1eb-258a-40ca-a85f-10efae3a5aa2"
      }, {
        "reference": "Organization/7c42044c-20aa-4848-bfdb-65674a853e14"
      }, {
        "reference": "Practitioner/2ee0bedc-208a-4cb4-bc16-b9be849857a2"
      } ]
    },
    "request": {
      "method": "PUT",
      "url": "MeasureReport/76104606-7960-47d3-8e02-b856031c8361"
    }
  } ]
}