{
  "resourceType": "Bundle",
  "id": "63487c300968f801225401cf",
  "type": "transaction",
  "entry": [ {
    "fullUrl": "https://madie.cms.gov/Patient/eca96880-3727-4f14-9439-269f16d9391e",
    "resource": {
      "resourceType": "Patient",
      "id": "eca96880-3727-4f14-9439-269f16d9391e",
      "meta": {
        "profile": [ "http://hl7.org/fhir/us/qicore/StructureDefinition/qicore-patient" ]
      },
      "text": {
        "status": "generated",
        "div": "<div xmlns=\"http://www.w3.org/1999/xhtml\"><div class=\"hapiHeaderText\">CesareanBirthRelvtDTDuringEnc <b>NUMPASS </b></div><table class=\"hapiPropertyTable\"><tbody><tr><td>Identifier</td><td>51bc91759da5bde99551dcfdd772aded6a0c8eacab7ec3cd70b3b8f217efaea9</td></tr><tr><td>Date of birth</td><td><span>14 February 1985</span></td></tr></tbody></table></div>"
      },
      "extension": [ {
        "url": "http://hl7.org/fhir/us/core/StructureDefinition/us-core-race",
        "extension": [ {
          "url": "ombCategory",
          "valueCoding": {
            "system": "urn:oid:2.16.840.1.113883.6.238",
            "code": "1002-5",
            "display": "American Indian or Alaska Native",
            "userSelected": true
          }
        }, {
          "url": "text",
          "valueString": "American Indian or Alaska Native"
        } ]
      }, {
        "url": "http://hl7.org/fhir/us/core/StructureDefinition/us-core-ethnicity",
        "extension": [ {
          "url": "ombCategory",
          "valueCoding": {
            "system": "urn:oid:2.16.840.1.113883.6.238",
            "code": "2135-2",
            "display": "Hispanic or Latino",
            "userSelected": true
          }
        }, {
          "url": "text",
          "valueString": "Hispanic or Latino"
        } ]
      } ],
      "identifier": [ {
        "type": {
          "coding": [ {
            "system": "http://terminology.hl7.org/CodeSystem/v2-0203",
            "code": "MR"
          } ]
        },
        "system": "https://bonnie-fhir.healthit.gov/",
        "value": "63487c300968f801225401cf"
      } ],
      "active": true,
      "name": [ {
        "use": "usual",
        "family": "NUMPass",
        "given": [ "CesareanBirthRelvtDTDuringEnc" ]
      } ],
      "gender": "female",
      "birthDate": "1998-02-14"
    },
    "request": {
      "method": "PUT",
      "url": "Patient/eca96880-3727-4f14-9439-269f16d9391e"
    }
  }, {
    "fullUrl": "https://madie.cms.gov/Observation/fcb96e85-09aa-46ab-97fd-da9b69917f39",
    "resource": {
      "resourceType": "Observation",
      "id": "fcb96e85-09aa-46ab-97fd-da9b69917f39",
      "meta": {
        "profile": [ "http://hl7.org/fhir/us/qicore/StructureDefinition/qicore-simple-observation" ]
      },
      "status": "final",
      "category": [ {
        "coding": [ {
          "system": "http://terminology.hl7.org/CodeSystem/observation-category",
          "code": "exam",
          "display": "exam",
          "userSelected": true
        } ]
      } ],
      "code": {
        "coding": [ {
          "system": "http://loinc.org",
          "code": "11996-6"
        } ]
      },
      "subject": {
        "reference": "Patient/eca96880-3727-4f14-9439-269f16d9391e"
      },
      "effectiveDateTime": "2026-02-09T08:00:00.000+00:00",
      "valueInteger": 1
    },
    "request": {
      "method": "PUT",
      "url": "Observation/fcb96e85-09aa-46ab-97fd-da9b69917f39"
    }
  }, {
    "fullUrl": "https://madie.cms.gov/Observation/4947c159-0a12-409a-97fa-84492cd4c760",
    "resource": {
      "resourceType": "Observation",
      "id": "4947c159-0a12-409a-97fa-84492cd4c760",
      "meta": {
        "profile": [ "http://hl7.org/fhir/us/qicore/StructureDefinition/qicore-simple-observation" ]
      },
      "status": "final",
      "category": [ {
        "coding": [ {
          "system": "http://terminology.hl7.org/CodeSystem/observation-category",
          "code": "exam",
          "display": "exam",
          "userSelected": true
        } ]
      } ],
      "code": {
        "coding": [ {
          "system": "http://loinc.org",
          "code": "11884-4"
        } ]
      },
      "subject": {
        "reference": "Patient/eca96880-3727-4f14-9439-269f16d9391e"
      },
      "effectiveDateTime": "2026-11-28T21:15:00.000+00:00",
      "valueQuantity": {
        "value": 40,
        "system": "http://unitsofmeasure.org",
        "code": "wk"
      }
    },
    "request": {
      "method": "PUT",
      "url": "Observation/4947c159-0a12-409a-97fa-84492cd4c760"
    }
  }, {
    "fullUrl": "https://madie.cms.gov/Observation/59d39ee1-2ca6-43b8-af5f-02d0ed86f951",
    "resource": {
      "resourceType": "Observation",
      "id": "59d39ee1-2ca6-43b8-af5f-02d0ed86f951",
      "meta": {
        "profile": [ "http://hl7.org/fhir/us/qicore/StructureDefinition/qicore-simple-observation" ]
      },
      "status": "final",
      "category": [ {
        "coding": [ {
          "system": "http://terminology.hl7.org/CodeSystem/observation-category",
          "code": "exam",
          "display": "exam",
          "userSelected": true
        } ]
      } ],
      "code": {
        "coding": [ {
          "system": "http://loinc.org",
          "code": "93857-1"
        } ]
      },
      "subject": {
        "reference": "Patient/eca96880-3727-4f14-9439-269f16d9391e"
      },
      "effectiveDateTime": "2026-11-28T21:15:00.000+00:00",
      "valueDateTime": "2026-11-28T21:15:00.000+00:00"
    },
    "request": {
      "method": "PUT",
      "url": "Observation/59d39ee1-2ca6-43b8-af5f-02d0ed86f951"
    }
  }, {
    "fullUrl": "https://madie.cms.gov/Encounter/e78c723b-faf1-43ba-9837-971372d72ce7",
    "resource": {
      "resourceType": "Encounter",
      "id": "e78c723b-faf1-43ba-9837-971372d72ce7",
      "meta": {
        "profile": [ "http://hl7.org/fhir/us/qicore/StructureDefinition/qicore-encounter" ]
      },
      "status": "finished",
      "class": {
        "system": "http://terminology.hl7.org/CodeSystem/v3-ActCode",
        "code": "IMP",
        "display": "inpatient encounter"
      },
      "type": [ {
        "coding": [ {
          "system": "http://snomed.info/sct",
          "code": "8715000"
        } ]
      } ],
      "subject": {
        "reference": "Patient/eca96880-3727-4f14-9439-269f16d9391e"
      },
      "period": {
        "start": "2026-11-28T08:00:00.000+00:00",
        "end": "2026-11-30T08:15:00.000+00:00"
      },
      "reasonReference": [ {
        "reference": "Condition/5167f41f-d7c8-40f8-ac41-99470dc2ab0a"
      } ]
    },
    "request": {
      "method": "PUT",
      "url": "Encounter/e78c723b-faf1-43ba-9837-971372d72ce7"
    }
  }, {
    "fullUrl": "https://madie.cms.gov/Procedure/871b2f47-9068-4280-b896-6798e981fd49",
    "resource": {
      "resourceType": "Procedure",
      "id": "871b2f47-9068-4280-b896-6798e981fd49",
      "meta": {
        "profile": [ "http://hl7.org/fhir/us/qicore/StructureDefinition/qicore-procedure" ]
      },
      "extension": [ {
        "url": "http://hl7.org/fhir/us/qicore/StructureDefinition/qicore-recorded",
        "valueDateTime": "2014-04-05T13:35:00.000+00:00"
      } ],
      "status": "completed",
      "code": {
        "coding": [ {
          "system": "http://www.cms.gov/Medicare/Coding/ICD10",
          "code": "10D00Z0"
        }, {
          "system": "http://www.icd10data.com/icd10pcs",
          "code": "10D00Z0",
          "userSelected": true
        } ]
      },
      "subject": {
        "reference": "Patient/eca96880-3727-4f14-9439-269f16d9391e"
      },
      "performedDateTime": "2026-11-28T09:00:00.000+00:00"
    },
    "request": {
      "method": "PUT",
      "url": "Procedure/871b2f47-9068-4280-b896-6798e981fd49"
    }
  }, {
    "fullUrl": "https://madie.cms.gov/Condition/5167f41f-d7c8-40f8-ac41-99470dc2ab0a",
    "resource": {
      "resourceType": "Condition",
      "id": "5167f41f-d7c8-40f8-ac41-99470dc2ab0a",
      "meta": {
        "profile": [ "http://hl7.org/fhir/us/qicore/StructureDefinition/qicore-condition-encounter-diagnosis" ]
      },
      "category": [ {
        "coding": [ {
          "system": "http://terminology.hl7.org/CodeSystem/condition-category",
          "code": "encounter-diagnosis",
          "display": "Encounter Diagnosis"
        } ]
      } ],
      "code": {
        "coding": [ {
          "system": "http://snomed.info/sct",
          "version": "2022-09",
          "code": "169826009",
          "display": "Single live birth (finding)",
          "userSelected": true
        } ]
      },
      "subject": {
        "reference": "Patient/eca96880-3727-4f14-9439-269f16d9391e"
      },
      "encounter": {
        "reference": "Encounter/e78c723b-faf1-43ba-9837-971372d72ce7"
      },
      "recordedDate": "2026-10-17T08:00:00.000+00:00"
    },
    "request": {
      "method": "PUT",
      "url": "Condition/5167f41f-d7c8-40f8-ac41-99470dc2ab0a"
    }
  }, {
    "fullUrl": "https://madie.cms.gov/Coverage/f096c4c4-5324-4aa6-a9ff-4d7034773928",
    "resource": {
      "resourceType": "Coverage",
      "id": "f096c4c4-5324-4aa6-a9ff-4d7034773928",
      "meta": {
        "profile": [ "http://hl7.org/fhir/us/qicore/StructureDefinition/qicore-coverage" ]
      },
      "status": "active",
      "beneficiary": {
        "reference": "Patient/eca96880-3727-4f14-9439-269f16d9391e"
      },
      "payor": [ {
        "reference": "Organization/17cb3179-590f-4447-bac4-5abc6dedf499"
      } ]
    },
    "request": {
      "method": "PUT",
      "url": "Coverage/f096c4c4-5324-4aa6-a9ff-4d7034773928"
    }
  }, {
    "fullUrl": "https://madie.cms.gov/Organization/17cb3179-590f-4447-bac4-5abc6dedf499",
    "resource": {
      "resourceType": "Organization",
      "id": "17cb3179-590f-4447-bac4-5abc6dedf499",
      "meta": {
        "profile": [ "http://hl7.org/fhir/us/qicore/StructureDefinition/qicore-organization" ]
      },
      "identifier": [ {
        "use": "temp",
        "system": "urn:oid:2.16.840.1.113883.4.4",
        "value": "21-3259825"
      } ],
      "active": true,
      "type": [ {
        "coding": [ {
          "system": "http://terminology.hl7.org/CodeSystem/organization-type",
          "code": "pay",
          "display": "Payer"
        } ]
      } ],
      "name": "Blue Cross Blue Shield of Texas",
      "telecom": [ {
        "system": "phone",
        "value": "(+1) 972-766-6900"
      } ],
      "address": [ {
        "use": "billing",
        "type": "postal",
        "line": [ "P.O. Box 660044" ],
        "city": "Dallas",
        "state": "TX",
        "postalCode": "75266-0044",
        "country": "USA"
      } ]
    },
    "request": {
      "method": "PUT",
      "url": "Organization/17cb3179-590f-4447-bac4-5abc6dedf499"
    }
  }, {
    "fullUrl": "https://madie.cms.gov/Practitioner/8f8fb79b-7341-49a6-8249-26d2eacc0e75",
    "resource": {
      "resourceType": "Practitioner",
      "id": "8f8fb79b-7341-49a6-8249-26d2eacc0e75",
      "identifier": [ {
        "system": "http://hl7.org/fhir/sid/us-npi",
        "value": "123456"
      } ],
      "name": [ {
        "family": "Evil",
        "prefix": [ "Dr" ]
      } ]
    },
    "request": {
      "method": "PUT",
      "url": "Practitioner/8f8fb79b-7341-49a6-8249-26d2eacc0e75"
    }
  }, {
    "fullUrl": "https://madie.cms.gov/MeasureReport/4ee1dd9b-31f0-4863-9f1a-819b24e250c2",
    "resource": {
      "resourceType": "MeasureReport",
      "id": "4ee1dd9b-31f0-4863-9f1a-819b24e250c2",
      "meta": {
        "profile": [ "http://hl7.org/fhir/us/cqfmeasures/StructureDefinition/test-case-cqfm" ]
      },
      "contained": [ {
        "resourceType": "Parameters",
        "id": "0fd61a4f-414d-4ff6-acaa-5601ce6ad6d8-parameters",
        "parameter": [ {
          "name": "subject",
          "valueString": "eca96880-3727-4f14-9439-269f16d9391e"
        } ]
      } ],
      "extension": [ {
        "url": "http://hl7.org/fhir/StructureDefinition/cqf-inputParameters",
        "valueReference": {
          "reference": "#0fd61a4f-414d-4ff6-acaa-5601ce6ad6d8-parameters"
        }
      }, {
        "url": "http://hl7.org/fhir/us/cqfmeasures/StructureDefinition/cqfm-testCaseDescription",
        "valueMarkdown": "Passes IP, DEN, NUM; Gravida 1(effective date 42 weeks)  and EGA 40 weeks; Cesarean Birth DateTime during Enc"
      } ],
      "modifierExtension": [ {
        "url": "http://hl7.org/fhir/us/cqfmeasures/StructureDefinition/cqfm-isTestCase",
        "valueBoolean": true
      } ],
      "status": "complete",
      "type": "individual",
      "measure": "https://madie.cms.gov/Measure/CMS0334FHIRPCCesareanBirth",
      "period": {
        "start": "2026-01-01",
        "end": "2026-12-31"
      },
      "group": [ {
        "id": "Group_1",
        "population": [ {
          "id": "InitialPopulation_1",
          "code": {
            "coding": [ {
              "system": "http://terminology.hl7.org/CodeSystem/measure-population",
              "code": "initial-population",
              "display": "Initial Population"
            } ]
          },
          "count": 1
        }, {
          "id": "Denominator_1",
          "code": {
            "coding": [ {
              "system": "http://terminology.hl7.org/CodeSystem/measure-population",
              "code": "denominator",
              "display": "Denominator"
            } ]
          },
          "count": 1
        }, {
          "id": "DenominatorExclusion_1",
          "code": {
            "coding": [ {
              "system": "http://terminology.hl7.org/CodeSystem/measure-population",
              "code": "denominator-exclusion",
              "display": "Denominator Exclusion"
            } ]
          },
          "count": 0
        }, {
          "id": "Numerator_1",
          "code": {
            "coding": [ {
              "system": "http://terminology.hl7.org/CodeSystem/measure-population",
              "code": "numerator",
              "display": "Numerator"
            } ]
          },
          "count": 1
        } ],
        "measureScore": {
          "value": 0.0
        }
      } ],
      "evaluatedResource": [ {
        "reference": "Patient/eca96880-3727-4f14-9439-269f16d9391e"
      }, {
        "reference": "Observation/fcb96e85-09aa-46ab-97fd-da9b69917f39"
      }, {
        "reference": "Observation/4947c159-0a12-409a-97fa-84492cd4c760"
      }, {
        "reference": "Observation/59d39ee1-2ca6-43b8-af5f-02d0ed86f951"
      }, {
        "reference": "Encounter/e78c723b-faf1-43ba-9837-971372d72ce7"
      }, {
        "reference": "Procedure/871b2f47-9068-4280-b896-6798e981fd49"
      }, {
        "reference": "Condition/5167f41f-d7c8-40f8-ac41-99470dc2ab0a"
      }, {
        "reference": "Coverage/f096c4c4-5324-4aa6-a9ff-4d7034773928"
      }, {
        "reference": "Organization/17cb3179-590f-4447-bac4-5abc6dedf499"
      }, {
        "reference": "Practitioner/8f8fb79b-7341-49a6-8249-26d2eacc0e75"
      } ]
    },
    "request": {
      "method": "PUT",
      "url": "MeasureReport/4ee1dd9b-31f0-4863-9f1a-819b24e250c2"
    }
  } ]
}