{
  "resourceType": "Bundle",
  "id": "NUMERPass-PsycotherapyAmbLocation",
  "type": "transaction",
  "entry": [ {
    "fullUrl": "https://madie.cms.gov/Patient/3762199a-ad97-4251-9ac9-e9277f47127c",
    "resource": {
      "resourceType": "Patient",
      "id": "3762199a-ad97-4251-9ac9-e9277f47127c",
      "meta": {
        "profile": [ "http://hl7.org/fhir/us/qicore/StructureDefinition/qicore-patient" ]
      },
      "extension": [ {
        "url": "http://hl7.org/fhir/us/core/StructureDefinition/us-core-race",
        "extension": [ {
          "url": "ombCategory",
          "valueCoding": {
            "system": "urn:oid:2.16.840.1.113883.6.238",
            "code": "2028-9",
            "display": "Asian"
          }
        }, {
          "url": "text",
          "valueString": "Asian"
        } ]
      }, {
        "url": "http://hl7.org/fhir/us/core/StructureDefinition/us-core-ethnicity",
        "extension": [ {
          "url": "ombCategory",
          "valueCoding": {
            "system": "urn:oid:2.16.840.1.113883.6.238",
            "code": "2135-2",
            "display": "Hispanic or Latino"
          }
        }, {
          "url": "text",
          "valueString": "Hispanic or Latino"
        } ]
      } ],
      "identifier": [ {
        "system": "http://hospital.smarthealthit.org",
        "value": "999999995"
      } ],
      "name": [ {
        "family": "Bertha",
        "given": [ "Betty" ]
      } ],
      "gender": "female",
      "birthDate": "2017-12-31"
    },
    "request": {
      "method": "PUT",
      "url": "Patient/3762199a-ad97-4251-9ac9-e9277f47127c"
    }
  }, {
    "fullUrl": "https://madie.cms.gov/Encounter/3b36d2cd-63ed-4ea0-adc0-1adddaf4a33b",
    "resource": {
      "resourceType": "Encounter",
      "id": "3b36d2cd-63ed-4ea0-adc0-1adddaf4a33b",
      "meta": {
        "profile": [ "http://hl7.org/fhir/us/qicore/StructureDefinition/qicore-encounter" ]
      },
      "status": "finished",
      "class": {
        "system": "http://terminology.hl7.org/CodeSystem/v3-ActCode",
        "code": "AMB",
        "display": "ambulatory"
      },
      "type": [ {
        "coding": [ {
          "system": "http://snomed.info/sct",
          "code": "185464004",
          "display": "Out of hours visit - not night visit (procedure)"
        } ]
      } ],
      "subject": {
        "reference": "Patient/3762199a-ad97-4251-9ac9-e9277f47127c"
      },
      "period": {
        "start": "2026-01-01T00:00:00.000+00:00",
        "end": "2026-01-01T01:00:00.000+00:00"
      }
    },
    "request": {
      "method": "PUT",
      "url": "Encounter/3b36d2cd-63ed-4ea0-adc0-1adddaf4a33b"
    }
  }, {
    "fullUrl": "https://madie.cms.gov/MedicationRequest/b42c9109-1b28-4cab-8977-c943f8331688",
    "resource": {
      "resourceType": "MedicationRequest",
      "id": "b42c9109-1b28-4cab-8977-c943f8331688",
      "meta": {
        "profile": [ "http://hl7.org/fhir/us/qicore/StructureDefinition/qicore-medicationrequest" ]
      },
      "status": "completed",
      "intent": "order",
      "medicationCodeableConcept": {
        "coding": [ {
          "system": "http://www.nlm.nih.gov/research/umls/rxnorm",
          "code": "884173",
          "display": "clonidine hydrochloride 0.1 MG Oral Tablet"
        } ]
      },
      "subject": {
        "reference": "Patient/3762199a-ad97-4251-9ac9-e9277f47127c"
      },
      "authoredOn": "2026-01-01T00:00:00.000+00:00",
      "requester": {
        "reference": "Practitioner/example"
      },
      "dosageInstruction": [ {
        "timing": {
          "repeat": {
            "boundsPeriod": {
              "start": "2026-01-01T00:00:00.000+00:00",
              "end": "2026-03-31T23:59:59.000+00:00"
            }
          }
        }
      } ],
      "dispenseRequest": {
        "expectedSupplyDuration": {
          "value": 90,
          "system": "http://unitsofmeasure.org",
          "code": "d"
        }
      }
    },
    "request": {
      "method": "PUT",
      "url": "MedicationRequest/b42c9109-1b28-4cab-8977-c943f8331688"
    }
  }, {
    "fullUrl": "https://madie.cms.gov/Encounter/ca434c82-e546-4cd0-aafc-2c53e356eac4",
    "resource": {
      "resourceType": "Encounter",
      "id": "ca434c82-e546-4cd0-aafc-2c53e356eac4",
      "meta": {
        "profile": [ "http://hl7.org/fhir/us/qicore/StructureDefinition/qicore-encounter" ]
      },
      "status": "finished",
      "class": {
        "system": "http://terminology.hl7.org/CodeSystem/v3-ActCode",
        "code": "AMB",
        "display": "ambulatory"
      },
      "type": [ {
        "coding": [ {
          "system": "http://www.ama-assn.org/go/cpt",
          "code": "90849",
          "display": "Multiple-family group psychotherapy"
        } ]
      } ],
      "subject": {
        "reference": "Patient/3762199a-ad97-4251-9ac9-e9277f47127c"
      },
      "period": {
        "start": "2026-01-31T00:00:00.000+00:00",
        "end": "2026-01-31T01:00:00.000+00:00"
      },
      "location": [ {
        "location": {
          "reference": "Location/c20defba-5829-4b9c-a0ba-6c6b83d6d58d"
        }
      } ]
    },
    "request": {
      "method": "PUT",
      "url": "Encounter/ca434c82-e546-4cd0-aafc-2c53e356eac4"
    }
  }, {
    "fullUrl": "https://madie.cms.gov/Location/c20defba-5829-4b9c-a0ba-6c6b83d6d58d",
    "resource": {
      "resourceType": "Location",
      "id": "c20defba-5829-4b9c-a0ba-6c6b83d6d58d",
      "meta": {
        "profile": [ "http://hl7.org/fhir/us/qicore/StructureDefinition/qicore-location" ]
      },
      "identifier": [ {
        "use": "temp",
        "system": "http://exampleoflocation.com",
        "value": "example"
      } ],
      "name": "Example Hospital",
      "type": [ {
        "coding": [ {
          "system": "http://snomed.info/sct",
          "code": "35971002",
          "display": "Ambulatory care site (environment)"
        } ]
      } ]
    },
    "request": {
      "method": "PUT",
      "url": "Location/c20defba-5829-4b9c-a0ba-6c6b83d6d58d"
    }
  }, {
    "fullUrl": "https://madie.cms.gov/MeasureReport/bfe18ad1-842b-454b-8b65-796a25c06f8e",
    "resource": {
      "resourceType": "MeasureReport",
      "id": "bfe18ad1-842b-454b-8b65-796a25c06f8e",
      "meta": {
        "profile": [ "http://hl7.org/fhir/us/cqfmeasures/StructureDefinition/test-case-cqfm" ]
      },
      "contained": [ {
        "resourceType": "Parameters",
        "id": "773d0a2d-7361-4648-a693-dd5ecdffba33-parameters",
        "parameter": [ {
          "name": "subject",
          "valueString": "3762199a-ad97-4251-9ac9-e9277f47127c"
        } ]
      } ],
      "extension": [ {
        "url": "http://hl7.org/fhir/StructureDefinition/cqf-inputParameters",
        "valueReference": {
          "reference": "#773d0a2d-7361-4648-a693-dd5ecdffba33-parameters"
        }
      }, {
        "url": "http://hl7.org/fhir/us/cqfmeasures/StructureDefinition/cqfm-testCaseDescription",
        "valueMarkdown": "Psychotherapy at ambulatory location during initiation phase"
      } ],
      "modifierExtension": [ {
        "url": "http://hl7.org/fhir/us/cqfmeasures/StructureDefinition/cqfm-isTestCase",
        "valueBoolean": true
      } ],
      "status": "complete",
      "type": "individual",
      "measure": "https://madie.cms.gov/Measure/CMS136FHIRChildADHDMedFollowUp",
      "period": {
        "start": "2026-01-01",
        "end": "2026-12-31"
      },
      "group": [ {
        "id": "Group_1",
        "population": [ {
          "id": "InitialPopulation_1",
          "code": {
            "coding": [ {
              "system": "http://terminology.hl7.org/CodeSystem/measure-population",
              "code": "initial-population",
              "display": "Initial Population"
            } ]
          },
          "count": 1
        }, {
          "id": "Denominator_1",
          "code": {
            "coding": [ {
              "system": "http://terminology.hl7.org/CodeSystem/measure-population",
              "code": "denominator",
              "display": "Denominator"
            } ]
          },
          "count": 1
        }, {
          "id": "DenominatorExclusion_1",
          "code": {
            "coding": [ {
              "system": "http://terminology.hl7.org/CodeSystem/measure-population",
              "code": "denominator-exclusion",
              "display": "Denominator Exclusion"
            } ]
          },
          "count": 0
        }, {
          "id": "Numerator_1",
          "code": {
            "coding": [ {
              "system": "http://terminology.hl7.org/CodeSystem/measure-population",
              "code": "numerator",
              "display": "Numerator"
            } ]
          },
          "count": 1
        } ],
        "measureScore": {
          "value": 1.0
        }
      }, {
        "id": "Group_2",
        "population": [ {
          "id": "InitialPopulation_2",
          "code": {
            "coding": [ {
              "system": "http://terminology.hl7.org/CodeSystem/measure-population",
              "code": "initial-population",
              "display": "Initial Population"
            } ]
          },
          "count": 0
        }, {
          "id": "Denominator_2",
          "code": {
            "coding": [ {
              "system": "http://terminology.hl7.org/CodeSystem/measure-population",
              "code": "denominator",
              "display": "Denominator"
            } ]
          },
          "count": 0
        }, {
          "id": "DenominatorExclusion_2",
          "code": {
            "coding": [ {
              "system": "http://terminology.hl7.org/CodeSystem/measure-population",
              "code": "denominator-exclusion",
              "display": "Denominator Exclusion"
            } ]
          },
          "count": 0
        }, {
          "id": "Numerator_2",
          "code": {
            "coding": [ {
              "system": "http://terminology.hl7.org/CodeSystem/measure-population",
              "code": "numerator",
              "display": "Numerator"
            } ]
          },
          "count": 0
        } ],
        "measureScore": {
          "value": 1.0
        }
      } ],
      "evaluatedResource": [ {
        "reference": "Patient/3762199a-ad97-4251-9ac9-e9277f47127c"
      }, {
        "reference": "Encounter/3b36d2cd-63ed-4ea0-adc0-1adddaf4a33b"
      }, {
        "reference": "MedicationRequest/b42c9109-1b28-4cab-8977-c943f8331688"
      }, {
        "reference": "Encounter/ca434c82-e546-4cd0-aafc-2c53e356eac4"
      }, {
        "reference": "Location/c20defba-5829-4b9c-a0ba-6c6b83d6d58d"
      } ]
    },
    "request": {
      "method": "PUT",
      "url": "MeasureReport/bfe18ad1-842b-454b-8b65-796a25c06f8e"
    }
  } ]
}