{
  "resourceType": "Bundle",
  "id": "62fd0e6b85b0356a7c285331",
  "type": "collection",
  "entry": [ {
    "fullUrl": "https://madie.cms.gov/Patient/bfed65eb-7ece-4d24-8470-4e9803b6b7f7",
    "resource": {
      "resourceType": "Patient",
      "id": "bfed65eb-7ece-4d24-8470-4e9803b6b7f7",
      "meta": {
        "profile": [ "http://hl7.org/fhir/us/qicore/StructureDefinition/qicore-patient" ]
      },
      "extension": [ {
        "url": "http://hl7.org/fhir/us/core/StructureDefinition/us-core-race",
        "extension": [ {
          "url": "ombCategory",
          "valueCoding": {
            "system": "urn:oid:2.16.840.1.113883.6.238",
            "code": "1002-5",
            "display": "American Indian or Alaska Native",
            "userSelected": true
          }
        }, {
          "url": "text",
          "valueString": "American Indian or Alaska Native"
        } ]
      }, {
        "url": "http://hl7.org/fhir/us/core/StructureDefinition/us-core-ethnicity",
        "extension": [ {
          "url": "ombCategory",
          "valueCoding": {
            "system": "urn:oid:2.16.840.1.113883.6.238",
            "code": "2135-2",
            "display": "Hispanic or Latino",
            "userSelected": true
          }
        }, {
          "url": "text",
          "valueString": "Hispanic or Latino"
        } ]
      } ],
      "identifier": [ {
        "type": {
          "coding": [ {
            "system": "http://terminology.hl7.org/CodeSystem/v2-0203",
            "code": "MR"
          } ]
        },
        "system": "https://bonnie-fhir.healthit.gov/",
        "value": "62fd0e6b85b0356a7c285331"
      } ],
      "name": [ {
        "family": "DenomFail",
        "given": [ "PSAAfterStaging" ]
      } ],
      "gender": "other",
      "birthDate": "1981-09-15"
    }
  }, {
    "fullUrl": "https://madie.cms.gov/Condition/90613382-ddb1-4fb6-bafa-25f17e5a916d",
    "resource": {
      "resourceType": "Condition",
      "id": "90613382-ddb1-4fb6-bafa-25f17e5a916d",
      "meta": {
        "profile": [ "http://hl7.org/fhir/us/qicore/StructureDefinition/qicore-condition-problems-health-concerns" ]
      },
      "clinicalStatus": {
        "coding": [ {
          "system": "http://terminology.hl7.org/CodeSystem/condition-clinical",
          "code": "active",
          "display": "active",
          "userSelected": true
        } ]
      },
      "category": [ {
        "coding": [ {
          "system": "http://hl7.org/fhir/us/core/CodeSystem/condition-category",
          "code": "health-concern",
          "display": "Health Concern"
        }, {
          "system": "http://snomed.info/sct",
          "code": "439401001",
          "display": "Diagnosis"
        } ]
      } ],
      "code": {
        "coding": [ {
          "system": "http://snomed.info/sct",
          "code": "254900004",
          "display": "Carcinoma of prostate (disorder)",
          "userSelected": true
        } ]
      },
      "subject": {
        "reference": "Patient/bfed65eb-7ece-4d24-8470-4e9803b6b7f7"
      },
      "onsetPeriod": {
        "start": "2008-06-14T08:00:00.000+00:00"
      }
    }
  }, {
    "fullUrl": "https://madie.cms.gov/Procedure/1f89197e-c807-4ec1-a723-9d99073de140",
    "resource": {
      "resourceType": "Procedure",
      "id": "1f89197e-c807-4ec1-a723-9d99073de140",
      "meta": {
        "profile": [ "http://hl7.org/fhir/us/qicore/StructureDefinition/qicore-procedure" ]
      },
      "extension": [ {
        "url": "http://hl7.org/fhir/us/qicore/StructureDefinition/qicore-recorded",
        "valueDateTime": "2026-02-01T09:00:00.000+00:00"
      } ],
      "status": "completed",
      "code": {
        "coding": [ {
          "system": "http://snomed.info/sct",
          "code": "38915000",
          "display": "Radionuclide therapy for gland ablation (procedure)",
          "userSelected": true
        } ]
      },
      "subject": {
        "reference": "Patient/bfed65eb-7ece-4d24-8470-4e9803b6b7f7"
      },
      "performedDateTime": "2026-04-28T08:00:00.000+00:00"
    }
  }, {
    "fullUrl": "https://madie.cms.gov/Observation/8315d995-7a93-4bd7-80e2-a18e2a8a9234",
    "resource": {
      "resourceType": "Observation",
      "id": "8315d995-7a93-4bd7-80e2-a18e2a8a9234",
      "meta": {
        "profile": [ "http://hl7.org/fhir/us/qicore/StructureDefinition/qicore-observation-lab" ]
      },
      "status": "final",
      "category": [ {
        "coding": [ {
          "system": "http://terminology.hl7.org/CodeSystem/observation-category",
          "code": "laboratory",
          "display": "Laboratory"
        } ]
      } ],
      "code": {
        "coding": [ {
          "system": "http://loinc.org",
          "version": "2.72",
          "code": "10508-0",
          "display": "Prostate specific Ag [Presence] in Tissue by Immune stain",
          "userSelected": true
        } ]
      },
      "subject": {
        "reference": "Patient/bfed65eb-7ece-4d24-8470-4e9803b6b7f7"
      },
      "effectiveDateTime": "2026-08-17T08:00:00.000+00:00",
      "issued": "2026-04-24T08:00:00.000+00:00",
      "valueQuantity": {
        "value": 5.0,
        "system": "http://unitsofmeasure.org",
        "code": "ng/mL"
      }
    }
  }, {
    "fullUrl": "https://madie.cms.gov/Observation/d91a1045-fc70-40a9-9bb0-5174f5c9a257",
    "resource": {
      "resourceType": "Observation",
      "id": "d91a1045-fc70-40a9-9bb0-5174f5c9a257",
      "meta": {
        "profile": [ "http://hl7.org/fhir/us/qicore/StructureDefinition/qicore-observation-clinical-result" ]
      },
      "status": "final",
      "category": [ {
        "coding": [ {
          "system": "http://terminology.hl7.org/CodeSystem/observation-category",
          "code": "procedure",
          "display": "Procedure"
        } ]
      } ],
      "code": {
        "coding": [ {
          "system": "http://loinc.org",
          "code": "35266-6",
          "display": "Gleason score in Specimen Qualitative",
          "userSelected": true
        } ]
      },
      "subject": {
        "reference": "Patient/bfed65eb-7ece-4d24-8470-4e9803b6b7f7"
      },
      "effectiveDateTime": "2026-01-02T08:00:00.000+00:00",
      "valueInteger": 5
    }
  }, {
    "fullUrl": "https://madie.cms.gov/Observation/49ea90d7-20d3-434d-bc4f-3b9024ddcb88",
    "resource": {
      "resourceType": "Observation",
      "id": "49ea90d7-20d3-434d-bc4f-3b9024ddcb88",
      "meta": {
        "profile": [ "http://hl7.org/fhir/us/qicore/StructureDefinition/qicore-observation-clinical-result" ]
      },
      "status": "final",
      "category": [ {
        "coding": [ {
          "system": "http://terminology.hl7.org/CodeSystem/observation-category",
          "code": "procedure",
          "display": "Procedure"
        } ]
      } ],
      "code": {
        "coding": [ {
          "system": "http://snomed.info/sct",
          "code": "254292007",
          "display": "Tumor staging (tumor staging)",
          "userSelected": true
        } ]
      },
      "subject": {
        "reference": "Patient/bfed65eb-7ece-4d24-8470-4e9803b6b7f7"
      },
      "effectiveDateTime": "2026-04-27T23:59:00.000+00:00",
      "valueCodeableConcept": {
        "coding": [ {
          "system": "http://snomed.info/sct",
          "code": "1228899006",
          "display": "American Joint Committee on Cancer cT1c (qualifier value)",
          "userSelected": true
        } ]
      }
    }
  }, {
    "fullUrl": "https://madie.cms.gov/Coverage/ac66c471-5d25-4b45-befc-241aae8ebc34",
    "resource": {
      "resourceType": "Coverage",
      "id": "ac66c471-5d25-4b45-befc-241aae8ebc34",
      "meta": {
        "profile": [ "http://hl7.org/fhir/us/qicore/StructureDefinition/qicore-coverage" ]
      },
      "status": "active",
      "subscriberId": "123456789",
      "beneficiary": {
        "reference": "Patient/bfed65eb-7ece-4d24-8470-4e9803b6b7f7"
      },
      "relationship": {
        "coding": [ {
          "system": "http://terminology.hl7.org/CodeSystem/subscriber-relationship",
          "code": "self",
          "display": "Self",
          "userSelected": true
        } ]
      },
      "payor": [ {
        "reference": "Organization/70515939-b9cb-4918-92da-fd8e770b2b5c"
      } ]
    }
  }, {
    "fullUrl": "https://madie.cms.gov/Organization/70515939-b9cb-4918-92da-fd8e770b2b5c",
    "resource": {
      "resourceType": "Organization",
      "id": "70515939-b9cb-4918-92da-fd8e770b2b5c",
      "meta": {
        "profile": [ "http://hl7.org/fhir/us/qicore/StructureDefinition/qicore-organization" ]
      },
      "identifier": [ {
        "use": "temp",
        "system": "urn:oid:2.16.840.1.113883.4.4",
        "value": "21-3259825"
      } ],
      "active": true,
      "type": [ {
        "coding": [ {
          "system": "http://terminology.hl7.org/CodeSystem/organization-type",
          "code": "pay",
          "display": "Payer"
        } ]
      } ],
      "name": "Blue Cross Blue Shield of Texas",
      "telecom": [ {
        "system": "phone",
        "value": "(+1) 972-766-6900"
      } ],
      "address": [ {
        "use": "billing",
        "type": "postal",
        "line": [ "P.O. Box 660044" ],
        "city": "Dallas",
        "state": "TX",
        "postalCode": "75266-0044",
        "country": "USA"
      } ]
    }
  }, {
    "fullUrl": "https://madie.cms.gov/Practitioner/0fea0ab1-0c97-48da-8d89-1d139ffacee4",
    "resource": {
      "resourceType": "Practitioner",
      "id": "0fea0ab1-0c97-48da-8d89-1d139ffacee4",
      "meta": {
        "profile": [ "http://hl7.org/fhir/us/qicore/StructureDefinition/qicore-practitioner" ]
      },
      "identifier": [ {
        "system": "http://hl7.org/fhir/sid/us-npi",
        "value": "1234567893"
      } ],
      "name": [ {
        "family": "Evil",
        "prefix": [ "Dr" ]
      } ]
    }
  }, {
    "fullUrl": "https://madie.cms.gov/MeasureReport/b96300e1-74cb-4ffe-98ec-b5e80cdbf247",
    "resource": {
      "resourceType": "MeasureReport",
      "id": "b96300e1-74cb-4ffe-98ec-b5e80cdbf247",
      "meta": {
        "profile": [ "http://hl7.org/fhir/us/cqfmeasures/StructureDefinition/test-case-cqfm" ]
      },
      "contained": [ {
        "resourceType": "Parameters",
        "id": "9cbfe813-ab7b-4299-b779-d960c04e2b57-parameters",
        "parameter": [ {
          "name": "subject",
          "valueString": "bfed65eb-7ece-4d24-8470-4e9803b6b7f7"
        } ]
      } ],
      "extension": [ {
        "url": "http://hl7.org/fhir/StructureDefinition/cqf-inputParameters",
        "valueReference": {
          "reference": "#9cbfe813-ab7b-4299-b779-d960c04e2b57-parameters"
        }
      }, {
        "url": "http://hl7.org/fhir/us/cqfmeasures/StructureDefinition/cqfm-testCaseDescription",
        "valueMarkdown": "Prostate Ca Diagnosis but does not meet  PSA. Meets tumor staging, first treatment, and Gleason.  PSA is after tumor staging. PSA value <10 (5).\n"
      } ],
      "modifierExtension": [ {
        "url": "http://hl7.org/fhir/us/cqfmeasures/StructureDefinition/cqfm-isTestCase",
        "valueBoolean": true
      } ],
      "status": "complete",
      "type": "individual",
      "measure": "https://madie.cms.gov/Measure/CMS129FHIRProstCaBoneScanUse",
      "period": {
        "start": "2026-01-01",
        "end": "2026-12-31"
      },
      "group": [ {
        "id": "Group_1",
        "population": [ {
          "id": "InitialPopulation_1",
          "code": {
            "coding": [ {
              "system": "http://terminology.hl7.org/CodeSystem/measure-population",
              "code": "initial-population",
              "display": "Initial Population"
            } ]
          },
          "count": 1
        }, {
          "id": "Denominator_1",
          "code": {
            "coding": [ {
              "system": "http://terminology.hl7.org/CodeSystem/measure-population",
              "code": "denominator",
              "display": "Denominator"
            } ]
          },
          "count": 0
        }, {
          "id": "Numerator_1",
          "code": {
            "coding": [ {
              "system": "http://terminology.hl7.org/CodeSystem/measure-population",
              "code": "numerator",
              "display": "Numerator"
            } ]
          },
          "count": 0
        }, {
          "id": "DenominatorException_1",
          "code": {
            "coding": [ {
              "system": "http://terminology.hl7.org/CodeSystem/measure-population",
              "code": "denominator-exception",
              "display": "Denominator Exception"
            } ]
          },
          "count": 0
        } ],
        "measureScore": {
          "value": 1.0
        }
      } ],
      "evaluatedResource": [ {
        "reference": "Patient/bfed65eb-7ece-4d24-8470-4e9803b6b7f7"
      }, {
        "reference": "Condition/90613382-ddb1-4fb6-bafa-25f17e5a916d"
      }, {
        "reference": "Procedure/1f89197e-c807-4ec1-a723-9d99073de140"
      }, {
        "reference": "Observation/8315d995-7a93-4bd7-80e2-a18e2a8a9234"
      }, {
        "reference": "Observation/d91a1045-fc70-40a9-9bb0-5174f5c9a257"
      }, {
        "reference": "Observation/49ea90d7-20d3-434d-bc4f-3b9024ddcb88"
      }, {
        "reference": "Coverage/ac66c471-5d25-4b45-befc-241aae8ebc34"
      }, {
        "reference": "Organization/70515939-b9cb-4918-92da-fd8e770b2b5c"
      }, {
        "reference": "Practitioner/0fea0ab1-0c97-48da-8d89-1d139ffacee4"
      } ]
    }
  } ]
}