{
  "resourceType": "Bundle",
  "id": "Patient-46-DENEXPass-HospiceDiagnosisOverlapsMP",
  "type": "transaction",
  "entry": [ {
    "fullUrl": "https://madie.cms.gov/Patient/64ba4a87-8cf6-4cfb-b0e7-506dd08c8bbe",
    "resource": {
      "resourceType": "Patient",
      "id": "64ba4a87-8cf6-4cfb-b0e7-506dd08c8bbe",
      "meta": {
        "profile": [ "http://hl7.org/fhir/us/qicore/StructureDefinition/qicore-patient" ]
      },
      "extension": [ {
        "url": "http://hl7.org/fhir/us/core/StructureDefinition/us-core-race",
        "extension": [ {
          "url": "ombCategory",
          "valueCoding": {
            "system": "urn:oid:2.16.840.1.113883.6.238",
            "code": "2028-9",
            "display": "Asian"
          }
        }, {
          "url": "text",
          "valueString": "Asian"
        } ]
      }, {
        "url": "http://hl7.org/fhir/us/core/StructureDefinition/us-core-ethnicity",
        "extension": [ {
          "url": "ombCategory",
          "valueCoding": {
            "system": "urn:oid:2.16.840.1.113883.6.238",
            "code": "2135-2",
            "display": "Hispanic or Latino"
          }
        }, {
          "url": "text",
          "valueString": "Hispanic or Latino"
        } ]
      } ],
      "identifier": [ {
        "system": "http://hospital.smarthealthit.org",
        "value": "999999995"
      } ],
      "name": [ {
        "family": "Bertha",
        "given": [ "Betty" ]
      } ],
      "gender": "female",
      "birthDate": "2007-01-01"
    },
    "request": {
      "method": "PUT",
      "url": "Patient/64ba4a87-8cf6-4cfb-b0e7-506dd08c8bbe"
    }
  }, {
    "fullUrl": "https://madie.cms.gov/Encounter/d9ab46c8-57bf-41c0-b22f-d05b8c66f0f6",
    "resource": {
      "resourceType": "Encounter",
      "id": "d9ab46c8-57bf-41c0-b22f-d05b8c66f0f6",
      "meta": {
        "profile": [ "http://hl7.org/fhir/us/qicore/StructureDefinition/qicore-encounter" ]
      },
      "status": "finished",
      "class": {
        "system": "http://terminology.hl7.org/CodeSystem/v3-ActCode",
        "code": "AMB",
        "display": "ambulatory"
      },
      "type": [ {
        "coding": [ {
          "system": "http://snomed.info/sct",
          "code": "185460008",
          "display": "Home visit request by patient (procedure)"
        } ]
      } ],
      "subject": {
        "reference": "Patient/64ba4a87-8cf6-4cfb-b0e7-506dd08c8bbe"
      },
      "period": {
        "start": "2026-01-01T00:00:00.000+00:00",
        "end": "2026-01-01T00:15:00.000+00:00"
      }
    },
    "request": {
      "method": "PUT",
      "url": "Encounter/d9ab46c8-57bf-41c0-b22f-d05b8c66f0f6"
    }
  }, {
    "fullUrl": "https://madie.cms.gov/Condition/b070ee84-1363-45cc-a44a-4b6cdd404482",
    "resource": {
      "resourceType": "Condition",
      "id": "b070ee84-1363-45cc-a44a-4b6cdd404482",
      "meta": {
        "profile": [ "http://hl7.org/fhir/us/qicore/StructureDefinition/qicore-condition-encounter-diagnosis" ]
      },
      "clinicalStatus": {
        "coding": [ {
          "system": "http://terminology.hl7.org/CodeSystem/condition-clinical",
          "code": "active"
        } ]
      },
      "category": [ {
        "coding": [ {
          "system": "http://terminology.hl7.org/CodeSystem/condition-category",
          "code": "encounter-diagnosis",
          "display": "Encounter Diagnosis"
        } ]
      } ],
      "code": {
        "coding": [ {
          "system": "http://snomed.info/sct",
          "code": "102781000119107",
          "display": "Sensory neuropathy due to type 1 diabetes mellitus (disorder)"
        } ]
      },
      "subject": {
        "reference": "Patient/64ba4a87-8cf6-4cfb-b0e7-506dd08c8bbe"
      },
      "onsetDateTime": "2026-01-01T23:59:00.000+00:00"
    },
    "request": {
      "method": "PUT",
      "url": "Condition/b070ee84-1363-45cc-a44a-4b6cdd404482"
    }
  }, {
    "fullUrl": "https://madie.cms.gov/Condition/bfff945c-d37d-4526-b64f-8aadcd53742d",
    "resource": {
      "resourceType": "Condition",
      "id": "bfff945c-d37d-4526-b64f-8aadcd53742d",
      "meta": {
        "profile": [ "http://hl7.org/fhir/us/qicore/StructureDefinition/qicore-condition-problems-health-concerns" ]
      },
      "clinicalStatus": {
        "coding": [ {
          "system": "http://terminology.hl7.org/CodeSystem/condition-clinical",
          "code": "active"
        } ]
      },
      "category": [ {
        "coding": [ {
          "system": "http://terminology.hl7.org/CodeSystem/condition-category",
          "code": "problem-list-item",
          "display": "Problem List Item"
        } ]
      } ],
      "code": {
        "coding": [ {
          "system": "http://snomed.info/sct",
          "code": "170935008",
          "display": "Full care by hospice (finding)"
        } ]
      },
      "subject": {
        "reference": "Patient/64ba4a87-8cf6-4cfb-b0e7-506dd08c8bbe"
      },
      "onsetDateTime": "2026-12-31T23:59:59.000+00:00"
    },
    "request": {
      "method": "PUT",
      "url": "Condition/bfff945c-d37d-4526-b64f-8aadcd53742d"
    }
  }, {
    "fullUrl": "https://madie.cms.gov/MeasureReport/687098af-4e64-45da-86f8-6bb70be03188",
    "resource": {
      "resourceType": "MeasureReport",
      "id": "687098af-4e64-45da-86f8-6bb70be03188",
      "meta": {
        "profile": [ "http://hl7.org/fhir/us/cqfmeasures/StructureDefinition/test-case-cqfm" ]
      },
      "contained": [ {
        "resourceType": "Parameters",
        "id": "c7b80fb3-4e59-4e3b-856a-8098a31d1bad-parameters",
        "parameter": [ {
          "name": "subject",
          "valueString": "64ba4a87-8cf6-4cfb-b0e7-506dd08c8bbe"
        } ]
      } ],
      "extension": [ {
        "url": "http://hl7.org/fhir/StructureDefinition/cqf-inputParameters",
        "valueReference": {
          "reference": "#c7b80fb3-4e59-4e3b-856a-8098a31d1bad-parameters"
        }
      }, {
        "url": "http://hl7.org/fhir/us/cqfmeasures/StructureDefinition/cqfm-testCaseDescription",
        "valueMarkdown": "Hospice diagnosis overlaps MP"
      } ],
      "modifierExtension": [ {
        "url": "http://hl7.org/fhir/us/cqfmeasures/StructureDefinition/cqfm-isTestCase",
        "valueBoolean": true
      } ],
      "status": "complete",
      "type": "individual",
      "measure": "https://madie.cms.gov/Measure/CMS122FHIRDiabetesAssessGT9Pct",
      "period": {
        "start": "2026-01-01",
        "end": "2026-12-31"
      },
      "group": [ {
        "id": "Group_1",
        "population": [ {
          "id": "InitialPopulation_1",
          "code": {
            "coding": [ {
              "system": "http://terminology.hl7.org/CodeSystem/measure-population",
              "code": "initial-population",
              "display": "Initial Population"
            } ]
          },
          "count": 1
        }, {
          "id": "Denominator_1",
          "code": {
            "coding": [ {
              "system": "http://terminology.hl7.org/CodeSystem/measure-population",
              "code": "denominator",
              "display": "Denominator"
            } ]
          },
          "count": 1
        }, {
          "id": "DenominatorExclusion_1",
          "code": {
            "coding": [ {
              "system": "http://terminology.hl7.org/CodeSystem/measure-population",
              "code": "denominator-exclusion",
              "display": "Denominator Exclusion"
            } ]
          },
          "count": 1
        }, {
          "id": "Numerator_1",
          "code": {
            "coding": [ {
              "system": "http://terminology.hl7.org/CodeSystem/measure-population",
              "code": "numerator",
              "display": "Numerator"
            } ]
          },
          "count": 0
        } ],
        "measureScore": {
          "value": 1.0
        }
      } ],
      "evaluatedResource": [ {
        "reference": "Patient/64ba4a87-8cf6-4cfb-b0e7-506dd08c8bbe"
      }, {
        "reference": "Encounter/d9ab46c8-57bf-41c0-b22f-d05b8c66f0f6"
      }, {
        "reference": "Condition/b070ee84-1363-45cc-a44a-4b6cdd404482"
      }, {
        "reference": "Condition/bfff945c-d37d-4526-b64f-8aadcd53742d"
      } ]
    },
    "request": {
      "method": "PUT",
      "url": "MeasureReport/687098af-4e64-45da-86f8-6bb70be03188"
    }
  } ]
}