{
  "resourceType": "Bundle",
  "id": "64945a33d09ece2c2e9bf8ff",
  "type": "collection",
  "entry": [ {
    "fullUrl": "https://madie.cms.gov/Patient/7d2ac41c-0346-43d9-b069-6418679074d5",
    "resource": {
      "resourceType": "Patient",
      "id": "7d2ac41c-0346-43d9-b069-6418679074d5",
      "meta": {
        "profile": [ "http://hl7.org/fhir/us/qicore/StructureDefinition/qicore-patient" ]
      },
      "extension": [ {
        "url": "http://hl7.org/fhir/us/core/StructureDefinition/us-core-race",
        "extension": [ {
          "url": "ombCategory",
          "valueCoding": {
            "system": "urn:oid:2.16.840.1.113883.6.238",
            "code": "2106-3",
            "display": "White",
            "userSelected": true
          }
        }, {
          "url": "text",
          "valueString": "White"
        } ]
      }, {
        "url": "http://hl7.org/fhir/us/core/StructureDefinition/us-core-ethnicity",
        "extension": [ {
          "url": "ombCategory",
          "valueCoding": {
            "system": "urn:oid:2.16.840.1.113883.6.238",
            "code": "2186-5",
            "display": "Not Hispanic or Latino",
            "userSelected": true
          }
        }, {
          "url": "text",
          "valueString": "Not Hispanic or Latino"
        } ]
      } ],
      "identifier": [ {
        "type": {
          "coding": [ {
            "system": "http://terminology.hl7.org/CodeSystem/v2-0203",
            "code": "MR"
          } ]
        },
        "system": "https://bonnie-fhir.healthit.gov/",
        "value": "64945a33d09ece2c2e9bf8ff"
      } ],
      "name": [ {
        "family": "5NumFail",
        "given": [ "EncInMPVLafterMP" ]
      } ],
      "gender": "male",
      "birthDate": "1991-05-08"
    }
  }, {
    "fullUrl": "https://madie.cms.gov/Condition/1090dfac-8ab1-487f-a532-fb31e2ca9588",
    "resource": {
      "resourceType": "Condition",
      "id": "1090dfac-8ab1-487f-a532-fb31e2ca9588",
      "meta": {
        "profile": [ "http://hl7.org/fhir/us/qicore/StructureDefinition/qicore-condition-problems-health-concerns" ]
      },
      "clinicalStatus": {
        "coding": [ {
          "system": "http://terminology.hl7.org/CodeSystem/condition-clinical",
          "code": "active",
          "display": "active",
          "userSelected": true
        } ]
      },
      "category": [ {
        "coding": [ {
          "system": "http://terminology.hl7.org/CodeSystem/condition-category",
          "code": "problem-list-item",
          "display": "Problem List Item"
        } ]
      } ],
      "code": {
        "coding": [ {
          "system": "http://hl7.org/fhir/sid/icd-9-cm",
          "version": "2013",
          "code": "042",
          "display": "Human immunodeficiency virus [HIV] disease",
          "userSelected": true
        } ]
      },
      "subject": {
        "reference": "Patient/7d2ac41c-0346-43d9-b069-6418679074d5"
      },
      "onsetDateTime": "2002-09-08T10:00:00.000+00:00"
    }
  }, {
    "fullUrl": "https://madie.cms.gov/Encounter/7fc4dc74-e478-4f6f-8083-d4f455b1f6de",
    "resource": {
      "resourceType": "Encounter",
      "id": "7fc4dc74-e478-4f6f-8083-d4f455b1f6de",
      "meta": {
        "profile": [ "http://hl7.org/fhir/us/qicore/StructureDefinition/qicore-encounter" ]
      },
      "status": "finished",
      "class": {
        "system": "http://terminology.hl7.org/CodeSystem/v3-ActCode",
        "code": "AMB",
        "display": "ambulatory"
      },
      "type": [ {
        "coding": [ {
          "system": "http://snomed.info/sct",
          "version": "2022-09",
          "code": "281036007",
          "display": "Follow-up consultation (procedure)",
          "userSelected": true
        } ]
      } ],
      "subject": {
        "reference": "Patient/7d2ac41c-0346-43d9-b069-6418679074d5"
      },
      "period": {
        "start": "2026-02-01T08:00:00.000+00:00",
        "end": "2026-02-01T08:35:00.000+00:00"
      }
    }
  }, {
    "fullUrl": "https://madie.cms.gov/Observation/8179de1c-2140-4e83-9450-d49191f1c6ab",
    "resource": {
      "resourceType": "Observation",
      "id": "8179de1c-2140-4e83-9450-d49191f1c6ab",
      "meta": {
        "profile": [ "http://hl7.org/fhir/us/qicore/StructureDefinition/qicore-observation-lab" ]
      },
      "status": "final",
      "category": [ {
        "coding": [ {
          "system": "http://terminology.hl7.org/CodeSystem/observation-category",
          "code": "laboratory",
          "display": "Laboratory"
        } ]
      }, {
        "coding": [ {
          "system": "http://terminology.hl7.org/CodeSystem/observation-category",
          "code": "survey"
        } ]
      } ],
      "code": {
        "coding": [ {
          "system": "http://loinc.org",
          "version": "2.73",
          "code": "10351-5",
          "display": "HIV 1 RNA [Units/volume] (viral load) in Serum or Plasma by Probe with amplification",
          "userSelected": true
        }, {
          "system": "http://loinc.org",
          "code": "21333-0",
          "userSelected": true
        } ]
      },
      "subject": {
        "reference": "Patient/7d2ac41c-0346-43d9-b069-6418679074d5"
      },
      "issued": "2027-02-01T08:00:00.000+00:00",
      "dataAbsentReason": {
        "coding": [ {
          "system": "http://terminology.hl7.org/CodeSystem/data-absent-reason",
          "code": "unknown",
          "display": "Unknown"
        } ]
      }
    }
  }, {
    "fullUrl": "https://madie.cms.gov/Observation/dfb000c3-c3de-4618-a2fe-f41a3da9e873",
    "resource": {
      "resourceType": "Observation",
      "id": "dfb000c3-c3de-4618-a2fe-f41a3da9e873",
      "meta": {
        "profile": [ "http://hl7.org/fhir/us/qicore/StructureDefinition/qicore-observation-lab" ]
      },
      "status": "final",
      "category": [ {
        "coding": [ {
          "system": "http://terminology.hl7.org/CodeSystem/observation-category",
          "code": "laboratory",
          "display": "Laboratory"
        } ]
      }, {
        "coding": [ {
          "system": "http://terminology.hl7.org/CodeSystem/observation-category",
          "code": "survey"
        } ]
      } ],
      "code": {
        "coding": [ {
          "system": "http://loinc.org",
          "version": "2.73",
          "code": "10351-5",
          "display": "HIV 1 RNA [Units/volume] (viral load) in Serum or Plasma by Probe with amplification",
          "userSelected": true
        } ]
      },
      "subject": {
        "reference": "Patient/7d2ac41c-0346-43d9-b069-6418679074d5"
      },
      "issued": "2026-02-01T08:00:00.000+00:00",
      "dataAbsentReason": {
        "coding": [ {
          "system": "http://terminology.hl7.org/CodeSystem/data-absent-reason",
          "code": "unknown",
          "display": "Unknown"
        } ]
      }
    }
  }, {
    "fullUrl": "https://madie.cms.gov/Coverage/b275ddf0-c509-465e-8e99-962f7b9ce466",
    "resource": {
      "resourceType": "Coverage",
      "id": "b275ddf0-c509-465e-8e99-962f7b9ce466",
      "meta": {
        "profile": [ "http://hl7.org/fhir/us/qicore/StructureDefinition/qicore-coverage" ]
      },
      "status": "active",
      "subscriberId": "123456",
      "beneficiary": {
        "reference": "Patient/7d2ac41c-0346-43d9-b069-6418679074d5"
      },
      "relationship": {
        "coding": [ {
          "system": "http://terminology.hl7.org/CodeSystem/subscriber-relationship",
          "code": "self",
          "display": "Self"
        } ]
      },
      "payor": [ {
        "reference": "Organization/9838fc31-8458-4fff-9a59-8f691b6b680d"
      } ]
    }
  }, {
    "fullUrl": "https://madie.cms.gov/Organization/9838fc31-8458-4fff-9a59-8f691b6b680d",
    "resource": {
      "resourceType": "Organization",
      "id": "9838fc31-8458-4fff-9a59-8f691b6b680d",
      "meta": {
        "profile": [ "http://hl7.org/fhir/us/qicore/StructureDefinition/qicore-organization" ]
      },
      "identifier": [ {
        "use": "temp",
        "system": "urn:oid:2.16.840.1.113883.4.4",
        "value": "21-3259825"
      } ],
      "active": true,
      "type": [ {
        "coding": [ {
          "system": "http://terminology.hl7.org/CodeSystem/organization-type",
          "code": "pay",
          "display": "Payer"
        } ]
      } ],
      "name": "Blue Cross Blue Shield of Texas",
      "telecom": [ {
        "system": "phone",
        "value": "(+1) 972-766-6900"
      } ],
      "address": [ {
        "use": "billing",
        "type": "postal",
        "line": [ "P.O. Box 660044" ],
        "city": "Dallas",
        "state": "TX",
        "postalCode": "75266-0044",
        "country": "USA"
      } ]
    }
  }, {
    "fullUrl": "https://madie.cms.gov/Practitioner/18c7382d-c5a3-4a34-a03b-0ac7e42e5412",
    "resource": {
      "resourceType": "Practitioner",
      "id": "18c7382d-c5a3-4a34-a03b-0ac7e42e5412",
      "meta": {
        "profile": [ "http://hl7.org/fhir/us/qicore/StructureDefinition/qicore-practitioner" ]
      },
      "identifier": [ {
        "system": "http://hl7.org/fhir/sid/us-npi",
        "value": "1689411712"
      } ],
      "name": [ {
        "family": "Evil",
        "prefix": [ "Dr" ]
      } ]
    }
  }, {
    "fullUrl": "https://madie.cms.gov/MeasureReport/0f4dfd37-22fc-4adc-b71f-715486d5ebcf",
    "resource": {
      "resourceType": "MeasureReport",
      "id": "0f4dfd37-22fc-4adc-b71f-715486d5ebcf",
      "meta": {
        "profile": [ "http://hl7.org/fhir/us/cqfmeasures/StructureDefinition/test-case-cqfm" ]
      },
      "contained": [ {
        "resourceType": "Parameters",
        "id": "b60cf27a-b9c1-4e78-b333-1657a542c106-parameters",
        "parameter": [ {
          "name": "subject",
          "valueString": "7d2ac41c-0346-43d9-b069-6418679074d5"
        } ]
      } ],
      "extension": [ {
        "url": "http://hl7.org/fhir/StructureDefinition/cqf-inputParameters",
        "valueReference": {
          "reference": "#b60cf27a-b9c1-4e78-b333-1657a542c106-parameters"
        }
      }, {
        "url": "http://hl7.org/fhir/us/cqfmeasures/StructureDefinition/cqfm-testCaseDescription",
        "valueMarkdown": "Patient has an encounter in the MP and the Viral Load Test is on outside edge, after the MP"
      } ],
      "modifierExtension": [ {
        "url": "http://hl7.org/fhir/us/cqfmeasures/StructureDefinition/cqfm-isTestCase",
        "valueBoolean": true
      } ],
      "status": "complete",
      "type": "individual",
      "measure": "https://madie.cms.gov/Measure/CMS1157FHIRHIVRetention",
      "period": {
        "start": "2026-01-01",
        "end": "2026-12-31"
      },
      "group": [ {
        "id": "Group_1",
        "population": [ {
          "id": "InitialPopulation_1",
          "code": {
            "coding": [ {
              "system": "http://terminology.hl7.org/CodeSystem/measure-population",
              "code": "initial-population",
              "display": "Initial Population"
            } ]
          },
          "count": 0
        }, {
          "id": "Denominator_1",
          "code": {
            "coding": [ {
              "system": "http://terminology.hl7.org/CodeSystem/measure-population",
              "code": "denominator",
              "display": "Denominator"
            } ]
          },
          "count": 0
        }, {
          "id": "Numerator_1",
          "code": {
            "coding": [ {
              "system": "http://terminology.hl7.org/CodeSystem/measure-population",
              "code": "numerator",
              "display": "Numerator"
            } ]
          },
          "count": 0
        } ],
        "measureScore": {
          "value": 1.0
        }
      } ],
      "evaluatedResource": [ {
        "reference": "Patient/7d2ac41c-0346-43d9-b069-6418679074d5"
      }, {
        "reference": "Condition/1090dfac-8ab1-487f-a532-fb31e2ca9588"
      }, {
        "reference": "Encounter/7fc4dc74-e478-4f6f-8083-d4f455b1f6de"
      }, {
        "reference": "Observation/8179de1c-2140-4e83-9450-d49191f1c6ab"
      }, {
        "reference": "Observation/dfb000c3-c3de-4618-a2fe-f41a3da9e873"
      }, {
        "reference": "Coverage/b275ddf0-c509-465e-8e99-962f7b9ce466"
      }, {
        "reference": "Organization/9838fc31-8458-4fff-9a59-8f691b6b680d"
      }, {
        "reference": "Practitioner/18c7382d-c5a3-4a34-a03b-0ac7e42e5412"
      } ]
    }
  } ]
}