{
  "resourceType": "Bundle",
  "id": "63487c2f0968f80122540195",
  "type": "transaction",
  "entry": [ {
    "fullUrl": "https://madie.cms.gov/Patient/1ec8fccf-d982-4dcd-a0df-94b9c1150fd6",
    "resource": {
      "resourceType": "Patient",
      "id": "1ec8fccf-d982-4dcd-a0df-94b9c1150fd6",
      "meta": {
        "profile": [ "http://hl7.org/fhir/us/qicore/StructureDefinition/qicore-patient" ]
      },
      "text": {
        "status": "generated",
        "div": "<div xmlns=\"http://www.w3.org/1999/xhtml\"><div class=\"hapiHeaderText\">AssessPerfAbnPresRelDtTimeEQTimeOfDeliv<b>DENEXPASS</b></div><table class=\"hapiPropertyTable\"><tbody><tr><td>Identifier</td><td>026ef11ad83a8a7cf2dd9a5df623df3fb5fe5e8210cfb6bc83e410fca26c8633</td></tr><tr><td>Date of birth</td><td><span>14 February 1985</span></td></tr></tbody></table></div>"
      },
      "extension": [ {
        "url": "http://hl7.org/fhir/us/core/StructureDefinition/us-core-race",
        "extension": [ {
          "url": "ombCategory",
          "valueCoding": {
            "system": "urn:oid:2.16.840.1.113883.6.238",
            "code": "1002-5",
            "display": "American Indian or Alaska Native",
            "userSelected": true
          }
        }, {
          "url": "text",
          "valueString": "American Indian or Alaska Native"
        } ]
      }, {
        "url": "http://hl7.org/fhir/us/core/StructureDefinition/us-core-ethnicity",
        "extension": [ {
          "url": "ombCategory",
          "valueCoding": {
            "system": "urn:oid:2.16.840.1.113883.6.238",
            "code": "2135-2",
            "display": "Hispanic or Latino",
            "userSelected": true
          }
        }, {
          "url": "text",
          "valueString": "Hispanic or Latino"
        } ]
      } ],
      "identifier": [ {
        "type": {
          "coding": [ {
            "system": "http://terminology.hl7.org/CodeSystem/v2-0203",
            "code": "MR"
          } ]
        },
        "system": "https://bonnie-fhir.healthit.gov/",
        "value": "63487c2f0968f80122540195"
      } ],
      "active": true,
      "name": [ {
        "use": "usual",
        "family": "DENEXPass",
        "given": [ "AssessPerfAbnPresRelDtTimeEQTimeOfDeliv" ]
      } ],
      "gender": "female",
      "birthDate": "1998-02-14"
    },
    "request": {
      "method": "PUT",
      "url": "Patient/1ec8fccf-d982-4dcd-a0df-94b9c1150fd6"
    }
  }, {
    "fullUrl": "https://madie.cms.gov/Observation/d7e4538b-fe1b-477f-8aef-a9d4a34df554",
    "resource": {
      "resourceType": "Observation",
      "id": "d7e4538b-fe1b-477f-8aef-a9d4a34df554",
      "meta": {
        "profile": [ "http://hl7.org/fhir/us/qicore/StructureDefinition/qicore-simple-observation" ]
      },
      "status": "final",
      "category": [ {
        "coding": [ {
          "system": "http://terminology.hl7.org/CodeSystem/observation-category",
          "code": "exam",
          "display": "exam",
          "userSelected": true
        } ]
      } ],
      "code": {
        "coding": [ {
          "system": "http://loinc.org",
          "code": "11996-6"
        } ]
      },
      "subject": {
        "reference": "Patient/1ec8fccf-d982-4dcd-a0df-94b9c1150fd6"
      },
      "effectiveDateTime": "2026-06-08T08:00:00.000+00:00",
      "performer": [ {
        "reference": "Organization/example1",
        "display": "Hendricks Country Hospital"
      } ],
      "valueInteger": 1
    },
    "request": {
      "method": "PUT",
      "url": "Observation/d7e4538b-fe1b-477f-8aef-a9d4a34df554"
    }
  }, {
    "fullUrl": "https://madie.cms.gov/Observation/4a3217d4-0d83-4d76-91ed-edff276d32c2",
    "resource": {
      "resourceType": "Observation",
      "id": "4a3217d4-0d83-4d76-91ed-edff276d32c2",
      "meta": {
        "profile": [ "http://hl7.org/fhir/us/qicore/StructureDefinition/qicore-simple-observation" ]
      },
      "status": "final",
      "category": [ {
        "coding": [ {
          "system": "http://terminology.hl7.org/CodeSystem/observation-category",
          "code": "exam",
          "display": "exam",
          "userSelected": true
        } ]
      } ],
      "code": {
        "coding": [ {
          "system": "http://loinc.org",
          "code": "11884-4"
        } ]
      },
      "subject": {
        "reference": "Patient/1ec8fccf-d982-4dcd-a0df-94b9c1150fd6"
      },
      "effectiveDateTime": "2026-06-08T08:00:00.000+00:00",
      "performer": [ {
        "reference": "Organization/example1",
        "display": "Hendricks Country Hospital"
      } ],
      "valueQuantity": {
        "value": 43,
        "system": "http://unitsofmeasure.org",
        "code": "wk"
      }
    },
    "request": {
      "method": "PUT",
      "url": "Observation/4a3217d4-0d83-4d76-91ed-edff276d32c2"
    }
  }, {
    "fullUrl": "https://madie.cms.gov/Observation/d2ec7fb0-c9a0-465a-a985-670f87d7acbb",
    "resource": {
      "resourceType": "Observation",
      "id": "d2ec7fb0-c9a0-465a-a985-670f87d7acbb",
      "meta": {
        "profile": [ "http://hl7.org/fhir/us/qicore/StructureDefinition/qicore-simple-observation" ]
      },
      "status": "final",
      "category": [ {
        "coding": [ {
          "system": "http://terminology.hl7.org/CodeSystem/observation-category",
          "code": "exam",
          "display": "exam",
          "userSelected": true
        } ]
      } ],
      "code": {
        "coding": [ {
          "system": "http://loinc.org",
          "code": "93857-1"
        } ]
      },
      "subject": {
        "reference": "Patient/1ec8fccf-d982-4dcd-a0df-94b9c1150fd6"
      },
      "effectiveDateTime": "2026-06-08T20:00:00.000+00:00",
      "performer": [ {
        "reference": "Organization/example1",
        "display": "Hendricks Country Hospital"
      } ],
      "valueDateTime": "2026-06-08T20:00:00.000+00:00"
    },
    "request": {
      "method": "PUT",
      "url": "Observation/d2ec7fb0-c9a0-465a-a985-670f87d7acbb"
    }
  }, {
    "fullUrl": "https://madie.cms.gov/Observation/fa735a6b-1bf7-4f15-8053-8e5fcee02264",
    "resource": {
      "resourceType": "Observation",
      "id": "fa735a6b-1bf7-4f15-8053-8e5fcee02264",
      "meta": {
        "profile": [ "http://hl7.org/fhir/us/qicore/StructureDefinition/qicore-simple-observation" ]
      },
      "status": "final",
      "category": [ {
        "coding": [ {
          "system": "http://terminology.hl7.org/CodeSystem/observation-category",
          "code": "exam",
          "display": "exam",
          "userSelected": true
        } ]
      } ],
      "code": {
        "coding": [ {
          "system": "http://snomed.info/sct",
          "code": "18559007"
        } ]
      },
      "subject": {
        "reference": "Patient/1ec8fccf-d982-4dcd-a0df-94b9c1150fd6"
      },
      "effectiveDateTime": "2026-06-08T20:00:00.000+00:00",
      "performer": [ {
        "reference": "Organization/example1",
        "display": "Hendricks Country Hospital"
      } ]
    },
    "request": {
      "method": "PUT",
      "url": "Observation/fa735a6b-1bf7-4f15-8053-8e5fcee02264"
    }
  }, {
    "fullUrl": "https://madie.cms.gov/Encounter/354b7701-acbb-4e01-adcd-a16910a4325a",
    "resource": {
      "resourceType": "Encounter",
      "id": "354b7701-acbb-4e01-adcd-a16910a4325a",
      "meta": {
        "profile": [ "http://hl7.org/fhir/us/qicore/StructureDefinition/qicore-encounter" ]
      },
      "status": "finished",
      "class": {
        "system": "http://terminology.hl7.org/CodeSystem/v3-ActCode",
        "code": "IMP",
        "display": "inpatient encounter"
      },
      "type": [ {
        "coding": [ {
          "system": "http://snomed.info/sct",
          "code": "8715000"
        } ]
      } ],
      "subject": {
        "reference": "Patient/1ec8fccf-d982-4dcd-a0df-94b9c1150fd6"
      },
      "period": {
        "start": "2026-06-08T08:00:00.000+00:00",
        "end": "2026-06-10T08:15:00.000+00:00"
      },
      "reasonCode": [ {
        "coding": [ {
          "system": "http://snomed.info/sct",
          "code": "169826009",
          "display": "Single live birth from singleton pregnancy (finding)"
        } ]
      } ],
      "reasonReference": [ {
        "reference": "Condition/360ab6f4-7c6c-43b7-9c06-2e00a0e87f43"
      } ]
    },
    "request": {
      "method": "PUT",
      "url": "Encounter/354b7701-acbb-4e01-adcd-a16910a4325a"
    }
  }, {
    "fullUrl": "https://madie.cms.gov/Procedure/2130b59a-6813-4e96-a2b7-019b0284777e",
    "resource": {
      "resourceType": "Procedure",
      "id": "2130b59a-6813-4e96-a2b7-019b0284777e",
      "meta": {
        "profile": [ "http://hl7.org/fhir/us/qicore/StructureDefinition/qicore-procedure" ]
      },
      "extension": [ {
        "url": "http://hl7.org/fhir/us/qicore/StructureDefinition/qicore-recorded",
        "valueDateTime": "2014-04-05T13:35:00.000+00:00"
      } ],
      "status": "completed",
      "code": {
        "coding": [ {
          "system": "http://www.cms.gov/Medicare/Coding/ICD10",
          "code": "10D00Z0"
        } ]
      },
      "subject": {
        "reference": "Patient/1ec8fccf-d982-4dcd-a0df-94b9c1150fd6"
      },
      "performedDateTime": "2026-06-08T08:00:00.000+00:00"
    },
    "request": {
      "method": "PUT",
      "url": "Procedure/2130b59a-6813-4e96-a2b7-019b0284777e"
    }
  }, {
    "fullUrl": "https://madie.cms.gov/Condition/360ab6f4-7c6c-43b7-9c06-2e00a0e87f43",
    "resource": {
      "resourceType": "Condition",
      "id": "360ab6f4-7c6c-43b7-9c06-2e00a0e87f43",
      "meta": {
        "profile": [ "http://hl7.org/fhir/us/qicore/StructureDefinition/qicore-condition-encounter-diagnosis" ]
      },
      "category": [ {
        "coding": [ {
          "system": "http://terminology.hl7.org/CodeSystem/condition-category",
          "code": "encounter-diagnosis",
          "display": "Encounter Diagnosis"
        } ]
      } ],
      "code": {
        "coding": [ {
          "system": "http://snomed.info/sct",
          "code": "18559007",
          "display": "Frank breech presentation (finding)",
          "userSelected": true
        } ]
      },
      "subject": {
        "reference": "Patient/1ec8fccf-d982-4dcd-a0df-94b9c1150fd6"
      },
      "encounter": {
        "reference": "Encounter/354b7701-acbb-4e01-adcd-a16910a4325a"
      },
      "recordedDate": "2026-10-17T08:00:00.000+00:00"
    },
    "request": {
      "method": "PUT",
      "url": "Condition/360ab6f4-7c6c-43b7-9c06-2e00a0e87f43"
    }
  }, {
    "fullUrl": "https://madie.cms.gov/Coverage/55a0013e-ba35-4456-9393-611446faac98",
    "resource": {
      "resourceType": "Coverage",
      "id": "55a0013e-ba35-4456-9393-611446faac98",
      "meta": {
        "profile": [ "http://hl7.org/fhir/us/qicore/StructureDefinition/qicore-coverage" ]
      },
      "status": "active",
      "subscriberId": "523435",
      "beneficiary": {
        "reference": "Patient/1ec8fccf-d982-4dcd-a0df-94b9c1150fd6"
      },
      "relationship": {
        "coding": [ {
          "system": "http://terminology.hl7.org/CodeSystem/subscriber-relationship",
          "code": "self"
        } ]
      },
      "payor": [ {
        "reference": "Organization/d6943802-ffab-4aee-973d-1780a88682c4"
      } ]
    },
    "request": {
      "method": "PUT",
      "url": "Coverage/55a0013e-ba35-4456-9393-611446faac98"
    }
  }, {
    "fullUrl": "https://madie.cms.gov/Organization/d6943802-ffab-4aee-973d-1780a88682c4",
    "resource": {
      "resourceType": "Organization",
      "id": "d6943802-ffab-4aee-973d-1780a88682c4",
      "meta": {
        "profile": [ "http://hl7.org/fhir/us/qicore/StructureDefinition/qicore-organization" ]
      },
      "identifier": [ {
        "use": "temp",
        "system": "urn:oid:2.16.840.1.113883.4.4",
        "value": "21-3259825"
      } ],
      "active": true,
      "type": [ {
        "coding": [ {
          "system": "http://terminology.hl7.org/CodeSystem/organization-type",
          "code": "pay",
          "display": "Payer"
        } ]
      } ],
      "name": "Blue Cross Blue Shield of Texas",
      "telecom": [ {
        "system": "phone",
        "value": "(+1) 972-766-6900"
      } ],
      "address": [ {
        "use": "billing",
        "type": "postal",
        "line": [ "P.O. Box 660044" ],
        "city": "Dallas",
        "state": "TX",
        "postalCode": "75266-0044",
        "country": "USA"
      } ]
    },
    "request": {
      "method": "PUT",
      "url": "Organization/d6943802-ffab-4aee-973d-1780a88682c4"
    }
  }, {
    "fullUrl": "https://madie.cms.gov/Practitioner/26cfdb44-82d1-4aeb-9590-5ad3ff5260e8",
    "resource": {
      "resourceType": "Practitioner",
      "id": "26cfdb44-82d1-4aeb-9590-5ad3ff5260e8",
      "meta": {
        "profile": [ "http://hl7.org/fhir/us/qicore/StructureDefinition/qicore-practitioner" ]
      },
      "identifier": [ {
        "system": "http://hl7.org/fhir/sid/us-npi",
        "value": "1234567890"
      } ],
      "name": [ {
        "family": "Evil",
        "prefix": [ "Dr" ]
      } ]
    },
    "request": {
      "method": "PUT",
      "url": "Practitioner/26cfdb44-82d1-4aeb-9590-5ad3ff5260e8"
    }
  }, {
    "fullUrl": "https://madie.cms.gov/MeasureReport/0f418e6a-dfef-4930-8b6a-7455ac42bc4e",
    "resource": {
      "resourceType": "MeasureReport",
      "id": "0f418e6a-dfef-4930-8b6a-7455ac42bc4e",
      "meta": {
        "profile": [ "http://hl7.org/fhir/us/cqfmeasures/StructureDefinition/test-case-cqfm" ]
      },
      "contained": [ {
        "resourceType": "Parameters",
        "id": "418f863d-8150-458d-ab44-6364d3c8cf59-parameters",
        "parameter": [ {
          "name": "subject",
          "valueString": "1ec8fccf-d982-4dcd-a0df-94b9c1150fd6"
        } ]
      } ],
      "extension": [ {
        "url": "http://hl7.org/fhir/StructureDefinition/cqf-inputParameters",
        "valueReference": {
          "reference": "#418f863d-8150-458d-ab44-6364d3c8cf59-parameters"
        }
      }, {
        "url": "http://hl7.org/fhir/us/cqfmeasures/StructureDefinition/cqfm-testCaseDescription",
        "valueMarkdown": "EGA 43 weeks; Assessment performed Abnormal presentation Relevant Dt/time equal the Date time of obstetric delivery , gravida 1, \n"
      } ],
      "modifierExtension": [ {
        "url": "http://hl7.org/fhir/us/cqfmeasures/StructureDefinition/cqfm-isTestCase",
        "valueBoolean": true
      } ],
      "status": "complete",
      "type": "individual",
      "measure": "https://madie.cms.gov/Measure/CMS0334FHIRPCCesareanBirth",
      "period": {
        "start": "2026-01-01",
        "end": "2026-12-31"
      },
      "group": [ {
        "id": "Group_1",
        "population": [ {
          "id": "InitialPopulation_1",
          "code": {
            "coding": [ {
              "system": "http://terminology.hl7.org/CodeSystem/measure-population",
              "code": "initial-population",
              "display": "Initial Population"
            } ]
          },
          "count": 1
        }, {
          "id": "Denominator_1",
          "code": {
            "coding": [ {
              "system": "http://terminology.hl7.org/CodeSystem/measure-population",
              "code": "denominator",
              "display": "Denominator"
            } ]
          },
          "count": 1
        }, {
          "id": "DenominatorExclusion_1",
          "code": {
            "coding": [ {
              "system": "http://terminology.hl7.org/CodeSystem/measure-population",
              "code": "denominator-exclusion",
              "display": "Denominator Exclusion"
            } ]
          },
          "count": 1
        }, {
          "id": "Numerator_1",
          "code": {
            "coding": [ {
              "system": "http://terminology.hl7.org/CodeSystem/measure-population",
              "code": "numerator",
              "display": "Numerator"
            } ]
          },
          "count": 0
        } ],
        "measureScore": {
          "value": 0.0
        }
      } ],
      "evaluatedResource": [ {
        "reference": "Patient/1ec8fccf-d982-4dcd-a0df-94b9c1150fd6"
      }, {
        "reference": "Observation/d7e4538b-fe1b-477f-8aef-a9d4a34df554"
      }, {
        "reference": "Observation/4a3217d4-0d83-4d76-91ed-edff276d32c2"
      }, {
        "reference": "Observation/d2ec7fb0-c9a0-465a-a985-670f87d7acbb"
      }, {
        "reference": "Observation/fa735a6b-1bf7-4f15-8053-8e5fcee02264"
      }, {
        "reference": "Encounter/354b7701-acbb-4e01-adcd-a16910a4325a"
      }, {
        "reference": "Procedure/2130b59a-6813-4e96-a2b7-019b0284777e"
      }, {
        "reference": "Condition/360ab6f4-7c6c-43b7-9c06-2e00a0e87f43"
      }, {
        "reference": "Coverage/55a0013e-ba35-4456-9393-611446faac98"
      }, {
        "reference": "Organization/d6943802-ffab-4aee-973d-1780a88682c4"
      }, {
        "reference": "Practitioner/26cfdb44-82d1-4aeb-9590-5ad3ff5260e8"
      } ]
    },
    "request": {
      "method": "PUT",
      "url": "MeasureReport/0f418e6a-dfef-4930-8b6a-7455ac42bc4e"
    }
  } ]
}