{
  "resourceType": "Bundle",
  "id": "NUMERFail-FSAWithNoResults",
  "type": "collection",
  "entry": [ {
    "fullUrl": "https://madie.cms.gov/Patient/f314099b-620e-45fe-a8c3-5183afc8772d",
    "resource": {
      "resourceType": "Patient",
      "id": "f314099b-620e-45fe-a8c3-5183afc8772d",
      "meta": {
        "profile": [ "http://hl7.org/fhir/us/qicore/StructureDefinition/qicore-patient" ]
      },
      "extension": [ {
        "url": "http://hl7.org/fhir/us/core/StructureDefinition/us-core-race",
        "extension": [ {
          "url": "ombCategory",
          "valueCoding": {
            "system": "urn:oid:2.16.840.1.113883.6.238",
            "code": "2028-9",
            "display": "Asian"
          }
        }, {
          "url": "text",
          "valueString": "Asian"
        } ]
      }, {
        "url": "http://hl7.org/fhir/us/core/StructureDefinition/us-core-ethnicity",
        "extension": [ {
          "url": "ombCategory",
          "valueCoding": {
            "system": "urn:oid:2.16.840.1.113883.6.238",
            "code": "2135-2",
            "display": "Hispanic or Latino"
          }
        }, {
          "url": "text",
          "valueString": "Hispanic or Latino"
        } ]
      } ],
      "identifier": [ {
        "system": "http://hospital.smarthealthit.org",
        "value": "999999995"
      } ],
      "name": [ {
        "family": "Bertha",
        "given": [ "Betty" ]
      } ],
      "gender": "female",
      "birthDate": "2008-01-01"
    }
  }, {
    "fullUrl": "https://madie.cms.gov/Encounter/5e85ea33-4eb7-401c-aaf8-0792058bd90e",
    "resource": {
      "resourceType": "Encounter",
      "id": "5e85ea33-4eb7-401c-aaf8-0792058bd90e",
      "meta": {
        "profile": [ "http://hl7.org/fhir/us/qicore/StructureDefinition/qicore-encounter" ]
      },
      "status": "finished",
      "class": {
        "system": "http://terminology.hl7.org/CodeSystem/v3-ActCode",
        "code": "AMB",
        "display": "ambulatory"
      },
      "type": [ {
        "coding": [ {
          "system": "http://snomed.info/sct",
          "code": "185317003",
          "display": "Telephone encounter (procedure)"
        } ]
      } ],
      "subject": {
        "reference": "Patient/f314099b-620e-45fe-a8c3-5183afc8772d"
      },
      "period": {
        "start": "2026-01-01T01:00:00.000+00:00",
        "end": "2026-01-01T01:15:00.000+00:00"
      }
    }
  }, {
    "fullUrl": "https://madie.cms.gov/Encounter/f15a4f98-8d10-4fa7-8965-ba8d2b165a68",
    "resource": {
      "resourceType": "Encounter",
      "id": "f15a4f98-8d10-4fa7-8965-ba8d2b165a68",
      "meta": {
        "profile": [ "http://hl7.org/fhir/us/qicore/StructureDefinition/qicore-encounter" ]
      },
      "status": "finished",
      "class": {
        "system": "http://terminology.hl7.org/CodeSystem/v3-ActCode",
        "code": "AMB",
        "display": "ambulatory"
      },
      "type": [ {
        "coding": [ {
          "system": "http://snomed.info/sct",
          "code": "185317003",
          "display": "Telephone encounter (procedure)"
        } ]
      } ],
      "subject": {
        "reference": "Patient/f314099b-620e-45fe-a8c3-5183afc8772d"
      },
      "period": {
        "start": "2026-01-02T01:00:00.000+00:00",
        "end": "2026-01-02T01:15:00.000+00:00"
      }
    }
  }, {
    "fullUrl": "https://madie.cms.gov/Condition/5293c87c-8bff-4b2d-bcf5-4a0061684a59",
    "resource": {
      "resourceType": "Condition",
      "id": "5293c87c-8bff-4b2d-bcf5-4a0061684a59",
      "meta": {
        "profile": [ "http://hl7.org/fhir/us/qicore/StructureDefinition/qicore-condition-problems-health-concerns" ]
      },
      "clinicalStatus": {
        "coding": [ {
          "system": "http://terminology.hl7.org/CodeSystem/condition-clinical",
          "code": "active"
        } ]
      },
      "category": [ {
        "coding": [ {
          "system": "http://terminology.hl7.org/CodeSystem/condition-category",
          "code": "problem-list-item",
          "display": "Problem List Item"
        } ]
      } ],
      "code": {
        "coding": [ {
          "system": "http://snomed.info/sct",
          "version": "http://snomed.info/sct/731000124108/version/20250301",
          "code": "10091002",
          "display": "High output heart failure (disorder)"
        } ]
      },
      "subject": {
        "reference": "Patient/f314099b-620e-45fe-a8c3-5183afc8772d"
      },
      "onsetDateTime": "2025-12-31T23:59:00.000+00:00"
    }
  }, {
    "fullUrl": "https://madie.cms.gov/Observation/ccb83de4-1746-4eee-b4b3-2340c7df1c01",
    "resource": {
      "resourceType": "Observation",
      "id": "ccb83de4-1746-4eee-b4b3-2340c7df1c01",
      "meta": {
        "profile": [ "http://hl7.org/fhir/us/qicore/StructureDefinition/qicore-observation-screening-assessment" ]
      },
      "status": "corrected",
      "category": [ {
        "coding": [ {
          "system": "http://terminology.hl7.org/CodeSystem/observation-category",
          "code": "laboratory"
        } ]
      }, {
        "coding": [ {
          "system": "http://terminology.hl7.org/CodeSystem/observation-category",
          "code": "survey"
        } ]
      } ],
      "code": {
        "coding": [ {
          "system": "http://loinc.org",
          "code": "71969-0",
          "display": "PROMIS-10 Global Mental Health (GMH) score T-score"
        } ]
      },
      "subject": {
        "reference": "Patient/f314099b-620e-45fe-a8c3-5183afc8772d"
      },
      "effectivePeriod": {
        "start": "2021-12-31T23:00:00.000+00:00",
        "end": "2021-12-31T23:59:00.000+00:00"
      },
      "valueCodeableConcept": {
        "coding": [ {
          "system": "http://snomed.info/sct",
          "code": "373066001",
          "display": "Yes (qualifier value)"
        } ]
      }
    }
  }, {
    "fullUrl": "https://madie.cms.gov/Observation/3cd124aa-180c-421b-ae2f-95ac3bdfcaa1",
    "resource": {
      "resourceType": "Observation",
      "id": "3cd124aa-180c-421b-ae2f-95ac3bdfcaa1",
      "meta": {
        "profile": [ "http://hl7.org/fhir/us/qicore/StructureDefinition/qicore-observation-screening-assessment" ]
      },
      "status": "corrected",
      "category": [ {
        "coding": [ {
          "system": "http://terminology.hl7.org/CodeSystem/observation-category",
          "code": "laboratory"
        } ]
      }, {
        "coding": [ {
          "system": "http://terminology.hl7.org/CodeSystem/observation-category",
          "code": "survey"
        } ]
      } ],
      "code": {
        "coding": [ {
          "system": "http://loinc.org",
          "code": "71971-6",
          "display": "PROMIS-10 Global Physical Health (GPH) score T-score"
        } ]
      },
      "subject": {
        "reference": "Patient/f314099b-620e-45fe-a8c3-5183afc8772d"
      },
      "effectivePeriod": {
        "start": "2021-12-31T23:00:00.000+00:00",
        "end": "2021-12-31T23:59:00.000+00:00"
      },
      "valueCodeableConcept": {
        "coding": [ {
          "system": "http://snomed.info/sct",
          "code": "373066001",
          "display": "Yes (qualifier value)"
        } ]
      }
    }
  }, {
    "fullUrl": "https://madie.cms.gov/Observation/9bc34ede-a6b7-429c-a4ef-852aedd798a7",
    "resource": {
      "resourceType": "Observation",
      "id": "9bc34ede-a6b7-429c-a4ef-852aedd798a7",
      "meta": {
        "profile": [ "http://hl7.org/fhir/us/qicore/StructureDefinition/qicore-observation-screening-assessment" ]
      },
      "status": "corrected",
      "category": [ {
        "coding": [ {
          "system": "http://terminology.hl7.org/CodeSystem/observation-category",
          "code": "laboratory"
        } ]
      }, {
        "coding": [ {
          "system": "http://terminology.hl7.org/CodeSystem/observation-category",
          "code": "survey"
        } ]
      } ],
      "code": {
        "coding": [ {
          "system": "http://loinc.org",
          "code": "71969-0",
          "display": "PROMIS-10 Global Mental Health (GMH) score T-score"
        } ]
      },
      "subject": {
        "reference": "Patient/f314099b-620e-45fe-a8c3-5183afc8772d"
      },
      "effectivePeriod": {
        "start": "2026-04-05T23:00:00.000+00:00",
        "end": "2026-04-05T23:59:00.000+00:00"
      },
      "valueCodeableConcept": {
        "coding": [ {
          "system": "http://snomed.info/sct",
          "code": "373066001",
          "display": "Yes (qualifier value)"
        } ]
      }
    }
  }, {
    "fullUrl": "https://madie.cms.gov/Observation/4fd3688c-eb14-4911-b86f-78aa6efd7e3d",
    "resource": {
      "resourceType": "Observation",
      "id": "4fd3688c-eb14-4911-b86f-78aa6efd7e3d",
      "meta": {
        "profile": [ "http://hl7.org/fhir/us/qicore/StructureDefinition/qicore-observation-screening-assessment" ]
      },
      "status": "corrected",
      "category": [ {
        "coding": [ {
          "system": "http://terminology.hl7.org/CodeSystem/observation-category",
          "code": "laboratory"
        } ]
      }, {
        "coding": [ {
          "system": "http://terminology.hl7.org/CodeSystem/observation-category",
          "code": "survey"
        } ]
      } ],
      "code": {
        "coding": [ {
          "system": "http://loinc.org",
          "code": "71971-6",
          "display": "PROMIS-10 Global Physical Health (GPH) score T-score"
        } ]
      },
      "subject": {
        "reference": "Patient/f314099b-620e-45fe-a8c3-5183afc8772d"
      },
      "effectivePeriod": {
        "start": "2021-12-31T23:00:00.000+00:00",
        "end": "2021-12-31T23:59:00.000+00:00"
      },
      "valueCodeableConcept": {
        "coding": [ {
          "system": "http://snomed.info/sct",
          "code": "373066001",
          "display": "Yes (qualifier value)"
        } ]
      }
    }
  }, {
    "fullUrl": "https://madie.cms.gov/MeasureReport/d5d7d253-a658-46bf-9e08-e02e25b1221e",
    "resource": {
      "resourceType": "MeasureReport",
      "id": "d5d7d253-a658-46bf-9e08-e02e25b1221e",
      "meta": {
        "profile": [ "http://hl7.org/fhir/us/cqfmeasures/StructureDefinition/test-case-cqfm" ]
      },
      "contained": [ {
        "resourceType": "Parameters",
        "id": "cb1b5d75-75e0-4e26-8d76-d43260a23df9-parameters",
        "parameter": [ {
          "name": "subject",
          "valueString": "f314099b-620e-45fe-a8c3-5183afc8772d"
        } ]
      } ],
      "extension": [ {
        "url": "http://hl7.org/fhir/StructureDefinition/cqf-inputParameters",
        "valueReference": {
          "reference": "#cb1b5d75-75e0-4e26-8d76-d43260a23df9-parameters"
        }
      }, {
        "url": "http://hl7.org/fhir/us/cqfmeasures/StructureDefinition/cqfm-testCaseDescription",
        "valueMarkdown": "FSA with no result"
      } ],
      "modifierExtension": [ {
        "url": "http://hl7.org/fhir/us/cqfmeasures/StructureDefinition/cqfm-isTestCase",
        "valueBoolean": true
      } ],
      "status": "complete",
      "type": "individual",
      "measure": "https://madie.cms.gov/Measure/CMS90FHIRFSAforHeartFailure",
      "period": {
        "start": "2026-01-01",
        "end": "2026-12-31"
      },
      "group": [ {
        "id": "Group_1",
        "population": [ {
          "id": "InitialPopulation_1",
          "code": {
            "coding": [ {
              "system": "http://terminology.hl7.org/CodeSystem/measure-population",
              "code": "initial-population",
              "display": "Initial Population"
            } ]
          },
          "count": 1
        }, {
          "id": "Denominator_1",
          "code": {
            "coding": [ {
              "system": "http://terminology.hl7.org/CodeSystem/measure-population",
              "code": "denominator",
              "display": "Denominator"
            } ]
          },
          "count": 1
        }, {
          "id": "DenominatorExclusion_1",
          "code": {
            "coding": [ {
              "system": "http://terminology.hl7.org/CodeSystem/measure-population",
              "code": "denominator-exclusion",
              "display": "Denominator Exclusion"
            } ]
          },
          "count": 0
        }, {
          "id": "Numerator_1",
          "code": {
            "coding": [ {
              "system": "http://terminology.hl7.org/CodeSystem/measure-population",
              "code": "numerator",
              "display": "Numerator"
            } ]
          },
          "count": 0
        } ],
        "measureScore": {
          "value": 1.0
        }
      } ],
      "evaluatedResource": [ {
        "reference": "Patient/f314099b-620e-45fe-a8c3-5183afc8772d"
      }, {
        "reference": "Encounter/5e85ea33-4eb7-401c-aaf8-0792058bd90e"
      }, {
        "reference": "Encounter/f15a4f98-8d10-4fa7-8965-ba8d2b165a68"
      }, {
        "reference": "Condition/5293c87c-8bff-4b2d-bcf5-4a0061684a59"
      }, {
        "reference": "Observation/ccb83de4-1746-4eee-b4b3-2340c7df1c01"
      }, {
        "reference": "Observation/3cd124aa-180c-421b-ae2f-95ac3bdfcaa1"
      }, {
        "reference": "Observation/9bc34ede-a6b7-429c-a4ef-852aedd798a7"
      }, {
        "reference": "Observation/4fd3688c-eb14-4911-b86f-78aa6efd7e3d"
      } ]
    }
  } ]
}