{
  "resourceType": "Bundle",
  "id": "63487c2e0968f8012254018c",
  "type": "transaction",
  "entry": [ {
    "fullUrl": "https://madie.cms.gov/Patient/194c8f74-f131-4d08-aff3-e9740333e874",
    "resource": {
      "resourceType": "Patient",
      "id": "194c8f74-f131-4d08-aff3-e9740333e874",
      "meta": {
        "profile": [ "http://hl7.org/fhir/us/qicore/StructureDefinition/qicore-patient" ]
      },
      "text": {
        "status": "generated",
        "div": "<div xmlns=\"http://www.w3.org/1999/xhtml\"><div class=\"hapiHeaderText\">AssessGARelDtTimeLT24HourB4TimeOfDeliv <b>DENPASS </b></div><table class=\"hapiPropertyTable\"><tbody><tr><td>Identifier</td><td>d274dc96f6308f67a52f29a83387fce6248cd6fafffcbb90145ed6c834e32b90</td></tr><tr><td>Date of birth</td><td><span>14 February 1985</span></td></tr></tbody></table></div>"
      },
      "extension": [ {
        "url": "http://hl7.org/fhir/us/core/StructureDefinition/us-core-race",
        "extension": [ {
          "url": "ombCategory",
          "valueCoding": {
            "system": "urn:oid:2.16.840.1.113883.6.238",
            "code": "1002-5",
            "display": "American Indian or Alaska Native",
            "userSelected": true
          }
        }, {
          "url": "text",
          "valueString": "American Indian or Alaska Native"
        } ]
      }, {
        "url": "http://hl7.org/fhir/us/core/StructureDefinition/us-core-ethnicity",
        "extension": [ {
          "url": "ombCategory",
          "valueCoding": {
            "system": "urn:oid:2.16.840.1.113883.6.238",
            "code": "2135-2",
            "display": "Hispanic or Latino",
            "userSelected": true
          }
        }, {
          "url": "text",
          "valueString": "Hispanic or Latino"
        } ]
      } ],
      "identifier": [ {
        "type": {
          "coding": [ {
            "system": "http://terminology.hl7.org/CodeSystem/v2-0203",
            "code": "MR"
          } ]
        },
        "system": "https://bonnie-fhir.healthit.gov/",
        "value": "63487c2e0968f8012254018c"
      } ],
      "active": true,
      "name": [ {
        "use": "usual",
        "family": "DENPass",
        "given": [ "AssessGARelDtTimeLT24HourB4TimeOfDeliv" ]
      } ],
      "gender": "female",
      "birthDate": "1998-02-14"
    },
    "request": {
      "method": "PUT",
      "url": "Patient/194c8f74-f131-4d08-aff3-e9740333e874"
    }
  }, {
    "fullUrl": "https://madie.cms.gov/Observation/c3a287f4-e2f6-4096-bfb2-3119a4878c25",
    "resource": {
      "resourceType": "Observation",
      "id": "c3a287f4-e2f6-4096-bfb2-3119a4878c25",
      "meta": {
        "profile": [ "http://hl7.org/fhir/us/qicore/StructureDefinition/qicore-simple-observation" ]
      },
      "status": "final",
      "category": [ {
        "coding": [ {
          "system": "http://terminology.hl7.org/CodeSystem/observation-category",
          "code": "exam",
          "display": "exam",
          "userSelected": true
        } ]
      } ],
      "code": {
        "coding": [ {
          "system": "http://loinc.org",
          "code": "11884-4"
        } ]
      },
      "subject": {
        "reference": "Patient/194c8f74-f131-4d08-aff3-e9740333e874"
      },
      "effectiveDateTime": "2026-06-07T11:59:00.000+00:00",
      "valueQuantity": {
        "value": 37,
        "system": "http://unitsofmeasure.org",
        "code": "wk"
      }
    },
    "request": {
      "method": "PUT",
      "url": "Observation/c3a287f4-e2f6-4096-bfb2-3119a4878c25"
    }
  }, {
    "fullUrl": "https://madie.cms.gov/Observation/6e975d08-ebaa-4f03-918b-e77495a7e915",
    "resource": {
      "resourceType": "Observation",
      "id": "6e975d08-ebaa-4f03-918b-e77495a7e915",
      "meta": {
        "profile": [ "http://hl7.org/fhir/us/qicore/StructureDefinition/qicore-simple-observation" ]
      },
      "status": "final",
      "category": [ {
        "coding": [ {
          "system": "http://terminology.hl7.org/CodeSystem/observation-category",
          "code": "exam",
          "display": "exam",
          "userSelected": true
        } ]
      } ],
      "code": {
        "coding": [ {
          "system": "http://loinc.org",
          "code": "11996-6"
        } ]
      },
      "subject": {
        "reference": "Patient/194c8f74-f131-4d08-aff3-e9740333e874"
      },
      "effectiveDateTime": "2026-06-08T08:00:00.000+00:00",
      "valueInteger": 1
    },
    "request": {
      "method": "PUT",
      "url": "Observation/6e975d08-ebaa-4f03-918b-e77495a7e915"
    }
  }, {
    "fullUrl": "https://madie.cms.gov/Observation/40250bd0-0e4d-4c08-b299-781384a1f4fc",
    "resource": {
      "resourceType": "Observation",
      "id": "40250bd0-0e4d-4c08-b299-781384a1f4fc",
      "meta": {
        "profile": [ "http://hl7.org/fhir/us/qicore/StructureDefinition/qicore-simple-observation" ]
      },
      "status": "final",
      "category": [ {
        "coding": [ {
          "system": "http://terminology.hl7.org/CodeSystem/observation-category",
          "code": "exam",
          "display": "exam",
          "userSelected": true
        } ]
      } ],
      "code": {
        "coding": [ {
          "system": "http://loinc.org",
          "code": "93857-1"
        } ]
      },
      "subject": {
        "reference": "Patient/194c8f74-f131-4d08-aff3-e9740333e874"
      },
      "effectiveDateTime": "2026-06-08T09:15:00.000+00:00",
      "valueDateTime": "2026-06-08T09:15:00.000+00:00"
    },
    "request": {
      "method": "PUT",
      "url": "Observation/40250bd0-0e4d-4c08-b299-781384a1f4fc"
    }
  }, {
    "fullUrl": "https://madie.cms.gov/Encounter/6311e249-2014-46e9-a20c-3d9f71ec7427",
    "resource": {
      "resourceType": "Encounter",
      "id": "6311e249-2014-46e9-a20c-3d9f71ec7427",
      "meta": {
        "profile": [ "http://hl7.org/fhir/us/qicore/StructureDefinition/qicore-encounter" ]
      },
      "status": "finished",
      "class": {
        "system": "http://terminology.hl7.org/CodeSystem/v3-ActCode",
        "code": "IMP",
        "display": "inpatient encounter"
      },
      "type": [ {
        "coding": [ {
          "system": "http://snomed.info/sct",
          "code": "183452005"
        } ]
      } ],
      "subject": {
        "reference": "Patient/194c8f74-f131-4d08-aff3-e9740333e874"
      },
      "period": {
        "start": "2026-06-08T08:00:00.000+00:00",
        "end": "2026-06-10T08:15:00.000+00:00"
      },
      "length": {
        "value": 2,
        "unit": "days"
      },
      "reasonReference": [ {
        "reference": "Condition/f29e46c2-304f-43b1-83a3-98ac045ab459"
      } ]
    },
    "request": {
      "method": "PUT",
      "url": "Encounter/6311e249-2014-46e9-a20c-3d9f71ec7427"
    }
  }, {
    "fullUrl": "https://madie.cms.gov/Procedure/d7b3205b-a5ad-4d79-aa73-f1bc2cae7551",
    "resource": {
      "resourceType": "Procedure",
      "id": "d7b3205b-a5ad-4d79-aa73-f1bc2cae7551",
      "meta": {
        "profile": [ "http://hl7.org/fhir/us/qicore/StructureDefinition/qicore-procedure" ]
      },
      "extension": [ {
        "url": "http://hl7.org/fhir/us/qicore/StructureDefinition/qicore-recorded",
        "valueDateTime": "2014-04-05T13:35:00.000+00:00"
      } ],
      "status": "completed",
      "code": {
        "coding": [ {
          "system": "http://www.cms.gov/Medicare/Coding/ICD10",
          "code": "10D07Z3"
        } ]
      },
      "subject": {
        "reference": "Patient/194c8f74-f131-4d08-aff3-e9740333e874"
      },
      "performedPeriod": {
        "start": "2026-06-08T08:00:00.000+00:00",
        "end": "2026-06-08T09:15:00.000+00:00"
      }
    },
    "request": {
      "method": "PUT",
      "url": "Procedure/d7b3205b-a5ad-4d79-aa73-f1bc2cae7551"
    }
  }, {
    "fullUrl": "https://madie.cms.gov/Condition/f29e46c2-304f-43b1-83a3-98ac045ab459",
    "resource": {
      "resourceType": "Condition",
      "id": "f29e46c2-304f-43b1-83a3-98ac045ab459",
      "meta": {
        "profile": [ "http://hl7.org/fhir/us/qicore/StructureDefinition/qicore-condition-encounter-diagnosis" ]
      },
      "category": [ {
        "coding": [ {
          "system": "http://terminology.hl7.org/CodeSystem/condition-category",
          "code": "encounter-diagnosis",
          "display": "Encounter Diagnosis"
        } ]
      } ],
      "code": {
        "coding": [ {
          "system": "http://snomed.info/sct",
          "version": "2022-09",
          "code": "169826009",
          "display": "Single live birth from singleton pregnancy (finding)",
          "userSelected": true
        } ]
      },
      "subject": {
        "reference": "Patient/194c8f74-f131-4d08-aff3-e9740333e874"
      },
      "encounter": {
        "reference": "Encounter/6311e249-2014-46e9-a20c-3d9f71ec7427"
      },
      "recordedDate": "2026-10-21T08:00:00.000+00:00"
    },
    "request": {
      "method": "PUT",
      "url": "Condition/f29e46c2-304f-43b1-83a3-98ac045ab459"
    }
  }, {
    "fullUrl": "https://madie.cms.gov/Coverage/9327f148-b90b-4f7f-8954-fc29766fc37e",
    "resource": {
      "resourceType": "Coverage",
      "id": "9327f148-b90b-4f7f-8954-fc29766fc37e",
      "meta": {
        "profile": [ "http://hl7.org/fhir/us/qicore/StructureDefinition/qicore-coverage" ]
      },
      "status": "active",
      "subscriberId": "523435",
      "beneficiary": {
        "reference": "Patient/194c8f74-f131-4d08-aff3-e9740333e874"
      },
      "relationship": {
        "coding": [ {
          "system": "http://terminology.hl7.org/CodeSystem/subscriber-relationship",
          "code": "self"
        } ]
      },
      "payor": [ {
        "reference": "Organization/9e1e1f12-d8b2-4b31-af98-3c1b96227af4"
      } ]
    },
    "request": {
      "method": "PUT",
      "url": "Coverage/9327f148-b90b-4f7f-8954-fc29766fc37e"
    }
  }, {
    "fullUrl": "https://madie.cms.gov/Organization/9e1e1f12-d8b2-4b31-af98-3c1b96227af4",
    "resource": {
      "resourceType": "Organization",
      "id": "9e1e1f12-d8b2-4b31-af98-3c1b96227af4",
      "meta": {
        "profile": [ "http://hl7.org/fhir/us/qicore/StructureDefinition/qicore-organization" ]
      },
      "identifier": [ {
        "use": "temp",
        "system": "urn:oid:2.16.840.1.113883.4.4",
        "value": "21-3259825"
      } ],
      "active": true,
      "type": [ {
        "coding": [ {
          "system": "http://terminology.hl7.org/CodeSystem/organization-type",
          "code": "pay",
          "display": "Payer"
        } ]
      } ],
      "name": "Blue Cross Blue Shield of Texas",
      "telecom": [ {
        "system": "phone",
        "value": "(+1) 972-766-6900"
      } ],
      "address": [ {
        "use": "billing",
        "type": "postal",
        "line": [ "P.O. Box 660044" ],
        "city": "Dallas",
        "state": "TX",
        "postalCode": "75266-0044",
        "country": "USA"
      } ]
    },
    "request": {
      "method": "PUT",
      "url": "Organization/9e1e1f12-d8b2-4b31-af98-3c1b96227af4"
    }
  }, {
    "fullUrl": "https://madie.cms.gov/Practitioner/94ffbb3f-410b-4394-867b-157ed54085d3",
    "resource": {
      "resourceType": "Practitioner",
      "id": "94ffbb3f-410b-4394-867b-157ed54085d3",
      "meta": {
        "profile": [ "http://hl7.org/fhir/us/qicore/StructureDefinition/qicore-practitioner" ]
      },
      "identifier": [ {
        "system": "http://hl7.org/fhir/sid/us-npi",
        "value": "1234567890"
      } ],
      "name": [ {
        "family": "Evil",
        "prefix": [ "Dr" ]
      } ]
    },
    "request": {
      "method": "PUT",
      "url": "Practitioner/94ffbb3f-410b-4394-867b-157ed54085d3"
    }
  }, {
    "fullUrl": "https://madie.cms.gov/MeasureReport/14c5849b-348f-494f-be35-57fe1a3bbc98",
    "resource": {
      "resourceType": "MeasureReport",
      "id": "14c5849b-348f-494f-be35-57fe1a3bbc98",
      "meta": {
        "profile": [ "http://hl7.org/fhir/us/cqfmeasures/StructureDefinition/test-case-cqfm" ]
      },
      "contained": [ {
        "resourceType": "Parameters",
        "id": "5568fa50-92f5-459d-8896-971c98fd911d-parameters",
        "parameter": [ {
          "name": "subject",
          "valueString": "194c8f74-f131-4d08-aff3-e9740333e874"
        } ]
      } ],
      "extension": [ {
        "url": "http://hl7.org/fhir/StructureDefinition/cqf-inputParameters",
        "valueReference": {
          "reference": "#5568fa50-92f5-459d-8896-971c98fd911d-parameters"
        }
      }, {
        "url": "http://hl7.org/fhir/us/cqfmeasures/StructureDefinition/cqfm-testCaseDescription",
        "valueMarkdown": "Passes: IP, Pt is 27 years of age,  encounter dx of delivery of singleton, gravida, AsseEGA37 within 24 hours of  TmDelivery.   Breech presentation meets denom exclusion.\n\n"
      } ],
      "modifierExtension": [ {
        "url": "http://hl7.org/fhir/us/cqfmeasures/StructureDefinition/cqfm-isTestCase",
        "valueBoolean": true
      } ],
      "status": "complete",
      "type": "individual",
      "measure": "https://madie.cms.gov/Measure/CMS0334FHIRPCCesareanBirth",
      "period": {
        "start": "2026-01-01",
        "end": "2026-12-31"
      },
      "group": [ {
        "id": "Group_1",
        "population": [ {
          "id": "InitialPopulation_1",
          "code": {
            "coding": [ {
              "system": "http://terminology.hl7.org/CodeSystem/measure-population",
              "code": "initial-population",
              "display": "Initial Population"
            } ]
          },
          "count": 1
        }, {
          "id": "Denominator_1",
          "code": {
            "coding": [ {
              "system": "http://terminology.hl7.org/CodeSystem/measure-population",
              "code": "denominator",
              "display": "Denominator"
            } ]
          },
          "count": 1
        }, {
          "id": "DenominatorExclusion_1",
          "code": {
            "coding": [ {
              "system": "http://terminology.hl7.org/CodeSystem/measure-population",
              "code": "denominator-exclusion",
              "display": "Denominator Exclusion"
            } ]
          },
          "count": 0
        }, {
          "id": "Numerator_1",
          "code": {
            "coding": [ {
              "system": "http://terminology.hl7.org/CodeSystem/measure-population",
              "code": "numerator",
              "display": "Numerator"
            } ]
          },
          "count": 0
        } ],
        "measureScore": {
          "value": 0.0
        }
      } ],
      "evaluatedResource": [ {
        "reference": "Patient/194c8f74-f131-4d08-aff3-e9740333e874"
      }, {
        "reference": "Observation/c3a287f4-e2f6-4096-bfb2-3119a4878c25"
      }, {
        "reference": "Observation/6e975d08-ebaa-4f03-918b-e77495a7e915"
      }, {
        "reference": "Observation/40250bd0-0e4d-4c08-b299-781384a1f4fc"
      }, {
        "reference": "Encounter/6311e249-2014-46e9-a20c-3d9f71ec7427"
      }, {
        "reference": "Procedure/d7b3205b-a5ad-4d79-aa73-f1bc2cae7551"
      }, {
        "reference": "Condition/f29e46c2-304f-43b1-83a3-98ac045ab459"
      }, {
        "reference": "Coverage/9327f148-b90b-4f7f-8954-fc29766fc37e"
      }, {
        "reference": "Organization/9e1e1f12-d8b2-4b31-af98-3c1b96227af4"
      }, {
        "reference": "Practitioner/94ffbb3f-410b-4394-867b-157ed54085d3"
      } ]
    },
    "request": {
      "method": "PUT",
      "url": "MeasureReport/14c5849b-348f-494f-be35-57fe1a3bbc98"
    }
  } ]
}