{
  "resourceType": "Bundle",
  "id": "64a2f7676bc362e28fa378b3",
  "type": "collection",
  "entry": [ {
    "fullUrl": "https://madie.cms.gov/Patient/770c7dc8-5c0b-4987-8f60-27e90f251dae",
    "resource": {
      "resourceType": "Patient",
      "id": "770c7dc8-5c0b-4987-8f60-27e90f251dae",
      "meta": {
        "profile": [ "http://hl7.org/fhir/us/qicore/StructureDefinition/qicore-patient" ]
      },
      "extension": [ {
        "url": "http://hl7.org/fhir/us/core/StructureDefinition/us-core-race",
        "extension": [ {
          "url": "ombCategory",
          "valueCoding": {
            "system": "urn:oid:2.16.840.1.113883.6.238",
            "code": "2054-5",
            "display": "Black or African American",
            "userSelected": true
          }
        }, {
          "url": "text",
          "valueString": "Black or African American"
        } ]
      }, {
        "url": "http://hl7.org/fhir/us/core/StructureDefinition/us-core-ethnicity",
        "extension": [ {
          "url": "ombCategory",
          "valueCoding": {
            "system": "urn:oid:2.16.840.1.113883.6.238",
            "code": "2186-5",
            "display": "Not Hispanic or Latino",
            "userSelected": true
          }
        }, {
          "url": "text",
          "valueString": "Not Hispanic or Latino"
        } ]
      } ],
      "identifier": [ {
        "type": {
          "coding": [ {
            "system": "http://terminology.hl7.org/CodeSystem/v2-0203",
            "code": "MR"
          } ]
        },
        "system": "https://bonnie-fhir.healthit.gov/",
        "value": "64a2f7676bc362e28fa378b3"
      } ],
      "name": [ {
        "family": "NumPass",
        "given": [ "AllLabTestsBeforeEncWith2ofSameTest" ]
      } ],
      "gender": "female",
      "birthDate": "2001-02-04"
    }
  }, {
    "fullUrl": "https://madie.cms.gov/Condition/ad76abbb-15a8-4519-9611-dc5b20bf9c93",
    "resource": {
      "resourceType": "Condition",
      "id": "ad76abbb-15a8-4519-9611-dc5b20bf9c93",
      "meta": {
        "profile": [ "http://hl7.org/fhir/us/qicore/StructureDefinition/qicore-condition-problems-health-concerns" ]
      },
      "clinicalStatus": {
        "coding": [ {
          "system": "http://terminology.hl7.org/CodeSystem/condition-clinical",
          "code": "active",
          "display": "active",
          "userSelected": true
        } ]
      },
      "category": [ {
        "coding": [ {
          "system": "http://terminology.hl7.org/CodeSystem/condition-category",
          "code": "problem-list-item",
          "display": "Problem List Item"
        } ]
      } ],
      "code": {
        "coding": [ {
          "system": "http://hl7.org/fhir/sid/icd-9-cm",
          "version": "2013",
          "code": "042",
          "display": "Human immunodeficiency virus [HIV] disease",
          "userSelected": true
        }, {
          "system": "http://snomed.info/sct",
          "version": "http://snomed.info/sct/731000124108/version/20250301",
          "code": "165816005",
          "userSelected": true
        } ]
      },
      "subject": {
        "reference": "Patient/770c7dc8-5c0b-4987-8f60-27e90f251dae"
      },
      "onsetDateTime": "2018-09-28T08:00:00.000+00:00",
      "recordedDate": "2018-09-28T08:00:00.000+00:00"
    }
  }, {
    "fullUrl": "https://madie.cms.gov/Encounter/3b1a952b-50a3-47cf-a80d-a92f63759ada",
    "resource": {
      "resourceType": "Encounter",
      "id": "3b1a952b-50a3-47cf-a80d-a92f63759ada",
      "meta": {
        "profile": [ "http://hl7.org/fhir/us/qicore/StructureDefinition/qicore-encounter" ]
      },
      "status": "finished",
      "class": {
        "system": "http://terminology.hl7.org/CodeSystem/v3-ActCode",
        "code": "AMB",
        "display": "ambulatory"
      },
      "type": [ {
        "coding": [ {
          "system": "http://www.ama-assn.org/go/cpt",
          "version": "2023",
          "code": "99391",
          "display": "Periodic comprehensive preventive medicine reevaluation and management of an individual including an age and gender appropriate history, examination, counseling/anticipatory guidance/risk factor reduction interventions, and the ordering of laboratory/diagnostic procedures, established patient; infant (age younger than 1 year)",
          "userSelected": true
        } ]
      } ],
      "subject": {
        "reference": "Patient/770c7dc8-5c0b-4987-8f60-27e90f251dae"
      },
      "period": {
        "start": "2026-09-29T08:00:00.000+00:00",
        "end": "2026-09-29T08:30:00.000+00:00"
      }
    }
  }, {
    "fullUrl": "https://madie.cms.gov/Observation/576611f9-ce8c-4326-9f6b-db1291533eb9",
    "resource": {
      "resourceType": "Observation",
      "id": "576611f9-ce8c-4326-9f6b-db1291533eb9",
      "meta": {
        "profile": [ "http://hl7.org/fhir/us/qicore/StructureDefinition/qicore-observation-lab" ]
      },
      "status": "final",
      "category": [ {
        "coding": [ {
          "system": "http://terminology.hl7.org/CodeSystem/observation-category",
          "code": "laboratory",
          "display": "Laboratory"
        } ]
      }, {
        "coding": [ {
          "system": "http://terminology.hl7.org/CodeSystem/observation-category",
          "code": "survey"
        } ]
      } ],
      "code": {
        "coding": [ {
          "system": "http://loinc.org",
          "version": "2.73",
          "code": "11084-1",
          "display": "Reagin Ab [Titer] in Serum",
          "userSelected": true
        } ]
      },
      "subject": {
        "reference": "Patient/770c7dc8-5c0b-4987-8f60-27e90f251dae"
      },
      "effectivePeriod": {
        "start": "2026-08-30T08:00:00.000+00:00",
        "end": "2026-08-30T08:15:00.000+00:00"
      },
      "issued": "2026-08-30T08:00:00.000+00:00",
      "valueQuantity": {
        "value": 12.69
      }
    }
  }, {
    "fullUrl": "https://madie.cms.gov/Observation/9d993cb4-b42a-4fd5-b471-2d6b0f880220",
    "resource": {
      "resourceType": "Observation",
      "id": "9d993cb4-b42a-4fd5-b471-2d6b0f880220",
      "meta": {
        "profile": [ "http://hl7.org/fhir/us/qicore/StructureDefinition/qicore-observation-lab" ]
      },
      "status": "final",
      "category": [ {
        "coding": [ {
          "system": "http://terminology.hl7.org/CodeSystem/observation-category",
          "code": "laboratory",
          "display": "Laboratory"
        } ]
      }, {
        "coding": [ {
          "system": "http://terminology.hl7.org/CodeSystem/observation-category",
          "code": "survey"
        } ]
      } ],
      "code": {
        "coding": [ {
          "system": "http://loinc.org",
          "version": "2.73",
          "code": "14463-4",
          "display": "Chlamydia trachomatis [Presence] in Cervix by Organism specific culture",
          "userSelected": true
        } ]
      },
      "subject": {
        "reference": "Patient/770c7dc8-5c0b-4987-8f60-27e90f251dae"
      },
      "effectivePeriod": {
        "start": "2026-08-30T08:00:00.000+00:00",
        "end": "2026-08-30T08:15:00.000+00:00"
      },
      "issued": "2026-08-30T08:00:00.000+00:00",
      "valueQuantity": {
        "value": 12
      }
    }
  }, {
    "fullUrl": "https://madie.cms.gov/Observation/44a8a21f-050a-4e95-82d9-9d98a69447a9",
    "resource": {
      "resourceType": "Observation",
      "id": "44a8a21f-050a-4e95-82d9-9d98a69447a9",
      "meta": {
        "profile": [ "http://hl7.org/fhir/us/qicore/StructureDefinition/qicore-observation-lab" ]
      },
      "status": "final",
      "category": [ {
        "coding": [ {
          "system": "http://terminology.hl7.org/CodeSystem/observation-category",
          "code": "laboratory",
          "display": "Laboratory"
        } ]
      }, {
        "coding": [ {
          "system": "http://terminology.hl7.org/CodeSystem/observation-category",
          "code": "survey"
        } ]
      } ],
      "code": {
        "coding": [ {
          "system": "http://loinc.org",
          "version": "2.73",
          "code": "21415-5",
          "display": "Neisseria gonorrhoeae DNA [Presence] in Urethra by NAA with probe detection",
          "userSelected": true
        } ]
      },
      "subject": {
        "reference": "Patient/770c7dc8-5c0b-4987-8f60-27e90f251dae"
      },
      "effectiveDateTime": "2026-08-31T08:00:00.000+00:00",
      "issued": "2026-08-31T08:00:00.000+00:00",
      "valueQuantity": {
        "value": 11
      }
    }
  }, {
    "fullUrl": "https://madie.cms.gov/Observation/fc0a11f7-f29e-4a4b-bf61-78c69e78220b",
    "resource": {
      "resourceType": "Observation",
      "id": "fc0a11f7-f29e-4a4b-bf61-78c69e78220b",
      "meta": {
        "profile": [ "http://hl7.org/fhir/us/qicore/StructureDefinition/qicore-observation-lab" ]
      },
      "status": "final",
      "category": [ {
        "coding": [ {
          "system": "http://terminology.hl7.org/CodeSystem/observation-category",
          "code": "laboratory",
          "display": "Laboratory"
        } ]
      }, {
        "coding": [ {
          "system": "http://terminology.hl7.org/CodeSystem/observation-category",
          "code": "survey"
        } ]
      } ],
      "code": {
        "coding": [ {
          "system": "http://loinc.org",
          "version": "2.73",
          "code": "21414-8",
          "display": "Neisseria gonorrhoeae DNA [Presence] in Cervical mucus by NAA with probe detection",
          "userSelected": true
        } ]
      },
      "subject": {
        "reference": "Patient/770c7dc8-5c0b-4987-8f60-27e90f251dae"
      },
      "effectivePeriod": {
        "start": "2026-12-01T08:00:00.000+00:00",
        "end": "2026-12-01T08:15:00.000+00:00"
      },
      "issued": "2026-12-01T08:00:00.000+00:00",
      "valueQuantity": {
        "value": 15
      }
    }
  }, {
    "fullUrl": "https://madie.cms.gov/Coverage/a7d719cb-66c0-4b5f-972f-181299b1a3a8",
    "resource": {
      "resourceType": "Coverage",
      "id": "a7d719cb-66c0-4b5f-972f-181299b1a3a8",
      "meta": {
        "profile": [ "http://hl7.org/fhir/us/qicore/StructureDefinition/qicore-coverage" ]
      },
      "status": "active",
      "subscriberId": "123456",
      "beneficiary": {
        "reference": "Patient/770c7dc8-5c0b-4987-8f60-27e90f251dae"
      },
      "relationship": {
        "coding": [ {
          "system": "http://terminology.hl7.org/CodeSystem/subscriber-relationship",
          "code": "self",
          "display": "Self"
        } ]
      },
      "payor": [ {
        "reference": "Organization/6e3232e1-820f-417c-8649-96f7cafe90e8"
      } ]
    }
  }, {
    "fullUrl": "https://madie.cms.gov/Organization/6e3232e1-820f-417c-8649-96f7cafe90e8",
    "resource": {
      "resourceType": "Organization",
      "id": "6e3232e1-820f-417c-8649-96f7cafe90e8",
      "meta": {
        "profile": [ "http://hl7.org/fhir/us/qicore/StructureDefinition/qicore-organization" ]
      },
      "identifier": [ {
        "use": "temp",
        "system": "urn:oid:2.16.840.1.113883.4.4",
        "value": "21-3259825"
      } ],
      "active": true,
      "type": [ {
        "coding": [ {
          "system": "http://terminology.hl7.org/CodeSystem/organization-type",
          "code": "pay",
          "display": "Payer"
        } ]
      } ],
      "name": "Blue Cross Blue Shield of Texas",
      "telecom": [ {
        "system": "phone",
        "value": "(+1) 972-766-6900"
      } ],
      "address": [ {
        "use": "billing",
        "type": "postal",
        "line": [ "P.O. Box 660044" ],
        "city": "Dallas",
        "state": "TX",
        "postalCode": "75266-0044",
        "country": "USA"
      } ]
    }
  }, {
    "fullUrl": "https://madie.cms.gov/Practitioner/d3224c9d-fe6d-4c32-9e3b-5f51abe5ad00",
    "resource": {
      "resourceType": "Practitioner",
      "id": "d3224c9d-fe6d-4c32-9e3b-5f51abe5ad00",
      "meta": {
        "profile": [ "http://hl7.org/fhir/us/qicore/StructureDefinition/qicore-practitioner" ]
      },
      "identifier": [ {
        "system": "http://hl7.org/fhir/sid/us-npi",
        "value": "1689411712"
      } ],
      "name": [ {
        "family": "Evil",
        "prefix": [ "Dr" ]
      } ]
    }
  }, {
    "fullUrl": "https://madie.cms.gov/MeasureReport/f0d5f832-e06f-4020-acf6-41dc6d819fc6",
    "resource": {
      "resourceType": "MeasureReport",
      "id": "f0d5f832-e06f-4020-acf6-41dc6d819fc6",
      "meta": {
        "profile": [ "http://hl7.org/fhir/us/cqfmeasures/StructureDefinition/test-case-cqfm" ]
      },
      "contained": [ {
        "resourceType": "Parameters",
        "id": "f4bae7c2-6ac6-4ae5-b89c-947ddded3dba-parameters",
        "parameter": [ {
          "name": "subject",
          "valueString": "770c7dc8-5c0b-4987-8f60-27e90f251dae"
        } ]
      } ],
      "extension": [ {
        "url": "http://hl7.org/fhir/StructureDefinition/cqf-inputParameters",
        "valueReference": {
          "reference": "#f4bae7c2-6ac6-4ae5-b89c-947ddded3dba-parameters"
        }
      }, {
        "url": "http://hl7.org/fhir/us/cqfmeasures/StructureDefinition/cqfm-testCaseDescription",
        "valueMarkdown": "Patient is over 13 years old and has an encounter during the MP and has all three lab tests during the MP BEFORE the encounter with two of the same lab test"
      } ],
      "modifierExtension": [ {
        "url": "http://hl7.org/fhir/us/cqfmeasures/StructureDefinition/cqfm-isTestCase",
        "valueBoolean": true
      } ],
      "status": "complete",
      "type": "individual",
      "measure": "https://madie.cms.gov/Measure/CMS1188FHIRHIVSTITesting",
      "period": {
        "start": "2026-01-01",
        "end": "2026-12-31"
      },
      "group": [ {
        "id": "Group_1",
        "population": [ {
          "id": "InitialPopulation_1",
          "code": {
            "coding": [ {
              "system": "http://terminology.hl7.org/CodeSystem/measure-population",
              "code": "initial-population",
              "display": "Initial Population"
            } ]
          },
          "count": 1
        }, {
          "id": "Denominator_1",
          "code": {
            "coding": [ {
              "system": "http://terminology.hl7.org/CodeSystem/measure-population",
              "code": "denominator",
              "display": "Denominator"
            } ]
          },
          "count": 1
        }, {
          "id": "Numerator_1",
          "code": {
            "coding": [ {
              "system": "http://terminology.hl7.org/CodeSystem/measure-population",
              "code": "numerator",
              "display": "Numerator"
            } ]
          },
          "count": 1
        } ],
        "measureScore": {
          "value": 1.0
        }
      } ],
      "evaluatedResource": [ {
        "reference": "Patient/770c7dc8-5c0b-4987-8f60-27e90f251dae"
      }, {
        "reference": "Condition/ad76abbb-15a8-4519-9611-dc5b20bf9c93"
      }, {
        "reference": "Encounter/3b1a952b-50a3-47cf-a80d-a92f63759ada"
      }, {
        "reference": "Observation/576611f9-ce8c-4326-9f6b-db1291533eb9"
      }, {
        "reference": "Observation/9d993cb4-b42a-4fd5-b471-2d6b0f880220"
      }, {
        "reference": "Observation/44a8a21f-050a-4e95-82d9-9d98a69447a9"
      }, {
        "reference": "Observation/fc0a11f7-f29e-4a4b-bf61-78c69e78220b"
      }, {
        "reference": "Coverage/a7d719cb-66c0-4b5f-972f-181299b1a3a8"
      }, {
        "reference": "Organization/6e3232e1-820f-417c-8649-96f7cafe90e8"
      }, {
        "reference": "Practitioner/d3224c9d-fe6d-4c32-9e3b-5f51abe5ad00"
      } ]
    }
  } ]
}