{
  "resourceType": "Bundle",
  "id": "tests-DENEXFail-MaleEncountereGFR76",
  "type": "transaction",
  "entry": [ {
    "fullUrl": "https://madie.cms.gov/Patient/91f208c6-920e-4093-9842-38ec89ae7197",
    "resource": {
      "resourceType": "Patient",
      "id": "91f208c6-920e-4093-9842-38ec89ae7197",
      "meta": {
        "profile": [ "http://hl7.org/fhir/us/qicore/StructureDefinition/qicore-patient" ]
      },
      "extension": [ {
        "url": "http://hl7.org/fhir/us/core/StructureDefinition/us-core-race",
        "extension": [ {
          "url": "ombCategory",
          "valueCoding": {
            "system": "urn:oid:2.16.840.1.113883.6.238",
            "code": "2106-3",
            "display": "White"
          }
        }, {
          "url": "text",
          "valueString": "White"
        } ]
      }, {
        "url": "http://hl7.org/fhir/us/core/StructureDefinition/us-core-ethnicity",
        "extension": [ {
          "url": "ombCategory",
          "valueCoding": {
            "system": "urn:oid:2.16.840.1.113883.6.238",
            "code": "2135-2",
            "display": "Hispanic or Latino"
          }
        }, {
          "url": "text",
          "valueString": "Hispanic or Latino"
        } ]
      }, {
        "url": "http://hl7.org/fhir/us/core/StructureDefinition/us-core-sex",
        "valueCode": "248153007"
      } ],
      "identifier": [ {
        "system": "http://hospital.smarthealthit.org",
        "value": "999999999"
      } ],
      "name": [ {
        "family": "Example",
        "given": [ "Patient" ]
      } ],
      "gender": "male",
      "birthDate": "1975-01-01"
    },
    "request": {
      "method": "PUT",
      "url": "Patient/91f208c6-920e-4093-9842-38ec89ae7197"
    }
  }, {
    "fullUrl": "https://madie.cms.gov/Encounter/5a56bcf2-40f1-47ec-ab0f-69b8c17d5983",
    "resource": {
      "resourceType": "Encounter",
      "id": "5a56bcf2-40f1-47ec-ab0f-69b8c17d5983",
      "meta": {
        "profile": [ "http://hl7.org/fhir/us/qicore/StructureDefinition/qicore-encounter" ]
      },
      "status": "finished",
      "class": {
        "system": "http://terminology.hl7.org/CodeSystem/v3-ActCode",
        "code": "EMER",
        "display": "emergency"
      },
      "type": [ {
        "coding": [ {
          "system": "http://snomed.info/sct",
          "code": "4525004",
          "display": "Emergency department patient visit (procedure)"
        } ]
      } ],
      "subject": {
        "reference": "Patient/91f208c6-920e-4093-9842-38ec89ae7197"
      },
      "period": {
        "start": "2026-09-29T08:00:00.000+00:00",
        "end": "2026-09-29T20:00:00.000+00:00"
      }
    },
    "request": {
      "method": "PUT",
      "url": "Encounter/5a56bcf2-40f1-47ec-ab0f-69b8c17d5983"
    }
  }, {
    "fullUrl": "https://madie.cms.gov/Encounter/8e5df669-b659-4614-8f47-a1937fd2a751",
    "resource": {
      "resourceType": "Encounter",
      "id": "8e5df669-b659-4614-8f47-a1937fd2a751",
      "meta": {
        "profile": [ "http://hl7.org/fhir/us/qicore/StructureDefinition/qicore-encounter" ]
      },
      "status": "finished",
      "class": {
        "system": "http://terminology.hl7.org/CodeSystem/v3-ActCode",
        "code": "IMP",
        "display": "inpatient encounter"
      },
      "type": [ {
        "coding": [ {
          "system": "http://snomed.info/sct",
          "code": "183452005",
          "display": "Emergency hospital admission (procedure)"
        } ]
      } ],
      "subject": {
        "reference": "Patient/91f208c6-920e-4093-9842-38ec89ae7197"
      },
      "period": {
        "start": "2026-09-29T20:01:00.000+00:00",
        "end": "2026-10-03T20:00:00.000+00:00"
      }
    },
    "request": {
      "method": "PUT",
      "url": "Encounter/8e5df669-b659-4614-8f47-a1937fd2a751"
    }
  }, {
    "fullUrl": "https://madie.cms.gov/Observation/3af4b34b-4285-4d37-affa-dc381abb491b",
    "resource": {
      "resourceType": "Observation",
      "id": "3af4b34b-4285-4d37-affa-dc381abb491b",
      "meta": {
        "profile": [ "http://hl7.org/fhir/us/qicore/StructureDefinition/qicore-observation-lab" ]
      },
      "status": "final",
      "category": [ {
        "coding": [ {
          "system": "http://terminology.hl7.org/CodeSystem/observation-category",
          "code": "laboratory",
          "display": "Laboratory"
        } ]
      } ],
      "code": {
        "coding": [ {
          "system": "http://loinc.org",
          "code": "21232-4",
          "display": "Creatinine [Mass/volume] in Serum or Plasma"
        } ]
      },
      "subject": {
        "reference": "Patient/91f208c6-920e-4093-9842-38ec89ae7197"
      },
      "effectiveDateTime": "2026-10-01T08:01:00.000+00:00",
      "valueQuantity": {
        "value": 1.14,
        "unit": "mg/dL",
        "system": "http://unitsofmeasure.org",
        "code": "mg/dL"
      }
    },
    "request": {
      "method": "PUT",
      "url": "Observation/3af4b34b-4285-4d37-affa-dc381abb491b"
    }
  }, {
    "fullUrl": "https://madie.cms.gov/Observation/635d2aa0-48d2-4e89-8d80-157fe5044849",
    "resource": {
      "resourceType": "Observation",
      "id": "635d2aa0-48d2-4e89-8d80-157fe5044849",
      "meta": {
        "profile": [ "http://hl7.org/fhir/us/qicore/StructureDefinition/qicore-observation-lab" ]
      },
      "status": "final",
      "category": [ {
        "coding": [ {
          "system": "http://terminology.hl7.org/CodeSystem/observation-category",
          "code": "laboratory",
          "display": "Laboratory"
        } ]
      } ],
      "code": {
        "coding": [ {
          "system": "http://loinc.org",
          "code": "21232-4",
          "display": "Creatinine [Mass/volume] in Serum or Plasma"
        } ]
      },
      "subject": {
        "reference": "Patient/91f208c6-920e-4093-9842-38ec89ae7197"
      },
      "effectiveDateTime": "2026-10-01T07:00:00.000+00:00",
      "valueQuantity": {
        "value": 1.13,
        "unit": "mg/dL",
        "system": "http://unitsofmeasure.org",
        "code": "mg/dL"
      }
    },
    "request": {
      "method": "PUT",
      "url": "Observation/635d2aa0-48d2-4e89-8d80-157fe5044849"
    }
  }, {
    "fullUrl": "https://madie.cms.gov/Observation/085815f7-3059-4041-af75-b8de310912e3",
    "resource": {
      "resourceType": "Observation",
      "id": "085815f7-3059-4041-af75-b8de310912e3",
      "meta": {
        "profile": [ "http://hl7.org/fhir/us/qicore/StructureDefinition/qicore-observation-lab" ]
      },
      "status": "final",
      "category": [ {
        "coding": [ {
          "system": "http://terminology.hl7.org/CodeSystem/observation-category",
          "code": "laboratory",
          "display": "Laboratory"
        } ]
      } ],
      "code": {
        "coding": [ {
          "system": "http://loinc.org",
          "code": "21232-4",
          "display": "Creatinine [Mass/volume] in Serum or Plasma"
        } ]
      },
      "subject": {
        "reference": "Patient/91f208c6-920e-4093-9842-38ec89ae7197"
      },
      "effectiveDateTime": "2026-10-01T07:35:00.000+00:00",
      "valueQuantity": {
        "value": 1.13,
        "unit": "mg/dL",
        "system": "http://unitsofmeasure.org",
        "code": "mg/dL"
      }
    },
    "request": {
      "method": "PUT",
      "url": "Observation/085815f7-3059-4041-af75-b8de310912e3"
    }
  }, {
    "fullUrl": "https://madie.cms.gov/MeasureReport/8c12b9e9-a1ec-4ffa-bbde-bd9df3d6627e",
    "resource": {
      "resourceType": "MeasureReport",
      "id": "8c12b9e9-a1ec-4ffa-bbde-bd9df3d6627e",
      "meta": {
        "profile": [ "http://hl7.org/fhir/us/cqfmeasures/StructureDefinition/test-case-cqfm" ]
      },
      "contained": [ {
        "resourceType": "Parameters",
        "id": "0b529485-98bb-4c23-9e7e-9d1ccf6c9926-parameters",
        "parameter": [ {
          "name": "subject",
          "valueString": "91f208c6-920e-4093-9842-38ec89ae7197"
        } ]
      } ],
      "extension": [ {
        "url": "http://hl7.org/fhir/StructureDefinition/cqf-inputParameters",
        "valueReference": {
          "reference": "#0b529485-98bb-4c23-9e7e-9d1ccf6c9926-parameters"
        }
      }, {
        "url": "http://hl7.org/fhir/us/cqfmeasures/StructureDefinition/cqfm-testCaseDescription",
        "valueMarkdown": "Male IP Encounter with an eGFR calculation of greater than 60, based on SCr = 1.13. SCr is within first 24 hours. eGFR must be <60 so does not meet denominator exclusion. "
      } ],
      "modifierExtension": [ {
        "url": "http://hl7.org/fhir/us/cqfmeasures/StructureDefinition/cqfm-isTestCase",
        "valueBoolean": true
      } ],
      "status": "complete",
      "type": "individual",
      "measure": "https://madie.cms.gov/Measure/CMS832FHIRHHAKI",
      "period": {
        "start": "2026-01-01",
        "end": "2026-12-31"
      },
      "group": [ {
        "id": "Group_1",
        "population": [ {
          "id": "InitialPopulation_1",
          "code": {
            "coding": [ {
              "system": "http://terminology.hl7.org/CodeSystem/measure-population",
              "code": "initial-population",
              "display": "Initial Population"
            } ]
          },
          "count": 1
        }, {
          "id": "Denominator_1",
          "code": {
            "coding": [ {
              "system": "http://terminology.hl7.org/CodeSystem/measure-population",
              "code": "denominator",
              "display": "Denominator"
            } ]
          },
          "count": 1
        }, {
          "id": "DenominatorExclusion_1",
          "code": {
            "coding": [ {
              "system": "http://terminology.hl7.org/CodeSystem/measure-population",
              "code": "denominator-exclusion",
              "display": "Denominator Exclusion"
            } ]
          },
          "count": 0
        }, {
          "id": "Numerator_1",
          "code": {
            "coding": [ {
              "system": "http://terminology.hl7.org/CodeSystem/measure-population",
              "code": "numerator",
              "display": "Numerator"
            } ]
          },
          "count": 0
        } ],
        "measureScore": {
          "value": 0.0
        }
      } ],
      "evaluatedResource": [ {
        "reference": "Patient/91f208c6-920e-4093-9842-38ec89ae7197"
      }, {
        "reference": "Encounter/5a56bcf2-40f1-47ec-ab0f-69b8c17d5983"
      }, {
        "reference": "Encounter/8e5df669-b659-4614-8f47-a1937fd2a751"
      }, {
        "reference": "Observation/3af4b34b-4285-4d37-affa-dc381abb491b"
      }, {
        "reference": "Observation/635d2aa0-48d2-4e89-8d80-157fe5044849"
      }, {
        "reference": "Observation/085815f7-3059-4041-af75-b8de310912e3"
      } ]
    },
    "request": {
      "method": "PUT",
      "url": "MeasureReport/8c12b9e9-a1ec-4ffa-bbde-bd9df3d6627e"
    }
  } ]
}