{
  "resourceType": "Bundle",
  "id": "tests-9baac6c5-1826-4c06-a4a4-6ef5bfda76ba-bundle",
  "type": "transaction",
  "entry": [ {
    "fullUrl": "https://madie.cms.gov/Encounter/c31ede93-8c1b-4403-832d-8c15db49b1e7",
    "resource": {
      "resourceType": "Encounter",
      "id": "c31ede93-8c1b-4403-832d-8c15db49b1e7",
      "meta": {
        "profile": [ "http://hl7.org/fhir/us/qicore/StructureDefinition/qicore-encounter" ]
      },
      "status": "finished",
      "class": {
        "system": "http://terminology.hl7.org/CodeSystem/v3-ActCode",
        "code": "EMER",
        "display": "emergency"
      },
      "type": [ {
        "coding": [ {
          "system": "http://snomed.info/sct",
          "code": "4525004"
        } ]
      } ],
      "subject": {
        "reference": "Patient/9baac6c5-1826-4c06-a4a4-6ef5bfda76ba"
      },
      "period": {
        "start": "2026-09-29T08:00:00.000+00:00",
        "end": "2026-09-30T20:00:00.000+00:00"
      }
    },
    "request": {
      "method": "PUT",
      "url": "Encounter/c31ede93-8c1b-4403-832d-8c15db49b1e7"
    }
  }, {
    "fullUrl": "https://madie.cms.gov/Organization/2cb4c294-4a5a-4461-a1d4-43421b73d194",
    "resource": {
      "resourceType": "Organization",
      "id": "2cb4c294-4a5a-4461-a1d4-43421b73d194",
      "meta": {
        "profile": [ "http://hl7.org/fhir/us/qicore/StructureDefinition/qicore-organization" ]
      },
      "identifier": [ {
        "use": "temp",
        "system": "urn:oid:2.16.840.1.113883.4.4",
        "value": "21-3259825"
      } ],
      "active": true,
      "type": [ {
        "coding": [ {
          "system": "http://terminology.hl7.org/CodeSystem/organization-type",
          "code": "pay",
          "display": "Payer"
        } ]
      } ],
      "name": "Blue Cross Blue Shield of Texas",
      "telecom": [ {
        "system": "phone",
        "value": "(+1) 972-766-6900"
      } ],
      "address": [ {
        "use": "billing",
        "type": "postal",
        "line": [ "P.O. Box 660044" ],
        "city": "Dallas",
        "state": "TX",
        "postalCode": "75266-0044",
        "country": "USA"
      } ]
    },
    "request": {
      "method": "PUT",
      "url": "Organization/2cb4c294-4a5a-4461-a1d4-43421b73d194"
    }
  }, {
    "fullUrl": "https://madie.cms.gov/Observation/c5f7c037-7314-433b-a862-92f70c8c45eb",
    "resource": {
      "resourceType": "Observation",
      "id": "c5f7c037-7314-433b-a862-92f70c8c45eb",
      "meta": {
        "profile": [ "http://hl7.org/fhir/us/qicore/StructureDefinition/qicore-observation-lab" ]
      },
      "status": "final",
      "category": [ {
        "coding": [ {
          "system": "http://terminology.hl7.org/CodeSystem/observation-category",
          "code": "laboratory",
          "display": "Laboratory"
        } ]
      } ],
      "code": {
        "coding": [ {
          "system": "http://loinc.org",
          "version": "2.72",
          "code": "2160-0",
          "display": "Creatinine [Mass/volume] in Serum or Plasma",
          "userSelected": true
        } ]
      },
      "subject": {
        "reference": "Patient/9baac6c5-1826-4c06-a4a4-6ef5bfda76ba"
      },
      "effectiveDateTime": "2026-10-02T08:00:00.000+00:00",
      "issued": "2026-10-02T08:30:00.000+00:00",
      "valueQuantity": {
        "value": 1.1,
        "unit": "mg/dL",
        "system": "http://unitsofmeasure.org",
        "code": "mg/dL"
      }
    },
    "request": {
      "method": "PUT",
      "url": "Observation/c5f7c037-7314-433b-a862-92f70c8c45eb"
    }
  }, {
    "fullUrl": "https://madie.cms.gov/Encounter/466dd780-bbef-4a0a-833c-dae2174882fc",
    "resource": {
      "resourceType": "Encounter",
      "id": "466dd780-bbef-4a0a-833c-dae2174882fc",
      "meta": {
        "profile": [ "http://hl7.org/fhir/us/qicore/StructureDefinition/qicore-encounter" ]
      },
      "status": "finished",
      "class": {
        "system": "http://terminology.hl7.org/CodeSystem/v3-ActCode",
        "code": "IMP",
        "display": "inpatient encounter"
      },
      "type": [ {
        "coding": [ {
          "system": "http://snomed.info/sct",
          "code": "183452005"
        } ]
      } ],
      "subject": {
        "reference": "Patient/9baac6c5-1826-4c06-a4a4-6ef5bfda76ba"
      },
      "period": {
        "start": "2026-09-29T20:00:00.000+00:00",
        "end": "2026-10-04T08:15:00.000+00:00"
      }
    },
    "request": {
      "method": "PUT",
      "url": "Encounter/466dd780-bbef-4a0a-833c-dae2174882fc"
    }
  }, {
    "fullUrl": "https://madie.cms.gov/MeasureReport/2361c762-d710-4db4-bece-ac3b5e882d14",
    "resource": {
      "resourceType": "MeasureReport",
      "id": "2361c762-d710-4db4-bece-ac3b5e882d14",
      "meta": {
        "profile": [ "http://hl7.org/fhir/us/cqfmeasures/StructureDefinition/test-case-cqfm" ]
      },
      "contained": [ {
        "resourceType": "Parameters",
        "id": "e6a29411-8a79-446d-8a62-babe939e0b30-parameters",
        "parameter": [ {
          "name": "subject",
          "valueString": "9baac6c5-1826-4c06-a4a4-6ef5bfda76ba"
        } ]
      } ],
      "extension": [ {
        "url": "http://hl7.org/fhir/us/cqfmeasures/StructureDefinition/cqfm-inputParameters",
        "valueReference": {
          "reference": "#e6a29411-8a79-446d-8a62-babe939e0b30-parameters"
        }
      }, {
        "url": "http://hl7.org/fhir/us/cqfmeasures/StructureDefinition/cqfm-testCaseDescription",
        "valueMarkdown": "2TimeIncreaseInCreatUseRelevantPeriod FEMALE\nVScode: Numerator=[Encounter(id=NUMERPass-SCrIncrease2x-02)]"
      } ],
      "modifierExtension": [ {
        "url": "http://hl7.org/fhir/us/cqfmeasures/StructureDefinition/cqfm-isTestCase",
        "valueBoolean": true
      } ],
      "status": "complete",
      "type": "individual",
      "measure": "https://madie.cms.gov/Measure/CMS832HHAKIFHIR",
      "period": {
        "start": "2026-01-01",
        "end": "2026-12-31"
      },
      "group": [ {
        "id": "67b50f879214df46de2f1fdb",
        "population": [ {
          "id": "DA0D3694-7F57-4FB9-8410-1F64E44CA01E",
          "code": {
            "coding": [ {
              "system": "http://terminology.hl7.org/CodeSystem/measure-population",
              "code": "initial-population",
              "display": "Initial Population"
            } ]
          },
          "count": 1
        }, {
          "id": "624D8554-9CB0-4BF0-882D-05C4F88BCC2C",
          "code": {
            "coding": [ {
              "system": "http://terminology.hl7.org/CodeSystem/measure-population",
              "code": "denominator",
              "display": "Denominator"
            } ]
          },
          "count": 1
        }, {
          "id": "000FF050-D4A2-4C8B-8123-4538D35D5441",
          "code": {
            "coding": [ {
              "system": "http://terminology.hl7.org/CodeSystem/measure-population",
              "code": "denominator-exclusion",
              "display": "Denominator Exclusion"
            } ]
          },
          "count": 0
        }, {
          "id": "01644D07-D9F8-403E-A66D-109ABA29BB6E",
          "code": {
            "coding": [ {
              "system": "http://terminology.hl7.org/CodeSystem/measure-population",
              "code": "numerator",
              "display": "Numerator"
            } ]
          },
          "count": 1
        } ],
        "measureScore": {
          "value": 0
        }
      } ],
      "evaluatedResource": [ {
        "reference": "Patient/9baac6c5-1826-4c06-a4a4-6ef5bfda76ba"
      }, {
        "reference": "Encounter/c31ede93-8c1b-4403-832d-8c15db49b1e7"
      }, {
        "reference": "Encounter/466dd780-bbef-4a0a-833c-dae2174882fc"
      }, {
        "reference": "Observation/56ac38f0-e377-473c-94f7-7f537acd4177"
      }, {
        "reference": "Observation/616f49c3-8320-4e8a-835e-bc8bfa99a882"
      }, {
        "reference": "Observation/c5f7c037-7314-433b-a862-92f70c8c45eb"
      }, {
        "reference": "Observation/322aab33-a38e-41a2-a5ed-d3d961aac9df"
      }, {
        "reference": "Coverage/2d00fbd0-1fa2-4400-865e-2d4f48a79b6d"
      }, {
        "reference": "Organization/2cb4c294-4a5a-4461-a1d4-43421b73d194"
      } ]
    },
    "request": {
      "method": "PUT",
      "url": "MeasureReport/2361c762-d710-4db4-bece-ac3b5e882d14"
    }
  }, {
    "fullUrl": "https://madie.cms.gov/Observation/56ac38f0-e377-473c-94f7-7f537acd4177",
    "resource": {
      "resourceType": "Observation",
      "id": "56ac38f0-e377-473c-94f7-7f537acd4177",
      "meta": {
        "profile": [ "http://hl7.org/fhir/us/qicore/StructureDefinition/qicore-observation-lab" ]
      },
      "status": "final",
      "category": [ {
        "coding": [ {
          "system": "http://terminology.hl7.org/CodeSystem/observation-category",
          "code": "laboratory",
          "display": "Laboratory"
        } ]
      } ],
      "code": {
        "coding": [ {
          "system": "http://loinc.org",
          "version": "2.72",
          "code": "2160-0",
          "display": "Creatinine [Mass/volume] in Serum or Plasma",
          "userSelected": true
        } ]
      },
      "subject": {
        "reference": "Patient/9baac6c5-1826-4c06-a4a4-6ef5bfda76ba"
      },
      "effectiveDateTime": "2026-09-30T09:00:00.000+00:00",
      "issued": "2026-09-30T09:30:00.000+00:00",
      "valueQuantity": {
        "value": 1.1,
        "unit": "mg/dL",
        "system": "http://unitsofmeasure.org",
        "code": "mg/dL"
      }
    },
    "request": {
      "method": "PUT",
      "url": "Observation/56ac38f0-e377-473c-94f7-7f537acd4177"
    }
  }, {
    "fullUrl": "https://madie.cms.gov/Observation/322aab33-a38e-41a2-a5ed-d3d961aac9df",
    "resource": {
      "resourceType": "Observation",
      "id": "322aab33-a38e-41a2-a5ed-d3d961aac9df",
      "meta": {
        "profile": [ "http://hl7.org/fhir/us/qicore/StructureDefinition/qicore-observation-lab" ]
      },
      "status": "final",
      "category": [ {
        "coding": [ {
          "system": "http://terminology.hl7.org/CodeSystem/observation-category",
          "code": "laboratory",
          "display": "Laboratory"
        } ]
      } ],
      "code": {
        "coding": [ {
          "system": "http://loinc.org",
          "code": "2160-0",
          "display": "Creatinine [Mass/volume] in Serum or Plasma"
        } ]
      },
      "subject": {
        "reference": "Patient/9baac6c5-1826-4c06-a4a4-6ef5bfda76ba"
      },
      "effectiveDateTime": "2026-10-03T08:00:00.000+00:00",
      "issued": "2026-10-03T08:30:00.000+00:00",
      "valueQuantity": {
        "value": 2.2,
        "unit": "mg/dL",
        "system": "http://unitsofmeasure.org",
        "code": "mg/dL"
      }
    },
    "request": {
      "method": "PUT",
      "url": "Observation/322aab33-a38e-41a2-a5ed-d3d961aac9df"
    }
  }, {
    "fullUrl": "https://madie.cms.gov/Observation/616f49c3-8320-4e8a-835e-bc8bfa99a882",
    "resource": {
      "resourceType": "Observation",
      "id": "616f49c3-8320-4e8a-835e-bc8bfa99a882",
      "meta": {
        "profile": [ "http://hl7.org/fhir/us/qicore/StructureDefinition/qicore-observation-lab" ]
      },
      "status": "final",
      "category": [ {
        "coding": [ {
          "system": "http://terminology.hl7.org/CodeSystem/observation-category",
          "code": "laboratory",
          "display": "Laboratory"
        } ]
      } ],
      "code": {
        "coding": [ {
          "system": "http://loinc.org",
          "version": "2.72",
          "code": "2160-0",
          "display": "Creatinine [Mass/volume] in Serum or Plasma",
          "userSelected": true
        } ]
      },
      "subject": {
        "reference": "Patient/9baac6c5-1826-4c06-a4a4-6ef5bfda76ba"
      },
      "effectiveDateTime": "2026-09-30T08:00:00.000+00:00",
      "issued": "2026-09-30T08:30:00.000+00:00",
      "valueQuantity": {
        "value": 1,
        "unit": "mg/dL",
        "system": "http://unitsofmeasure.org",
        "code": "mg/dL"
      }
    },
    "request": {
      "method": "PUT",
      "url": "Observation/616f49c3-8320-4e8a-835e-bc8bfa99a882"
    }
  }, {
    "fullUrl": "https://madie.cms.gov/Coverage/2d00fbd0-1fa2-4400-865e-2d4f48a79b6d",
    "resource": {
      "resourceType": "Coverage",
      "id": "2d00fbd0-1fa2-4400-865e-2d4f48a79b6d",
      "meta": {
        "profile": [ "http://hl7.org/fhir/us/qicore/StructureDefinition/qicore-coverage" ]
      },
      "status": "active",
      "type": {
        "coding": [ {
          "system": "https://nahdo.org/sopt",
          "version": "9.2",
          "code": "211",
          "display": "Medicaid HMO"
        } ]
      },
      "beneficiary": {
        "reference": "Patient/9baac6c5-1826-4c06-a4a4-6ef5bfda76ba"
      },
      "period": {
        "start": "2024-12-01T00:00:00.000+00:00"
      },
      "payor": [ {
        "reference": "Organization/2cb4c294-4a5a-4461-a1d4-43421b73d194"
      } ]
    },
    "request": {
      "method": "PUT",
      "url": "Coverage/2d00fbd0-1fa2-4400-865e-2d4f48a79b6d"
    }
  }, {
    "fullUrl": "https://madie.cms.gov/Patient/9baac6c5-1826-4c06-a4a4-6ef5bfda76ba",
    "resource": {
      "resourceType": "Patient",
      "id": "9baac6c5-1826-4c06-a4a4-6ef5bfda76ba",
      "meta": {
        "profile": [ "http://hl7.org/fhir/us/qicore/StructureDefinition/qicore-patient" ]
      },
      "text": {
        "status": "generated",
        "div": "<div xmlns=\"http://www.w3.org/1999/xhtml\"><div class=\"hapiHeaderText\">Turns 18 day of Encounter <b>NUMERPass </b></div><table class=\"hapiPropertyTable\"><tbody><tr><td>Identifier</td><td>f0eda1c9668fdacdcad3378589bf6e0a71e7dec1618f14fca4d442ec96e402b1</td></tr><tr><td>Date of birth</td><td><span>29 September 2006</span></td></tr></tbody></table></div>"
      },
      "extension": [ {
        "url": "http://hl7.org/fhir/us/core/StructureDefinition/us-core-race",
        "extension": [ {
          "url": "ombCategory",
          "valueCoding": {
            "system": "urn:oid:2.16.840.1.113883.6.238",
            "code": "1002-5",
            "display": "American Indian or Alaska Native",
            "userSelected": true
          }
        }, {
          "url": "text",
          "valueString": "American Indian or Alaska Native"
        } ]
      }, {
        "url": "http://hl7.org/fhir/us/core/StructureDefinition/us-core-ethnicity",
        "extension": [ {
          "url": "ombCategory",
          "valueCoding": {
            "system": "urn:oid:2.16.840.1.113883.6.238",
            "code": "2135-2",
            "display": "Hispanic or Latino",
            "userSelected": true
          }
        }, {
          "url": "text",
          "valueString": "Hispanic or Latino"
        } ]
      }, {
        "url": "http://hl7.org/fhir/us/core/StructureDefinition/us-core-sex",
        "valueCode": "248152002"
      } ],
      "identifier": [ {
        "type": {
          "coding": [ {
            "system": "http://terminology.hl7.org/CodeSystem/v2-0203",
            "code": "MR"
          } ]
        },
        "system": "http://bonnie-fhir.healthit.gov/",
        "value": "NUMERPass-SCrIncrease2x"
      } ],
      "active": true,
      "name": [ {
        "use": "usual",
        "family": "NUMERPass",
        "given": [ "SCrIncrease2x" ]
      } ],
      "gender": "female",
      "birthDate": "1983-10-10"
    },
    "request": {
      "method": "PUT",
      "url": "Patient/9baac6c5-1826-4c06-a4a4-6ef5bfda76ba"
    }
  }, {
    "fullUrl": "https://madie.cms.gov/MeasureReport/b15272f6-c8ac-4b4e-ac68-5b9dd8bf85de",
    "resource": {
      "resourceType": "MeasureReport",
      "id": "b15272f6-c8ac-4b4e-ac68-5b9dd8bf85de",
      "meta": {
        "profile": [ "http://hl7.org/fhir/us/cqfmeasures/StructureDefinition/test-case-cqfm" ]
      },
      "contained": [ {
        "resourceType": "Parameters",
        "id": "932117f2-c6a6-49f4-970b-2aa74685cb0f-parameters",
        "parameter": [ {
          "name": "subject",
          "valueString": "9baac6c5-1826-4c06-a4a4-6ef5bfda76ba"
        } ]
      } ],
      "extension": [ {
        "url": "http://hl7.org/fhir/StructureDefinition/cqf-inputParameters",
        "valueReference": {
          "reference": "#932117f2-c6a6-49f4-970b-2aa74685cb0f-parameters"
        }
      }, {
        "url": "http://hl7.org/fhir/us/cqfmeasures/StructureDefinition/cqfm-testCaseDescription",
        "valueMarkdown": "2TimeIncreaseInCreatUseRelevantPeriod FEMALE\nVScode: Numerator=[Encounter(id=NUMERPass-SCrIncrease2x-02)]\n"
      } ],
      "modifierExtension": [ {
        "url": "http://hl7.org/fhir/us/cqfmeasures/StructureDefinition/cqfm-isTestCase",
        "valueBoolean": true
      } ],
      "status": "complete",
      "type": "individual",
      "measure": "https://madie.cms.gov/Measure/CMS832FHIRHHAKI",
      "period": {
        "start": "2026-01-01",
        "end": "2026-12-31"
      },
      "group": [ {
        "id": "Group_1",
        "population": [ {
          "id": "InitialPopulation_1",
          "code": {
            "coding": [ {
              "system": "http://terminology.hl7.org/CodeSystem/measure-population",
              "code": "initial-population",
              "display": "Initial Population"
            } ]
          },
          "count": 1
        }, {
          "id": "Denominator_1",
          "code": {
            "coding": [ {
              "system": "http://terminology.hl7.org/CodeSystem/measure-population",
              "code": "denominator",
              "display": "Denominator"
            } ]
          },
          "count": 1
        }, {
          "id": "DenominatorExclusion_1",
          "code": {
            "coding": [ {
              "system": "http://terminology.hl7.org/CodeSystem/measure-population",
              "code": "denominator-exclusion",
              "display": "Denominator Exclusion"
            } ]
          },
          "count": 0
        }, {
          "id": "Numerator_1",
          "code": {
            "coding": [ {
              "system": "http://terminology.hl7.org/CodeSystem/measure-population",
              "code": "numerator",
              "display": "Numerator"
            } ]
          },
          "count": 1
        } ],
        "measureScore": {
          "value": 0.0
        }
      } ],
      "evaluatedResource": [ {
        "reference": "Encounter/c31ede93-8c1b-4403-832d-8c15db49b1e7"
      }, {
        "reference": "Organization/2cb4c294-4a5a-4461-a1d4-43421b73d194"
      }, {
        "reference": "Observation/c5f7c037-7314-433b-a862-92f70c8c45eb"
      }, {
        "reference": "Encounter/466dd780-bbef-4a0a-833c-dae2174882fc"
      }, {
        "reference": "MeasureReport/2361c762-d710-4db4-bece-ac3b5e882d14"
      }, {
        "reference": "Observation/56ac38f0-e377-473c-94f7-7f537acd4177"
      }, {
        "reference": "Observation/322aab33-a38e-41a2-a5ed-d3d961aac9df"
      }, {
        "reference": "Observation/616f49c3-8320-4e8a-835e-bc8bfa99a882"
      }, {
        "reference": "Coverage/2d00fbd0-1fa2-4400-865e-2d4f48a79b6d"
      }, {
        "reference": "Patient/9baac6c5-1826-4c06-a4a4-6ef5bfda76ba"
      } ]
    },
    "request": {
      "method": "PUT",
      "url": "MeasureReport/b15272f6-c8ac-4b4e-ac68-5b9dd8bf85de"
    }
  } ]
}