{
  "resourceType": "Bundle",
  "id": "633b3f9f0968f80122503cea",
  "type": "transaction",
  "entry": [ {
    "fullUrl": "https://madie.cms.gov/Patient/a8615f09-8387-4b16-8637-76ebabb4d9f5",
    "resource": {
      "resourceType": "Patient",
      "id": "a8615f09-8387-4b16-8637-76ebabb4d9f5",
      "meta": {
        "profile": [ "http://hl7.org/fhir/us/qicore/StructureDefinition/qicore-patient" ]
      },
      "text": {
        "status": "generated",
        "div": "<div xmlns=\"http://www.w3.org/1999/xhtml\"><div class=\"hapiHeaderText\">AssPrfDELRsltDtTimeEQIPEndMinus1Min<b>DENOMPASS</b></div><table class=\"hapiPropertyTable\"><tbody><tr><td>Date of birth</td><td><span>01 February 2004</span></td></tr></tbody></table></div>"
      },
      "extension": [ {
        "url": "http://hl7.org/fhir/us/core/StructureDefinition/us-core-race",
        "extension": [ {
          "url": "ombCategory",
          "valueCoding": {
            "system": "urn:oid:2.16.840.1.113883.6.238",
            "code": "1002-5",
            "display": "American Indian or Alaska Native",
            "userSelected": true
          }
        }, {
          "url": "text",
          "valueString": "American Indian or Alaska Native"
        } ]
      }, {
        "url": "http://hl7.org/fhir/us/core/StructureDefinition/us-core-ethnicity",
        "extension": [ {
          "url": "ombCategory",
          "valueCoding": {
            "system": "urn:oid:2.16.840.1.113883.6.238",
            "code": "2135-2",
            "display": "Hispanic or Latino",
            "userSelected": true
          }
        }, {
          "url": "text",
          "valueString": "Hispanic or Latino"
        } ]
      } ],
      "identifier": [ {
        "type": {
          "coding": [ {
            "system": "http://terminology.hl7.org/CodeSystem/v2-0203",
            "code": "MR"
          } ]
        },
        "system": "https://bonnie-fhir.healthit.gov/",
        "value": "633b3f9f0968f80122503cea"
      } ],
      "active": true,
      "name": [ {
        "use": "usual",
        "family": "DENOMPass",
        "given": [ "AssPrfDELRsltDtTimeEQIPEndMinus1Min" ]
      } ],
      "gender": "female",
      "birthDate": "2005-02-01"
    },
    "request": {
      "method": "PUT",
      "url": "Patient/a8615f09-8387-4b16-8637-76ebabb4d9f5"
    }
  }, {
    "fullUrl": "https://madie.cms.gov/Observation/627a5e08-3c61-4280-a734-dc742b038795",
    "resource": {
      "resourceType": "Observation",
      "id": "627a5e08-3c61-4280-a734-dc742b038795",
      "meta": {
        "profile": [ "http://hl7.org/fhir/us/qicore/StructureDefinition/qicore-simple-observation" ]
      },
      "status": "final",
      "category": [ {
        "coding": [ {
          "system": "http://terminology.hl7.org/CodeSystem/observation-category",
          "code": "exam",
          "display": "exam",
          "userSelected": true
        } ]
      } ],
      "code": {
        "coding": [ {
          "system": "http://loinc.org",
          "code": "93857-1"
        } ]
      },
      "subject": {
        "reference": "Patient/a8615f09-8387-4b16-8637-76ebabb4d9f5"
      },
      "effectiveDateTime": "2026-02-05T08:14:00.000+00:00",
      "performer": [ {
        "reference": "Organization/example1",
        "display": "Hendricks Country Hospital"
      } ],
      "valueDateTime": "2026-02-05T08:14:00.000+00:00"
    },
    "request": {
      "method": "PUT",
      "url": "Observation/627a5e08-3c61-4280-a734-dc742b038795"
    }
  }, {
    "fullUrl": "https://madie.cms.gov/Observation/f7d7fff5-5bf8-4b37-b2cf-d88e052f9b3b",
    "resource": {
      "resourceType": "Observation",
      "id": "f7d7fff5-5bf8-4b37-b2cf-d88e052f9b3b",
      "meta": {
        "profile": [ "http://hl7.org/fhir/us/qicore/StructureDefinition/qicore-simple-observation" ]
      },
      "status": "final",
      "category": [ {
        "coding": [ {
          "system": "http://terminology.hl7.org/CodeSystem/observation-category",
          "code": "exam",
          "display": "exam",
          "userSelected": true
        } ]
      } ],
      "code": {
        "coding": [ {
          "system": "http://loinc.org",
          "code": "11778-8"
        } ]
      },
      "subject": {
        "reference": "Patient/a8615f09-8387-4b16-8637-76ebabb4d9f5"
      },
      "effectiveDateTime": "2026-02-05T08:00:00.000+00:00",
      "performer": [ {
        "reference": "Organization/example1",
        "display": "Hendricks Country Hospital"
      } ],
      "valueDateTime": "2026-02-01T08:00:00.000+00:00"
    },
    "request": {
      "method": "PUT",
      "url": "Observation/f7d7fff5-5bf8-4b37-b2cf-d88e052f9b3b"
    }
  }, {
    "fullUrl": "https://madie.cms.gov/Encounter/1e236396-3aa1-4ca4-944d-fe3598469713",
    "resource": {
      "resourceType": "Encounter",
      "id": "1e236396-3aa1-4ca4-944d-fe3598469713",
      "meta": {
        "profile": [ "http://hl7.org/fhir/us/qicore/StructureDefinition/qicore-encounter" ]
      },
      "status": "finished",
      "class": {
        "system": "http://terminology.hl7.org/CodeSystem/v3-ActCode",
        "code": "IMP",
        "display": "inpatient encounter"
      },
      "type": [ {
        "coding": [ {
          "system": "http://snomed.info/sct",
          "code": "183452005"
        } ]
      } ],
      "subject": {
        "reference": "Patient/a8615f09-8387-4b16-8637-76ebabb4d9f5"
      },
      "period": {
        "start": "2026-02-01T08:00:00.000+00:00",
        "end": "2026-02-05T08:15:00.000+00:00"
      }
    },
    "request": {
      "method": "PUT",
      "url": "Encounter/1e236396-3aa1-4ca4-944d-fe3598469713"
    }
  }, {
    "fullUrl": "https://madie.cms.gov/Procedure/67bf629c-2ece-46b5-ac8c-5d3c4ff9c436",
    "resource": {
      "resourceType": "Procedure",
      "id": "67bf629c-2ece-46b5-ac8c-5d3c4ff9c436",
      "meta": {
        "profile": [ "http://hl7.org/fhir/us/qicore/StructureDefinition/qicore-procedure" ]
      },
      "extension": [ {
        "url": "http://hl7.org/fhir/us/qicore/StructureDefinition/qicore-recorded",
        "valueDateTime": "2014-04-05T13:35:00.000+00:00"
      } ],
      "status": "completed",
      "code": {
        "coding": [ {
          "system": "http://snomed.info/sct",
          "code": "10745001"
        } ]
      },
      "subject": {
        "reference": "Patient/a8615f09-8387-4b16-8637-76ebabb4d9f5"
      },
      "performedPeriod": {
        "start": "2026-02-01T08:00:00.000+00:00",
        "end": "2026-02-05T08:15:00.000+00:00"
      }
    },
    "request": {
      "method": "PUT",
      "url": "Procedure/67bf629c-2ece-46b5-ac8c-5d3c4ff9c436"
    }
  }, {
    "fullUrl": "https://madie.cms.gov/Coverage/9f4ae0e0-997e-4340-b362-47cd0ff4691f",
    "resource": {
      "resourceType": "Coverage",
      "id": "9f4ae0e0-997e-4340-b362-47cd0ff4691f",
      "meta": {
        "profile": [ "http://hl7.org/fhir/us/qicore/StructureDefinition/qicore-coverage" ]
      },
      "status": "active",
      "subscriberId": "523435",
      "beneficiary": {
        "reference": "Patient/a8615f09-8387-4b16-8637-76ebabb4d9f5"
      },
      "relationship": {
        "coding": [ {
          "system": "http://terminology.hl7.org/CodeSystem/subscriber-relationship",
          "code": "self"
        } ]
      },
      "payor": [ {
        "reference": "Organization/01c27aea-a713-4329-8483-79f59c03a371"
      } ]
    },
    "request": {
      "method": "PUT",
      "url": "Coverage/9f4ae0e0-997e-4340-b362-47cd0ff4691f"
    }
  }, {
    "fullUrl": "https://madie.cms.gov/Organization/01c27aea-a713-4329-8483-79f59c03a371",
    "resource": {
      "resourceType": "Organization",
      "id": "01c27aea-a713-4329-8483-79f59c03a371",
      "meta": {
        "profile": [ "http://hl7.org/fhir/us/qicore/StructureDefinition/qicore-organization" ]
      },
      "identifier": [ {
        "use": "temp",
        "system": "urn:oid:2.16.840.1.113883.4.4",
        "value": "21-3259825"
      } ],
      "active": true,
      "type": [ {
        "coding": [ {
          "system": "http://terminology.hl7.org/CodeSystem/organization-type",
          "code": "pay",
          "display": "Payer"
        } ]
      } ],
      "name": "Blue Cross Blue Shield of Texas",
      "telecom": [ {
        "system": "phone",
        "value": "(+1) 972-766-6900"
      } ],
      "address": [ {
        "use": "billing",
        "type": "postal",
        "line": [ "P.O. Box 660044" ],
        "city": "Dallas",
        "state": "TX",
        "postalCode": "75266-0044",
        "country": "USA"
      } ]
    },
    "request": {
      "method": "PUT",
      "url": "Organization/01c27aea-a713-4329-8483-79f59c03a371"
    }
  }, {
    "fullUrl": "https://madie.cms.gov/Practitioner/9924cb02-cd3c-4018-96b6-c50a7374d8d6",
    "resource": {
      "resourceType": "Practitioner",
      "id": "9924cb02-cd3c-4018-96b6-c50a7374d8d6",
      "meta": {
        "profile": [ "http://hl7.org/fhir/us/qicore/StructureDefinition/qicore-practitioner" ]
      },
      "identifier": [ {
        "system": "http://hl7.org/fhir/sid/us-npi",
        "value": "1234567890"
      } ],
      "name": [ {
        "family": "Evil",
        "prefix": [ "Dr" ]
      } ]
    },
    "request": {
      "method": "PUT",
      "url": "Practitioner/9924cb02-cd3c-4018-96b6-c50a7374d8d6"
    }
  }, {
    "fullUrl": "https://madie.cms.gov/MeasureReport/136db58e-6e1d-490f-86f5-a0890b9adfbb",
    "resource": {
      "resourceType": "MeasureReport",
      "id": "136db58e-6e1d-490f-86f5-a0890b9adfbb",
      "meta": {
        "profile": [ "http://hl7.org/fhir/us/cqfmeasures/StructureDefinition/test-case-cqfm" ]
      },
      "contained": [ {
        "resourceType": "Parameters",
        "id": "e20e9568-4cab-4d8b-9924-006c2602e75f-parameters",
        "parameter": [ {
          "name": "subject",
          "valueString": "a8615f09-8387-4b16-8637-76ebabb4d9f5"
        } ]
      } ],
      "extension": [ {
        "url": "http://hl7.org/fhir/StructureDefinition/cqf-inputParameters",
        "valueReference": {
          "reference": "#e20e9568-4cab-4d8b-9924-006c2602e75f-parameters"
        }
      }, {
        "url": "http://hl7.org/fhir/us/cqfmeasures/StructureDefinition/cqfm-testCaseDescription",
        "valueMarkdown": "Result date/Time of delivery (based on assessment performed) is equal to encounter end minus one minute\n"
      } ],
      "modifierExtension": [ {
        "url": "http://hl7.org/fhir/us/cqfmeasures/StructureDefinition/cqfm-isTestCase",
        "valueBoolean": true
      } ],
      "status": "complete",
      "type": "individual",
      "measure": "https://madie.cms.gov/Measure/CMS1028FHIRPCSevereOBComps",
      "period": {
        "start": "2026-01-01",
        "end": "2026-12-31"
      },
      "group": [ {
        "id": "Group_1",
        "population": [ {
          "id": "InitialPopulation_1",
          "code": {
            "coding": [ {
              "system": "http://terminology.hl7.org/CodeSystem/measure-population",
              "code": "initial-population",
              "display": "Initial Population"
            } ]
          },
          "count": 1
        }, {
          "id": "Denominator_1",
          "code": {
            "coding": [ {
              "system": "http://terminology.hl7.org/CodeSystem/measure-population",
              "code": "denominator",
              "display": "Denominator"
            } ]
          },
          "count": 1
        }, {
          "id": "Numerator_1",
          "code": {
            "coding": [ {
              "system": "http://terminology.hl7.org/CodeSystem/measure-population",
              "code": "numerator",
              "display": "Numerator"
            } ]
          },
          "count": 0
        }, {
          "id": "NumeratorExclusion_1",
          "code": {
            "coding": [ {
              "system": "http://terminology.hl7.org/CodeSystem/measure-population",
              "code": "numerator-exclusion",
              "display": "Numerator Exclusion"
            } ]
          },
          "count": 0
        } ],
        "measureScore": {
          "value": 0.0
        }
      }, {
        "id": "Group_2",
        "population": [ {
          "id": "InitialPopulation_2",
          "code": {
            "coding": [ {
              "system": "http://terminology.hl7.org/CodeSystem/measure-population",
              "code": "initial-population",
              "display": "Initial Population"
            } ]
          },
          "count": 1
        }, {
          "id": "Denominator_2",
          "code": {
            "coding": [ {
              "system": "http://terminology.hl7.org/CodeSystem/measure-population",
              "code": "denominator",
              "display": "Denominator"
            } ]
          },
          "count": 1
        }, {
          "id": "Numerator_2",
          "code": {
            "coding": [ {
              "system": "http://terminology.hl7.org/CodeSystem/measure-population",
              "code": "numerator",
              "display": "Numerator"
            } ]
          },
          "count": 0
        }, {
          "id": "NumeratorExclusion_2",
          "code": {
            "coding": [ {
              "system": "http://terminology.hl7.org/CodeSystem/measure-population",
              "code": "numerator-exclusion",
              "display": "Numerator Exclusion"
            } ]
          },
          "count": 0
        } ],
        "measureScore": {
          "value": 0.0
        }
      } ],
      "evaluatedResource": [ {
        "reference": "Patient/a8615f09-8387-4b16-8637-76ebabb4d9f5"
      }, {
        "reference": "Observation/627a5e08-3c61-4280-a734-dc742b038795"
      }, {
        "reference": "Observation/f7d7fff5-5bf8-4b37-b2cf-d88e052f9b3b"
      }, {
        "reference": "Encounter/1e236396-3aa1-4ca4-944d-fe3598469713"
      }, {
        "reference": "Procedure/67bf629c-2ece-46b5-ac8c-5d3c4ff9c436"
      }, {
        "reference": "Coverage/9f4ae0e0-997e-4340-b362-47cd0ff4691f"
      }, {
        "reference": "Organization/01c27aea-a713-4329-8483-79f59c03a371"
      }, {
        "reference": "Practitioner/9924cb02-cd3c-4018-96b6-c50a7374d8d6"
      } ]
    },
    "request": {
      "method": "PUT",
      "url": "MeasureReport/136db58e-6e1d-490f-86f5-a0890b9adfbb"
    }
  } ]
}