{
  "resourceType": "Bundle",
  "id": "61168b8798086b77ef9c5ec9",
  "type": "collection",
  "entry": [ {
    "fullUrl": "https://madie.cms.gov/Patient/3835c33d-b335-44d7-a7b6-c8a0d5420290",
    "resource": {
      "resourceType": "Patient",
      "id": "3835c33d-b335-44d7-a7b6-c8a0d5420290",
      "meta": {
        "profile": [ "http://hl7.org/fhir/us/qicore/StructureDefinition/qicore-patient" ]
      },
      "extension": [ {
        "url": "http://hl7.org/fhir/us/core/StructureDefinition/us-core-race",
        "extension": [ {
          "url": "ombCategory",
          "valueCoding": {
            "system": "urn:oid:2.16.840.1.113883.6.238",
            "code": "2106-3",
            "display": "White",
            "userSelected": true
          }
        }, {
          "url": "text",
          "valueString": "White"
        } ]
      }, {
        "url": "http://hl7.org/fhir/us/core/StructureDefinition/us-core-ethnicity",
        "extension": [ {
          "url": "ombCategory",
          "valueCoding": {
            "system": "urn:oid:2.16.840.1.113883.6.238",
            "code": "2186-5",
            "display": "Not Hispanic or Latino",
            "userSelected": true
          }
        }, {
          "url": "text",
          "valueString": "Not Hispanic or Latino"
        } ]
      } ],
      "identifier": [ {
        "type": {
          "coding": [ {
            "system": "http://terminology.hl7.org/CodeSystem/v2-0203",
            "code": "MR"
          } ]
        },
        "system": "https://bonnie-fhir.healthit.gov/",
        "value": "61168b8798086b77ef9c5ec9"
      } ],
      "active": true,
      "name": [ {
        "use": "usual",
        "family": "NUMERPass",
        "given": [ "BothCommANDEdemaPresentAfterEnc" ]
      } ],
      "gender": "female",
      "birthDate": "1988-05-26"
    }
  }, {
    "fullUrl": "https://madie.cms.gov/Communication/bdc7dcee-b2de-42ac-b907-fe35bc621244",
    "resource": {
      "resourceType": "Communication",
      "id": "bdc7dcee-b2de-42ac-b907-fe35bc621244",
      "meta": {
        "profile": [ "http://hl7.org/fhir/us/qicore/StructureDefinition/qicore-communication" ]
      },
      "extension": [ {
        "url": "http://hl7.org/fhir/us/qicore/StructureDefinition/qicore-recorded",
        "valueDateTime": "2026-06-26T16:15:00.000+00:00"
      } ],
      "status": "completed",
      "category": [ {
        "coding": [ {
          "system": "http://snomed.info/sct",
          "version": "http://snomed.info/sct/731000124108/version/202303",
          "code": "312903003",
          "display": "Mild nonproliferative retinopathy due to diabetes mellitus (disorder)",
          "userSelected": true
        } ]
      } ],
      "subject": {
        "reference": "Patient/3835c33d-b335-44d7-a7b6-c8a0d5420290"
      },
      "topic": {
        "coding": [ {
          "system": "http://terminology.hl7.org/CodeSystem/communication-topic",
          "code": "progress-update",
          "display": "Progress Update"
        } ]
      },
      "sent": "2026-06-26T16:15:00.000+00:00",
      "reasonCode": [ {
        "coding": [ {
          "system": "http://snomed.info/sct",
          "code": "312903003"
        } ]
      } ]
    }
  }, {
    "fullUrl": "https://madie.cms.gov/Communication/cb51b2ef-dbc9-4323-ba9e-8542d589ed00",
    "resource": {
      "resourceType": "Communication",
      "id": "cb51b2ef-dbc9-4323-ba9e-8542d589ed00",
      "meta": {
        "profile": [ "http://hl7.org/fhir/us/qicore/StructureDefinition/qicore-communication" ]
      },
      "extension": [ {
        "url": "http://hl7.org/fhir/us/qicore/StructureDefinition/qicore-recorded",
        "valueDateTime": "2026-12-21T16:15:00.000+00:00"
      } ],
      "status": "completed",
      "category": [ {
        "coding": [ {
          "system": "http://snomed.info/sct",
          "version": "http://snomed.info/sct/731000124108/version/202303",
          "code": "193350004",
          "display": "Advanced maculopathy due to diabetes mellitus (disorder)",
          "userSelected": true
        } ]
      } ],
      "subject": {
        "reference": "Patient/3835c33d-b335-44d7-a7b6-c8a0d5420290"
      },
      "sent": "2026-12-21T08:00:00.000+00:00",
      "reasonCode": [ {
        "coding": [ {
          "system": "http://snomed.info/sct",
          "version": "http://snomed.info/sct/731000124108/version/202303",
          "code": "193350004"
        } ]
      } ]
    }
  }, {
    "fullUrl": "https://madie.cms.gov/Condition/ff425bf7-65bd-4860-abd4-6ce56c6d3d0c",
    "resource": {
      "resourceType": "Condition",
      "id": "ff425bf7-65bd-4860-abd4-6ce56c6d3d0c",
      "meta": {
        "profile": [ "http://hl7.org/fhir/us/qicore/StructureDefinition/qicore-condition-problems-health-concerns" ]
      },
      "clinicalStatus": {
        "coding": [ {
          "system": "http://terminology.hl7.org/CodeSystem/condition-clinical",
          "code": "active",
          "display": "active",
          "userSelected": true
        } ]
      },
      "category": [ {
        "coding": [ {
          "system": "http://terminology.hl7.org/CodeSystem/condition-category",
          "code": "problem-list-item",
          "display": "Problem List Item"
        } ]
      } ],
      "code": {
        "coding": [ {
          "system": "http://snomed.info/sct",
          "version": "http://snomed.info/sct/731000124108/version/20250301",
          "code": "314011005"
        } ]
      },
      "subject": {
        "reference": "Patient/3835c33d-b335-44d7-a7b6-c8a0d5420290"
      },
      "onsetDateTime": "2026-06-27T15:00:00.000+00:00"
    }
  }, {
    "fullUrl": "https://madie.cms.gov/Observation/5934e1b7-50b8-42d8-8fc2-06a94a79ca89",
    "resource": {
      "resourceType": "Observation",
      "id": "5934e1b7-50b8-42d8-8fc2-06a94a79ca89",
      "meta": {
        "profile": [ "http://hl7.org/fhir/us/qicore/StructureDefinition/qicore-observation-clinical-result" ]
      },
      "status": "final",
      "category": [ {
        "coding": [ {
          "system": "http://terminology.hl7.org/CodeSystem/observation-category",
          "code": "vital-signs",
          "display": "Vital Signs"
        } ]
      }, {
        "coding": [ {
          "system": "http://terminology.hl7.org/CodeSystem/observation-category",
          "code": "survey"
        } ]
      } ],
      "code": {
        "coding": [ {
          "system": "http://loinc.org",
          "version": "2.73",
          "code": "32451-7"
        } ]
      },
      "subject": {
        "reference": "Patient/3835c33d-b335-44d7-a7b6-c8a0d5420290"
      },
      "effectiveDateTime": "2026-08-28T16:10:00.000+00:00",
      "valueCodeableConcept": {
        "coding": [ {
          "system": "http://loinc.org",
          "version": "2.73",
          "code": "32451-7",
          "display": "Physical findings of Macula",
          "userSelected": true
        } ]
      }
    }
  }, {
    "fullUrl": "https://madie.cms.gov/Encounter/6e03f592-1ecd-4d99-98c9-b94d7c2d17c6",
    "resource": {
      "resourceType": "Encounter",
      "id": "6e03f592-1ecd-4d99-98c9-b94d7c2d17c6",
      "meta": {
        "profile": [ "http://hl7.org/fhir/us/qicore/StructureDefinition/qicore-encounter" ]
      },
      "status": "finished",
      "class": {
        "system": "http://terminology.hl7.org/CodeSystem/v3-ActCode",
        "code": "AMB"
      },
      "type": [ {
        "coding": [ {
          "system": "http://snomed.info/sct",
          "version": "http://snomed.info/sct/731000124108/version/202303",
          "code": "17436001"
        }, {
          "system": "http://www.ama-assn.org/go/cpt",
          "version": "2023",
          "code": "99205"
        } ]
      } ],
      "subject": {
        "reference": "Patient/3835c33d-b335-44d7-a7b6-c8a0d5420290"
      },
      "period": {
        "start": "2026-06-26T16:00:00.000+00:00",
        "end": "2026-09-28T17:00:00.000+00:00"
      },
      "length": {
        "value": 0.0,
        "unit": "days"
      }
    }
  }, {
    "fullUrl": "https://madie.cms.gov/MeasureReport/9d8f3677-ad9f-43dc-b668-61de6f13e9c9",
    "resource": {
      "resourceType": "MeasureReport",
      "id": "9d8f3677-ad9f-43dc-b668-61de6f13e9c9",
      "meta": {
        "profile": [ "http://hl7.org/fhir/us/cqfmeasures/StructureDefinition/test-case-cqfm" ]
      },
      "contained": [ {
        "resourceType": "Parameters",
        "id": "90f361b6-93c4-425b-9eb6-fd0edfe4bb10-parameters",
        "parameter": [ {
          "name": "subject",
          "valueString": "3835c33d-b335-44d7-a7b6-c8a0d5420290"
        } ]
      } ],
      "extension": [ {
        "url": "http://hl7.org/fhir/StructureDefinition/cqf-inputParameters",
        "valueReference": {
          "reference": "#90f361b6-93c4-425b-9eb6-fd0edfe4bb10-parameters"
        }
      }, {
        "url": "http://hl7.org/fhir/us/cqfmeasures/StructureDefinition/cqfm-testCaseDescription",
        "valueMarkdown": "Patient with both communications, macular edema present after start of encounter. "
      } ],
      "modifierExtension": [ {
        "url": "http://hl7.org/fhir/us/cqfmeasures/StructureDefinition/cqfm-isTestCase",
        "valueBoolean": true
      } ],
      "status": "complete",
      "type": "individual",
      "measure": "https://madie.cms.gov/Measure/CMS142FHIRCommWithDrManagingDiab",
      "period": {
        "start": "2026-01-01",
        "end": "2026-12-31"
      },
      "group": [ {
        "id": "Group_1",
        "population": [ {
          "id": "InitialPopulation_1",
          "code": {
            "coding": [ {
              "system": "http://terminology.hl7.org/CodeSystem/measure-population",
              "code": "initial-population",
              "display": "Initial Population"
            } ]
          },
          "count": 1
        }, {
          "id": "Denominator_1",
          "code": {
            "coding": [ {
              "system": "http://terminology.hl7.org/CodeSystem/measure-population",
              "code": "denominator",
              "display": "Denominator"
            } ]
          },
          "count": 1
        }, {
          "id": "Numerator_1",
          "code": {
            "coding": [ {
              "system": "http://terminology.hl7.org/CodeSystem/measure-population",
              "code": "numerator",
              "display": "Numerator"
            } ]
          },
          "count": 1
        }, {
          "id": "DenominatorException_1",
          "code": {
            "coding": [ {
              "system": "http://terminology.hl7.org/CodeSystem/measure-population",
              "code": "denominator-exception",
              "display": "Denominator Exception"
            } ]
          },
          "count": 0
        } ],
        "measureScore": {
          "value": 1.0
        }
      } ],
      "evaluatedResource": [ {
        "reference": "Patient/3835c33d-b335-44d7-a7b6-c8a0d5420290"
      }, {
        "reference": "Communication/bdc7dcee-b2de-42ac-b907-fe35bc621244"
      }, {
        "reference": "Communication/cb51b2ef-dbc9-4323-ba9e-8542d589ed00"
      }, {
        "reference": "Condition/ff425bf7-65bd-4860-abd4-6ce56c6d3d0c"
      }, {
        "reference": "Observation/5934e1b7-50b8-42d8-8fc2-06a94a79ca89"
      }, {
        "reference": "Encounter/6e03f592-1ecd-4d99-98c9-b94d7c2d17c6"
      } ]
    }
  } ]
}