{
  "resourceType": "Bundle",
  "id": "63487c300968f801225401c9",
  "type": "transaction",
  "entry": [ {
    "fullUrl": "https://madie.cms.gov/Patient/26e9dc17-8899-4ac1-b6d9-98606d331302",
    "resource": {
      "resourceType": "Patient",
      "id": "26e9dc17-8899-4ac1-b6d9-98606d331302",
      "meta": {
        "profile": [ "http://hl7.org/fhir/us/qicore/StructureDefinition/qicore-patient" ]
      },
      "text": {
        "status": "generated",
        "div": "<div xmlns=\"http://www.w3.org/1999/xhtml\"><div class=\"hapiHeaderText\">AssessTimeOfDelivResultAfterDelivEncEnd<b>DENOMFail</b></div><table class=\"hapiPropertyTable\"><tbody><tr><td>Identifier</td><td>71189d70ba3427612f2a418107466ed1652ec9a0e76c1b9c30a1691a1d91b34c</td></tr><tr><td>Date of birth</td><td><span>14 February 1985</span></td></tr></tbody></table></div>"
      },
      "extension": [ {
        "url": "http://hl7.org/fhir/us/core/StructureDefinition/us-core-race",
        "extension": [ {
          "url": "ombCategory",
          "valueCoding": {
            "system": "urn:oid:2.16.840.1.113883.6.238",
            "code": "1002-5",
            "display": "American Indian or Alaska Native",
            "userSelected": true
          }
        }, {
          "url": "text",
          "valueString": "American Indian or Alaska Native"
        } ]
      }, {
        "url": "http://hl7.org/fhir/us/core/StructureDefinition/us-core-ethnicity",
        "extension": [ {
          "url": "ombCategory",
          "valueCoding": {
            "system": "urn:oid:2.16.840.1.113883.6.238",
            "code": "2135-2",
            "display": "Hispanic or Latino",
            "userSelected": true
          }
        }, {
          "url": "text",
          "valueString": "Hispanic or Latino"
        } ]
      } ],
      "identifier": [ {
        "type": {
          "coding": [ {
            "system": "http://terminology.hl7.org/CodeSystem/v2-0203",
            "code": "MR"
          } ]
        },
        "system": "https://bonnie-fhir.healthit.gov/",
        "value": "63487c300968f801225401c9"
      } ],
      "active": true,
      "name": [ {
        "use": "usual",
        "family": "DENOMFail",
        "given": [ "AssessTimeOfDelivResultAfterDelivEncEnd" ]
      } ],
      "gender": "female",
      "birthDate": "1998-02-14"
    },
    "request": {
      "method": "PUT",
      "url": "Patient/26e9dc17-8899-4ac1-b6d9-98606d331302"
    }
  }, {
    "fullUrl": "https://madie.cms.gov/Observation/012e3315-c188-4141-8a58-40783ebe1a62",
    "resource": {
      "resourceType": "Observation",
      "id": "012e3315-c188-4141-8a58-40783ebe1a62",
      "meta": {
        "profile": [ "http://hl7.org/fhir/us/qicore/StructureDefinition/qicore-simple-observation" ]
      },
      "status": "final",
      "category": [ {
        "coding": [ {
          "system": "http://terminology.hl7.org/CodeSystem/observation-category",
          "code": "exam",
          "display": "exam",
          "userSelected": true
        } ]
      } ],
      "code": {
        "coding": [ {
          "system": "http://loinc.org",
          "code": "11996-6"
        } ]
      },
      "subject": {
        "reference": "Patient/26e9dc17-8899-4ac1-b6d9-98606d331302"
      },
      "effectiveDateTime": "2026-03-09T08:00:00.000+00:00",
      "performer": [ {
        "reference": "Organization/example1",
        "display": "Hendricks Country Hospital"
      } ],
      "valueInteger": 1
    },
    "request": {
      "method": "PUT",
      "url": "Observation/012e3315-c188-4141-8a58-40783ebe1a62"
    }
  }, {
    "fullUrl": "https://madie.cms.gov/Observation/c4eb20ca-13d5-4188-92a3-e2e68686ca1a",
    "resource": {
      "resourceType": "Observation",
      "id": "c4eb20ca-13d5-4188-92a3-e2e68686ca1a",
      "meta": {
        "profile": [ "http://hl7.org/fhir/us/qicore/StructureDefinition/qicore-simple-observation" ]
      },
      "status": "final",
      "category": [ {
        "coding": [ {
          "system": "http://terminology.hl7.org/CodeSystem/observation-category",
          "code": "exam",
          "display": "exam",
          "userSelected": true
        } ]
      } ],
      "code": {
        "coding": [ {
          "system": "http://loinc.org",
          "code": "93857-1"
        } ]
      },
      "subject": {
        "reference": "Patient/26e9dc17-8899-4ac1-b6d9-98606d331302"
      },
      "effectiveDateTime": "2026-11-28T21:30:00.000+00:00",
      "performer": [ {
        "reference": "Organization/example1",
        "display": "Hendricks Country Hospital"
      } ],
      "valueDateTime": "2026-11-30T08:16:00.000+00:00"
    },
    "request": {
      "method": "PUT",
      "url": "Observation/c4eb20ca-13d5-4188-92a3-e2e68686ca1a"
    }
  }, {
    "fullUrl": "https://madie.cms.gov/Encounter/09495e1a-9f8a-4ee9-894e-510b003ebf83",
    "resource": {
      "resourceType": "Encounter",
      "id": "09495e1a-9f8a-4ee9-894e-510b003ebf83",
      "meta": {
        "profile": [ "http://hl7.org/fhir/us/qicore/StructureDefinition/qicore-encounter" ]
      },
      "status": "finished",
      "class": {
        "system": "http://terminology.hl7.org/CodeSystem/v3-ActCode",
        "code": "IMP",
        "display": "inpatient encounter"
      },
      "type": [ {
        "coding": [ {
          "system": "http://snomed.info/sct",
          "code": "8715000"
        } ]
      } ],
      "subject": {
        "reference": "Patient/26e9dc17-8899-4ac1-b6d9-98606d331302"
      },
      "period": {
        "start": "2026-11-28T08:00:00.000+00:00",
        "end": "2026-11-30T08:15:00.000+00:00"
      },
      "length": {
        "value": 2,
        "unit": "days"
      },
      "reasonCode": [ {
        "coding": [ {
          "system": "http://snomed.info/sct",
          "code": "169826009",
          "display": "Single live birth from singleton pregnancy (finding)"
        } ]
      } ]
    },
    "request": {
      "method": "PUT",
      "url": "Encounter/09495e1a-9f8a-4ee9-894e-510b003ebf83"
    }
  }, {
    "fullUrl": "https://madie.cms.gov/Procedure/3c2aa9b5-0f39-4a2a-90bb-7e64cf501acc",
    "resource": {
      "resourceType": "Procedure",
      "id": "3c2aa9b5-0f39-4a2a-90bb-7e64cf501acc",
      "meta": {
        "profile": [ "http://hl7.org/fhir/us/qicore/StructureDefinition/qicore-procedure" ]
      },
      "extension": [ {
        "url": "http://hl7.org/fhir/us/qicore/StructureDefinition/qicore-recorded",
        "valueDateTime": "2014-04-05T13:35:00.000+00:00"
      } ],
      "status": "completed",
      "code": {
        "coding": [ {
          "system": "http://snomed.info/sct",
          "code": "22633006"
        } ]
      },
      "subject": {
        "reference": "Patient/26e9dc17-8899-4ac1-b6d9-98606d331302"
      },
      "performedPeriod": {
        "start": "2026-11-28T20:00:00.000+00:00",
        "end": "2026-11-28T20:15:00.000+00:00"
      }
    },
    "request": {
      "method": "PUT",
      "url": "Procedure/3c2aa9b5-0f39-4a2a-90bb-7e64cf501acc"
    }
  }, {
    "fullUrl": "https://madie.cms.gov/Condition/46340d2b-ff2b-4f75-8d8e-e2bc51fc94cc",
    "resource": {
      "resourceType": "Condition",
      "id": "46340d2b-ff2b-4f75-8d8e-e2bc51fc94cc",
      "meta": {
        "profile": [ "http://hl7.org/fhir/us/qicore/StructureDefinition/qicore-condition" ]
      },
      "category": [ {
        "coding": [ {
          "system": "http://terminology.hl7.org/CodeSystem/condition-category",
          "code": "encounter-diagnosis",
          "display": "Encounter Diagnosis"
        } ]
      } ],
      "code": {
        "coding": [ {
          "system": "http://snomed.info/sct",
          "version": "2022-09",
          "code": "169826009",
          "display": "Single live birth (finding)",
          "userSelected": true
        } ]
      },
      "subject": {
        "reference": "Patient/26e9dc17-8899-4ac1-b6d9-98606d331302"
      },
      "recordedDate": "2026-10-21T08:00:00.000+00:00"
    },
    "request": {
      "method": "PUT",
      "url": "Condition/46340d2b-ff2b-4f75-8d8e-e2bc51fc94cc"
    }
  }, {
    "fullUrl": "https://madie.cms.gov/Coverage/61287467-cf94-4bb3-81de-0224a64bbf1c",
    "resource": {
      "resourceType": "Coverage",
      "id": "61287467-cf94-4bb3-81de-0224a64bbf1c",
      "meta": {
        "profile": [ "http://hl7.org/fhir/us/qicore/StructureDefinition/qicore-coverage" ]
      },
      "status": "active",
      "subscriberId": "523435",
      "beneficiary": {
        "reference": "Patient/26e9dc17-8899-4ac1-b6d9-98606d331302"
      },
      "relationship": {
        "coding": [ {
          "system": "http://terminology.hl7.org/CodeSystem/subscriber-relationship",
          "code": "self"
        } ]
      },
      "payor": [ {
        "reference": "Organization/289af81c-d55a-4c53-bc88-113940f1d673"
      } ]
    },
    "request": {
      "method": "PUT",
      "url": "Coverage/61287467-cf94-4bb3-81de-0224a64bbf1c"
    }
  }, {
    "fullUrl": "https://madie.cms.gov/Organization/289af81c-d55a-4c53-bc88-113940f1d673",
    "resource": {
      "resourceType": "Organization",
      "id": "289af81c-d55a-4c53-bc88-113940f1d673",
      "meta": {
        "profile": [ "http://hl7.org/fhir/us/qicore/StructureDefinition/qicore-organization" ]
      },
      "identifier": [ {
        "use": "temp",
        "system": "urn:oid:2.16.840.1.113883.4.4",
        "value": "21-3259825"
      } ],
      "active": true,
      "type": [ {
        "coding": [ {
          "system": "http://terminology.hl7.org/CodeSystem/organization-type",
          "code": "pay",
          "display": "Payer"
        } ]
      } ],
      "name": "Blue Cross Blue Shield of Texas",
      "telecom": [ {
        "system": "phone",
        "value": "(+1) 972-766-6900"
      } ],
      "address": [ {
        "use": "billing",
        "type": "postal",
        "line": [ "P.O. Box 660044" ],
        "city": "Dallas",
        "state": "TX",
        "postalCode": "75266-0044",
        "country": "USA"
      } ]
    },
    "request": {
      "method": "PUT",
      "url": "Organization/289af81c-d55a-4c53-bc88-113940f1d673"
    }
  }, {
    "fullUrl": "https://madie.cms.gov/Practitioner/846b3b05-69ef-42d2-92ec-7499a4b2262f",
    "resource": {
      "resourceType": "Practitioner",
      "id": "846b3b05-69ef-42d2-92ec-7499a4b2262f",
      "meta": {
        "profile": [ "http://hl7.org/fhir/us/qicore/StructureDefinition/qicore-practitioner" ]
      },
      "identifier": [ {
        "system": "http://hl7.org/fhir/sid/us-npi",
        "value": "123456"
      } ],
      "name": [ {
        "family": "Evil",
        "prefix": [ "Dr" ]
      } ]
    },
    "request": {
      "method": "PUT",
      "url": "Practitioner/846b3b05-69ef-42d2-92ec-7499a4b2262f"
    }
  }, {
    "fullUrl": "https://madie.cms.gov/MeasureReport/0c080acb-d7f6-4d67-ae69-8a87a78328ff",
    "resource": {
      "resourceType": "MeasureReport",
      "id": "0c080acb-d7f6-4d67-ae69-8a87a78328ff",
      "meta": {
        "profile": [ "http://hl7.org/fhir/us/cqfmeasures/StructureDefinition/test-case-cqfm" ]
      },
      "contained": [ {
        "resourceType": "Parameters",
        "id": "fb7b4a3a-4228-4ebd-8b64-064b0e95d3f1-parameters",
        "parameter": [ {
          "name": "subject",
          "valueString": "26e9dc17-8899-4ac1-b6d9-98606d331302"
        } ]
      } ],
      "extension": [ {
        "url": "http://hl7.org/fhir/StructureDefinition/cqf-inputParameters",
        "valueReference": {
          "reference": "#fb7b4a3a-4228-4ebd-8b64-064b0e95d3f1-parameters"
        }
      }, {
        "url": "http://hl7.org/fhir/us/cqfmeasures/StructureDefinition/cqfm-testCaseDescription",
        "valueMarkdown": "Passes IP, Gravida 1(auth 42 weeks)  and EGA 40 weeks;  Proc is not Cesarean Birth. LastTimeOfDelivery result afterDelivery Encounter EndTime.   \n"
      } ],
      "modifierExtension": [ {
        "url": "http://hl7.org/fhir/us/cqfmeasures/StructureDefinition/cqfm-isTestCase",
        "valueBoolean": true
      } ],
      "status": "complete",
      "type": "individual",
      "measure": "https://madie.cms.gov/Measure/CMS0334FHIRPCCesareanBirth",
      "period": {
        "start": "2026-01-01",
        "end": "2026-12-31"
      },
      "group": [ {
        "id": "Group_1",
        "population": [ {
          "id": "InitialPopulation_1",
          "code": {
            "coding": [ {
              "system": "http://terminology.hl7.org/CodeSystem/measure-population",
              "code": "initial-population",
              "display": "Initial Population"
            } ]
          },
          "count": 1
        }, {
          "id": "Denominator_1",
          "code": {
            "coding": [ {
              "system": "http://terminology.hl7.org/CodeSystem/measure-population",
              "code": "denominator",
              "display": "Denominator"
            } ]
          },
          "count": 0
        }, {
          "id": "DenominatorExclusion_1",
          "code": {
            "coding": [ {
              "system": "http://terminology.hl7.org/CodeSystem/measure-population",
              "code": "denominator-exclusion",
              "display": "Denominator Exclusion"
            } ]
          },
          "count": 0
        }, {
          "id": "Numerator_1",
          "code": {
            "coding": [ {
              "system": "http://terminology.hl7.org/CodeSystem/measure-population",
              "code": "numerator",
              "display": "Numerator"
            } ]
          },
          "count": 0
        } ],
        "measureScore": {
          "value": 0.0
        }
      } ],
      "evaluatedResource": [ {
        "reference": "Patient/26e9dc17-8899-4ac1-b6d9-98606d331302"
      }, {
        "reference": "Observation/012e3315-c188-4141-8a58-40783ebe1a62"
      }, {
        "reference": "Observation/c4eb20ca-13d5-4188-92a3-e2e68686ca1a"
      }, {
        "reference": "Encounter/09495e1a-9f8a-4ee9-894e-510b003ebf83"
      }, {
        "reference": "Procedure/3c2aa9b5-0f39-4a2a-90bb-7e64cf501acc"
      }, {
        "reference": "Condition/46340d2b-ff2b-4f75-8d8e-e2bc51fc94cc"
      }, {
        "reference": "Coverage/61287467-cf94-4bb3-81de-0224a64bbf1c"
      }, {
        "reference": "Organization/289af81c-d55a-4c53-bc88-113940f1d673"
      }, {
        "reference": "Practitioner/846b3b05-69ef-42d2-92ec-7499a4b2262f"
      } ]
    },
    "request": {
      "method": "PUT",
      "url": "MeasureReport/0c080acb-d7f6-4d67-ae69-8a87a78328ff"
    }
  } ]
}