{
  "resourceType": "Bundle",
  "id": "Patient-7-DENEXPass-TwoOutpatientVisitsDifferentDays",
  "type": "transaction",
  "entry": [ {
    "fullUrl": "https://madie.cms.gov/Patient/ac4d7076-d1cb-44c6-a94f-c2c86266d53b",
    "resource": {
      "resourceType": "Patient",
      "id": "ac4d7076-d1cb-44c6-a94f-c2c86266d53b",
      "meta": {
        "profile": [ "http://hl7.org/fhir/us/qicore/StructureDefinition/qicore-patient" ]
      },
      "extension": [ {
        "url": "http://hl7.org/fhir/us/core/StructureDefinition/us-core-race",
        "extension": [ {
          "url": "ombCategory",
          "valueCoding": {
            "system": "urn:oid:2.16.840.1.113883.6.238",
            "code": "2028-9",
            "display": "Asian",
            "userSelected": true
          }
        }, {
          "url": "text",
          "valueString": "Asian"
        } ]
      }, {
        "url": "http://hl7.org/fhir/us/core/StructureDefinition/us-core-ethnicity",
        "extension": [ {
          "url": "ombCategory",
          "valueCoding": {
            "system": "urn:oid:2.16.840.1.113883.6.238",
            "code": "2135-2",
            "display": "Hispanic or Latino",
            "userSelected": true
          }
        }, {
          "url": "text",
          "valueString": "Hispanic or Latino"
        } ]
      } ],
      "identifier": [ {
        "type": {
          "coding": [ {
            "system": "http://terminology.hl7.org/CodeSystem/v2-0203",
            "code": "MR"
          } ]
        },
        "system": "http://hospital.smarthealthit.org",
        "value": "999999995"
      } ],
      "name": [ {
        "family": "Bertha",
        "given": [ "Betty" ]
      } ],
      "gender": "female",
      "birthDate": "1957-12-31"
    },
    "request": {
      "method": "PUT",
      "url": "Patient/ac4d7076-d1cb-44c6-a94f-c2c86266d53b"
    }
  }, {
    "fullUrl": "https://madie.cms.gov/Encounter/430fba41-5954-4e3f-bb72-9c52b7dd884e",
    "resource": {
      "resourceType": "Encounter",
      "id": "430fba41-5954-4e3f-bb72-9c52b7dd884e",
      "meta": {
        "profile": [ "http://hl7.org/fhir/us/qicore/StructureDefinition/qicore-encounter" ]
      },
      "status": "finished",
      "class": {
        "system": "http://terminology.hl7.org/CodeSystem/v3-ActCode",
        "code": "AMB",
        "display": "ambulatory"
      },
      "type": [ {
        "coding": [ {
          "system": "http://snomed.info/sct",
          "code": "185460008",
          "display": "Home visit request by patient (procedure)"
        } ]
      } ],
      "subject": {
        "reference": "Patient/ac4d7076-d1cb-44c6-a94f-c2c86266d53b"
      },
      "period": {
        "start": "2026-01-01T00:00:00.000+00:00",
        "end": "2026-01-01T00:15:00.000+00:00"
      }
    },
    "request": {
      "method": "PUT",
      "url": "Encounter/430fba41-5954-4e3f-bb72-9c52b7dd884e"
    }
  }, {
    "fullUrl": "https://madie.cms.gov/Condition/3fad0f0f-458a-4e41-a1c0-be0484c38552",
    "resource": {
      "resourceType": "Condition",
      "id": "3fad0f0f-458a-4e41-a1c0-be0484c38552",
      "meta": {
        "profile": [ "http://hl7.org/fhir/us/qicore/StructureDefinition/qicore-condition-encounter-diagnosis" ]
      },
      "clinicalStatus": {
        "coding": [ {
          "system": "http://terminology.hl7.org/CodeSystem/condition-clinical",
          "code": "active"
        } ]
      },
      "category": [ {
        "coding": [ {
          "system": "http://terminology.hl7.org/CodeSystem/condition-category",
          "code": "encounter-diagnosis",
          "display": "Encounter Diagnosis"
        } ]
      } ],
      "code": {
        "coding": [ {
          "system": "http://snomed.info/sct",
          "code": "102781000119107",
          "display": "Sensory neuropathy due to type 1 diabetes mellitus (disorder)"
        } ]
      },
      "subject": {
        "reference": "Patient/ac4d7076-d1cb-44c6-a94f-c2c86266d53b"
      },
      "onsetDateTime": "2026-01-01T23:59:00.000+00:00"
    },
    "request": {
      "method": "PUT",
      "url": "Condition/3fad0f0f-458a-4e41-a1c0-be0484c38552"
    }
  }, {
    "fullUrl": "https://madie.cms.gov/Condition/6554f109-1941-4709-8a5d-a22e2f688dc6",
    "resource": {
      "resourceType": "Condition",
      "id": "6554f109-1941-4709-8a5d-a22e2f688dc6",
      "meta": {
        "profile": [ "http://hl7.org/fhir/us/qicore/StructureDefinition/qicore-condition-encounter-diagnosis" ]
      },
      "clinicalStatus": {
        "coding": [ {
          "system": "http://terminology.hl7.org/CodeSystem/condition-clinical",
          "code": "active"
        } ]
      },
      "category": [ {
        "coding": [ {
          "system": "http://terminology.hl7.org/CodeSystem/condition-category",
          "code": "encounter-diagnosis",
          "display": "Encounter Diagnosis"
        } ]
      } ],
      "code": {
        "coding": [ {
          "system": "http://snomed.info/sct",
          "code": "101421000119107",
          "display": "Dementia due to Parkinson's disease (disorder)"
        } ]
      },
      "subject": {
        "reference": "Patient/ac4d7076-d1cb-44c6-a94f-c2c86266d53b"
      },
      "onsetDateTime": "2025-12-31T23:59:59.000+00:00"
    },
    "request": {
      "method": "PUT",
      "url": "Condition/6554f109-1941-4709-8a5d-a22e2f688dc6"
    }
  }, {
    "fullUrl": "https://madie.cms.gov/Encounter/1970e29e-4ba2-4e3a-9592-3a05b827dbb2",
    "resource": {
      "resourceType": "Encounter",
      "id": "1970e29e-4ba2-4e3a-9592-3a05b827dbb2",
      "meta": {
        "profile": [ "http://hl7.org/fhir/us/qicore/StructureDefinition/qicore-encounter" ]
      },
      "status": "finished",
      "class": {
        "system": "http://terminology.hl7.org/CodeSystem/v3-ActCode",
        "code": "AMB",
        "display": "ambulatory"
      },
      "type": [ {
        "coding": [ {
          "system": "http://snomed.info/sct",
          "code": "4525004",
          "display": "Emergency department patient visit (procedure)"
        } ]
      } ],
      "subject": {
        "reference": "Patient/ac4d7076-d1cb-44c6-a94f-c2c86266d53b"
      },
      "period": {
        "start": "2025-12-31T00:00:00.000+00:00",
        "end": "2026-01-01T01:00:00.000+00:00"
      },
      "diagnosis": [ {
        "condition": {
          "reference": "Condition/6554f109-1941-4709-8a5d-a22e2f688dc6"
        }
      } ]
    },
    "request": {
      "method": "PUT",
      "url": "Encounter/1970e29e-4ba2-4e3a-9592-3a05b827dbb2"
    }
  }, {
    "fullUrl": "https://madie.cms.gov/Encounter/00dca3dc-d243-4a74-89af-7c577fe55697",
    "resource": {
      "resourceType": "Encounter",
      "id": "00dca3dc-d243-4a74-89af-7c577fe55697",
      "meta": {
        "profile": [ "http://hl7.org/fhir/us/qicore/StructureDefinition/qicore-encounter" ]
      },
      "status": "finished",
      "class": {
        "system": "http://terminology.hl7.org/CodeSystem/v3-ActCode",
        "code": "AMB",
        "display": "ambulatory"
      },
      "type": [ {
        "coding": [ {
          "system": "http://snomed.info/sct",
          "code": "4525004",
          "display": "Emergency department patient visit (procedure)"
        } ]
      } ],
      "subject": {
        "reference": "Patient/ac4d7076-d1cb-44c6-a94f-c2c86266d53b"
      },
      "period": {
        "start": "2026-05-01T00:00:00.000+00:00",
        "end": "2026-05-01T01:00:00.000+00:00"
      },
      "diagnosis": [ {
        "condition": {
          "reference": "Condition/6554f109-1941-4709-8a5d-a22e2f688dc6"
        }
      } ]
    },
    "request": {
      "method": "PUT",
      "url": "Encounter/00dca3dc-d243-4a74-89af-7c577fe55697"
    }
  }, {
    "fullUrl": "https://madie.cms.gov/DeviceRequest/e1613cbf-ef28-42ee-8afa-6f79051baf6b",
    "resource": {
      "resourceType": "DeviceRequest",
      "id": "e1613cbf-ef28-42ee-8afa-6f79051baf6b",
      "meta": {
        "profile": [ "http://hl7.org/fhir/us/qicore/StructureDefinition/qicore-devicerequest" ]
      },
      "modifierExtension": [ {
        "url": "http://hl7.org/fhir/5.0/StructureDefinition/extension-DeviceRequest.doNotPerform",
        "valueBoolean": false
      } ],
      "status": "completed",
      "intent": "order",
      "codeCodeableConcept": {
        "coding": [ {
          "system": "http://snomed.info/sct",
          "code": "183240000",
          "display": "Self-propelled wheelchair (physical object)"
        } ]
      },
      "subject": {
        "reference": "Patient/ac4d7076-d1cb-44c6-a94f-c2c86266d53b"
      },
      "authoredOn": "2026-11-01T23:59:00.000+00:00"
    },
    "request": {
      "method": "PUT",
      "url": "DeviceRequest/e1613cbf-ef28-42ee-8afa-6f79051baf6b"
    }
  }, {
    "fullUrl": "https://madie.cms.gov/MeasureReport/67ce8fb1-ed41-4823-ab6b-79dee31980f4",
    "resource": {
      "resourceType": "MeasureReport",
      "id": "67ce8fb1-ed41-4823-ab6b-79dee31980f4",
      "meta": {
        "profile": [ "http://hl7.org/fhir/us/cqfmeasures/StructureDefinition/test-case-cqfm" ]
      },
      "contained": [ {
        "resourceType": "Parameters",
        "id": "65fc522b-9716-411f-aba7-db01092fcf97-parameters",
        "parameter": [ {
          "name": "subject",
          "valueString": "ac4d7076-d1cb-44c6-a94f-c2c86266d53b"
        } ]
      } ],
      "extension": [ {
        "url": "http://hl7.org/fhir/StructureDefinition/cqf-inputParameters",
        "valueReference": {
          "reference": "#65fc522b-9716-411f-aba7-db01092fcf97-parameters"
        }
      }, {
        "url": "http://hl7.org/fhir/us/cqfmeasures/StructureDefinition/cqfm-testCaseDescription",
        "valueMarkdown": "Two outpatient visits on different days of service"
      } ],
      "modifierExtension": [ {
        "url": "http://hl7.org/fhir/us/cqfmeasures/StructureDefinition/cqfm-isTestCase",
        "valueBoolean": true
      } ],
      "status": "complete",
      "type": "individual",
      "measure": "https://madie.cms.gov/Measure/CMS122FHIRDiabetesAssessGT9Pct",
      "period": {
        "start": "2026-01-01",
        "end": "2026-12-31"
      },
      "group": [ {
        "id": "Group_1",
        "population": [ {
          "id": "InitialPopulation_1",
          "code": {
            "coding": [ {
              "system": "http://terminology.hl7.org/CodeSystem/measure-population",
              "code": "initial-population",
              "display": "Initial Population"
            } ]
          },
          "count": 1
        }, {
          "id": "Denominator_1",
          "code": {
            "coding": [ {
              "system": "http://terminology.hl7.org/CodeSystem/measure-population",
              "code": "denominator",
              "display": "Denominator"
            } ]
          },
          "count": 1
        }, {
          "id": "DenominatorExclusion_1",
          "code": {
            "coding": [ {
              "system": "http://terminology.hl7.org/CodeSystem/measure-population",
              "code": "denominator-exclusion",
              "display": "Denominator Exclusion"
            } ]
          },
          "count": 1
        }, {
          "id": "Numerator_1",
          "code": {
            "coding": [ {
              "system": "http://terminology.hl7.org/CodeSystem/measure-population",
              "code": "numerator",
              "display": "Numerator"
            } ]
          },
          "count": 0
        } ],
        "measureScore": {
          "value": 1.0
        }
      } ],
      "evaluatedResource": [ {
        "reference": "Patient/ac4d7076-d1cb-44c6-a94f-c2c86266d53b"
      }, {
        "reference": "Encounter/430fba41-5954-4e3f-bb72-9c52b7dd884e"
      }, {
        "reference": "Condition/3fad0f0f-458a-4e41-a1c0-be0484c38552"
      }, {
        "reference": "Condition/6554f109-1941-4709-8a5d-a22e2f688dc6"
      }, {
        "reference": "Encounter/1970e29e-4ba2-4e3a-9592-3a05b827dbb2"
      }, {
        "reference": "Encounter/00dca3dc-d243-4a74-89af-7c577fe55697"
      }, {
        "reference": "DeviceRequest/e1613cbf-ef28-42ee-8afa-6f79051baf6b"
      } ]
    },
    "request": {
      "method": "PUT",
      "url": "MeasureReport/67ce8fb1-ed41-4823-ab6b-79dee31980f4"
    }
  } ]
}