{
  "resourceType": "Bundle",
  "id": "6494496f8572d953d016cf78",
  "type": "collection",
  "entry": [ {
    "fullUrl": "https://madie.cms.gov/Patient/15d3fb71-37d0-4d5c-b504-4fd1c8b5b942",
    "resource": {
      "resourceType": "Patient",
      "id": "15d3fb71-37d0-4d5c-b504-4fd1c8b5b942",
      "meta": {
        "profile": [ "http://hl7.org/fhir/us/qicore/StructureDefinition/qicore-patient" ]
      },
      "extension": [ {
        "url": "http://hl7.org/fhir/us/core/StructureDefinition/us-core-race",
        "extension": [ {
          "url": "ombCategory",
          "valueCoding": {
            "system": "urn:oid:2.16.840.1.113883.6.238",
            "code": "2106-3",
            "display": "White",
            "userSelected": true
          }
        }, {
          "url": "text",
          "valueString": "White"
        } ]
      }, {
        "url": "http://hl7.org/fhir/us/core/StructureDefinition/us-core-ethnicity",
        "extension": [ {
          "url": "ombCategory",
          "valueCoding": {
            "system": "urn:oid:2.16.840.1.113883.6.238",
            "code": "2135-2",
            "display": "Hispanic or Latino",
            "userSelected": true
          }
        }, {
          "url": "text",
          "valueString": "Hispanic or Latino"
        } ]
      } ],
      "identifier": [ {
        "type": {
          "coding": [ {
            "system": "http://terminology.hl7.org/CodeSystem/v2-0203",
            "code": "MR"
          } ]
        },
        "system": "https://bonnie-fhir.healthit.gov/",
        "value": "6494496f8572d953d016cf78"
      } ],
      "name": [ {
        "family": "IPFail",
        "given": [ "HIVDxinDecofMP" ]
      } ],
      "gender": "female",
      "birthDate": "1991-02-09"
    }
  }, {
    "fullUrl": "https://madie.cms.gov/Condition/ae0780dc-a111-4d8a-9593-7a3478f437d7",
    "resource": {
      "resourceType": "Condition",
      "id": "ae0780dc-a111-4d8a-9593-7a3478f437d7",
      "meta": {
        "profile": [ "http://hl7.org/fhir/us/qicore/StructureDefinition/qicore-condition-problems-health-concerns" ]
      },
      "clinicalStatus": {
        "coding": [ {
          "system": "http://terminology.hl7.org/CodeSystem/condition-clinical",
          "code": "active",
          "display": "active",
          "userSelected": true
        } ]
      },
      "category": [ {
        "coding": [ {
          "system": "http://terminology.hl7.org/CodeSystem/condition-category",
          "code": "problem-list-item",
          "display": "Problem List Item"
        } ]
      } ],
      "code": {
        "coding": [ {
          "system": "http://snomed.info/sct",
          "version": "http://snomed.info/sct/731000124108/version/20250301",
          "code": "1142045004",
          "userSelected": true
        } ]
      },
      "subject": {
        "reference": "Patient/15d3fb71-37d0-4d5c-b504-4fd1c8b5b942"
      },
      "onsetDateTime": "2026-12-02T12:00:00.000+00:00",
      "recordedDate": "2026-12-02T13:01:00.000+00:00"
    }
  }, {
    "fullUrl": "https://madie.cms.gov/Encounter/69e8369b-6ad9-404e-9d12-19a39ce3cfc6",
    "resource": {
      "resourceType": "Encounter",
      "id": "69e8369b-6ad9-404e-9d12-19a39ce3cfc6",
      "meta": {
        "profile": [ "http://hl7.org/fhir/us/qicore/StructureDefinition/qicore-encounter" ]
      },
      "status": "finished",
      "class": {
        "system": "http://terminology.hl7.org/CodeSystem/v3-ActCode",
        "code": "AMB",
        "display": "ambulatory"
      },
      "type": [ {
        "coding": [ {
          "system": "http://snomed.info/sct",
          "version": "2022-09",
          "code": "185317003",
          "display": "Telephone encounter (procedure)",
          "userSelected": true
        } ]
      } ],
      "subject": {
        "reference": "Patient/15d3fb71-37d0-4d5c-b504-4fd1c8b5b942"
      },
      "period": {
        "start": "2026-03-07T07:30:00.000+00:00",
        "end": "2026-03-07T08:15:00.000+00:00"
      }
    }
  }, {
    "fullUrl": "https://madie.cms.gov/Coverage/edaa25f5-b496-4ef6-9776-dcb87c74ebcd",
    "resource": {
      "resourceType": "Coverage",
      "id": "edaa25f5-b496-4ef6-9776-dcb87c74ebcd",
      "meta": {
        "profile": [ "http://hl7.org/fhir/us/qicore/StructureDefinition/qicore-coverage" ]
      },
      "status": "active",
      "subscriberId": "123456",
      "beneficiary": {
        "reference": "Patient/15d3fb71-37d0-4d5c-b504-4fd1c8b5b942"
      },
      "relationship": {
        "coding": [ {
          "system": "http://terminology.hl7.org/CodeSystem/subscriber-relationship",
          "code": "self",
          "display": "Self"
        } ]
      },
      "payor": [ {
        "reference": "Organization/28df97f6-d730-420e-abc4-855ab07c1650"
      } ]
    }
  }, {
    "fullUrl": "https://madie.cms.gov/Organization/28df97f6-d730-420e-abc4-855ab07c1650",
    "resource": {
      "resourceType": "Organization",
      "id": "28df97f6-d730-420e-abc4-855ab07c1650",
      "meta": {
        "profile": [ "http://hl7.org/fhir/us/qicore/StructureDefinition/qicore-organization" ]
      },
      "identifier": [ {
        "use": "temp",
        "system": "urn:oid:2.16.840.1.113883.4.4",
        "value": "21-3259825"
      } ],
      "active": true,
      "type": [ {
        "coding": [ {
          "system": "http://terminology.hl7.org/CodeSystem/organization-type",
          "code": "pay",
          "display": "Payer"
        } ]
      } ],
      "name": "Blue Cross Blue Shield of Texas",
      "telecom": [ {
        "system": "phone",
        "value": "(+1) 972-766-6900"
      } ],
      "address": [ {
        "use": "billing",
        "type": "postal",
        "line": [ "P.O. Box 660044" ],
        "city": "Dallas",
        "state": "TX",
        "postalCode": "75266-0044",
        "country": "USA"
      } ]
    }
  }, {
    "fullUrl": "https://madie.cms.gov/Practitioner/16e7362b-bd0b-4fe6-8532-0eba96a00fb3",
    "resource": {
      "resourceType": "Practitioner",
      "id": "16e7362b-bd0b-4fe6-8532-0eba96a00fb3",
      "meta": {
        "profile": [ "http://hl7.org/fhir/us/qicore/StructureDefinition/qicore-practitioner" ]
      },
      "identifier": [ {
        "system": "http://hl7.org/fhir/sid/us-npi",
        "value": "1689411712"
      } ],
      "name": [ {
        "family": "Evil",
        "prefix": [ "Dr" ]
      } ]
    }
  }, {
    "fullUrl": "https://madie.cms.gov/MeasureReport/a3fe9500-3d94-4817-a20a-6c0fb93931f6",
    "resource": {
      "resourceType": "MeasureReport",
      "id": "a3fe9500-3d94-4817-a20a-6c0fb93931f6",
      "meta": {
        "profile": [ "http://hl7.org/fhir/us/cqfmeasures/StructureDefinition/test-case-cqfm" ]
      },
      "contained": [ {
        "resourceType": "Parameters",
        "id": "e50d5bfe-19be-4033-9ffa-5dd60bfc9df9-parameters",
        "parameter": [ {
          "name": "subject",
          "valueString": "15d3fb71-37d0-4d5c-b504-4fd1c8b5b942"
        } ]
      } ],
      "extension": [ {
        "url": "http://hl7.org/fhir/StructureDefinition/cqf-inputParameters",
        "valueReference": {
          "reference": "#e50d5bfe-19be-4033-9ffa-5dd60bfc9df9-parameters"
        }
      }, {
        "url": "http://hl7.org/fhir/us/cqfmeasures/StructureDefinition/cqfm-testCaseDescription",
        "valueMarkdown": "HIV diagnosis made in December of MP (not in first 90 days) with a qualifying encounter during MP"
      } ],
      "modifierExtension": [ {
        "url": "http://hl7.org/fhir/us/cqfmeasures/StructureDefinition/cqfm-isTestCase",
        "valueBoolean": true
      } ],
      "status": "complete",
      "type": "individual",
      "measure": "https://madie.cms.gov/Measure/CMS314FHIRHIVViralSuppression",
      "period": {
        "start": "2026-01-01",
        "end": "2026-12-31"
      },
      "group": [ {
        "id": "Group_1",
        "population": [ {
          "id": "InitialPopulation_1",
          "code": {
            "coding": [ {
              "system": "http://terminology.hl7.org/CodeSystem/measure-population",
              "code": "initial-population",
              "display": "Initial Population"
            } ]
          },
          "count": 0
        }, {
          "id": "Denominator_1",
          "code": {
            "coding": [ {
              "system": "http://terminology.hl7.org/CodeSystem/measure-population",
              "code": "denominator",
              "display": "Denominator"
            } ]
          },
          "count": 0
        }, {
          "id": "Numerator_1",
          "code": {
            "coding": [ {
              "system": "http://terminology.hl7.org/CodeSystem/measure-population",
              "code": "numerator",
              "display": "Numerator"
            } ]
          },
          "count": 0
        } ],
        "measureScore": {
          "value": 1.0
        }
      } ],
      "evaluatedResource": [ {
        "reference": "Patient/15d3fb71-37d0-4d5c-b504-4fd1c8b5b942"
      }, {
        "reference": "Condition/ae0780dc-a111-4d8a-9593-7a3478f437d7"
      }, {
        "reference": "Encounter/69e8369b-6ad9-404e-9d12-19a39ce3cfc6"
      }, {
        "reference": "Coverage/edaa25f5-b496-4ef6-9776-dcb87c74ebcd"
      }, {
        "reference": "Organization/28df97f6-d730-420e-abc4-855ab07c1650"
      }, {
        "reference": "Practitioner/16e7362b-bd0b-4fe6-8532-0eba96a00fb3"
      } ]
    }
  } ]
}