{
  "resourceType": "Bundle",
  "id": "62fd4b6a0968f8012246b316",
  "type": "collection",
  "entry": [ {
    "fullUrl": "https://madie.cms.gov/Patient/c1b6ce43-8310-4776-8103-1e0d6bc08fc6",
    "resource": {
      "resourceType": "Patient",
      "id": "c1b6ce43-8310-4776-8103-1e0d6bc08fc6",
      "meta": {
        "profile": [ "http://hl7.org/fhir/us/qicore/StructureDefinition/qicore-patient" ]
      },
      "extension": [ {
        "url": "http://hl7.org/fhir/us/core/StructureDefinition/us-core-race",
        "extension": [ {
          "url": "ombCategory",
          "valueCoding": {
            "system": "urn:oid:2.16.840.1.113883.6.238",
            "code": "1002-5",
            "display": "American Indian or Alaska Native",
            "userSelected": true
          }
        }, {
          "url": "text",
          "valueString": "American Indian or Alaska Native"
        } ]
      }, {
        "url": "http://hl7.org/fhir/us/core/StructureDefinition/us-core-ethnicity",
        "extension": [ {
          "url": "ombCategory",
          "valueCoding": {
            "system": "urn:oid:2.16.840.1.113883.6.238",
            "code": "2135-2",
            "display": "Hispanic or Latino",
            "userSelected": true
          }
        }, {
          "url": "text",
          "valueString": "Hispanic or Latino"
        } ]
      } ],
      "identifier": [ {
        "type": {
          "coding": [ {
            "system": "http://terminology.hl7.org/CodeSystem/v2-0203",
            "code": "MR"
          } ]
        },
        "system": "https://bonnie-fhir.healthit.gov/",
        "value": "62fd4b6a0968f8012246b316"
      } ],
      "name": [ {
        "family": "NUMERFail",
        "given": [ "2Referrals1MinApart2ndClosed" ]
      } ],
      "gender": "female",
      "birthDate": "1990-12-31"
    }
  }, {
    "fullUrl": "https://madie.cms.gov/ServiceRequest/a42d8461-94b6-4f4d-ba82-74ee077e645f",
    "resource": {
      "resourceType": "ServiceRequest",
      "id": "a42d8461-94b6-4f4d-ba82-74ee077e645f",
      "meta": {
        "profile": [ "http://hl7.org/fhir/us/qicore/StructureDefinition/qicore-servicerequest" ]
      },
      "status": "active",
      "intent": "order",
      "code": {
        "coding": [ {
          "system": "http://snomed.info/sct",
          "version": "http://snomed.info/sct/731000124108/version/20250301",
          "code": "103696004",
          "display": "Patient referral to specialist (procedure)",
          "userSelected": true
        } ]
      },
      "subject": {
        "reference": "Patient/c1b6ce43-8310-4776-8103-1e0d6bc08fc6"
      },
      "authoredOn": "2026-06-06T08:00:00.000+00:00"
    }
  }, {
    "fullUrl": "https://madie.cms.gov/Task/e2ffa98d-fe58-4af6-8af4-7043c3c3e4ea",
    "resource": {
      "resourceType": "Task",
      "id": "e2ffa98d-fe58-4af6-8af4-7043c3c3e4ea",
      "meta": {
        "profile": [ "http://hl7.org/fhir/us/qicore/StructureDefinition/qicore-task" ]
      },
      "identifier": [ {
        "use": "official",
        "system": "http:/goodhealth.org/identifiers",
        "value": "20170201-002"
      } ],
      "basedOn": [ {
        "reference": "ServiceRequest/9aba5be7-3968-46e4-a53a-fde4f83b19e7"
      } ],
      "status": "failed",
      "intent": "order",
      "priority": "routine",
      "code": {
        "coding": [ {
          "system": "http://loinc.org",
          "version": "2.72",
          "code": "11488-4",
          "display": "Consult note",
          "userSelected": true
        } ]
      },
      "for": {
        "reference": "Patient/c1b6ce43-8310-4776-8103-1e0d6bc08fc6"
      },
      "executionPeriod": {
        "start": "2026-07-06T08:01:00.000+00:00",
        "end": "2026-07-06T08:15:00.000+00:00"
      }
    }
  }, {
    "fullUrl": "https://madie.cms.gov/ServiceRequest/9aba5be7-3968-46e4-a53a-fde4f83b19e7",
    "resource": {
      "resourceType": "ServiceRequest",
      "id": "9aba5be7-3968-46e4-a53a-fde4f83b19e7",
      "meta": {
        "profile": [ "http://hl7.org/fhir/us/qicore/StructureDefinition/qicore-servicerequest" ]
      },
      "status": "active",
      "intent": "order",
      "code": {
        "coding": [ {
          "system": "http://snomed.info/sct",
          "version": "http://snomed.info/sct/731000124108/version/20250301",
          "code": "103696004",
          "display": "Patient referral to specialist (procedure)",
          "userSelected": true
        } ]
      },
      "subject": {
        "reference": "Patient/c1b6ce43-8310-4776-8103-1e0d6bc08fc6"
      },
      "authoredOn": "2026-06-06T08:01:00.000+00:00"
    }
  }, {
    "fullUrl": "https://madie.cms.gov/Encounter/2d184ab1-5427-49b1-a7ec-524eaa44cc33",
    "resource": {
      "resourceType": "Encounter",
      "id": "2d184ab1-5427-49b1-a7ec-524eaa44cc33",
      "meta": {
        "profile": [ "http://hl7.org/fhir/us/qicore/StructureDefinition/qicore-encounter" ]
      },
      "status": "finished",
      "class": {
        "system": "http://terminology.hl7.org/CodeSystem/v3-ActCode",
        "code": "AMB",
        "display": "ambulatory"
      },
      "type": [ {
        "coding": [ {
          "system": "http://snomed.info/sct",
          "version": "2022-03",
          "code": "359960003",
          "display": "Ophthalmologic examination and evaluation under general anesthesia, limited (procedure)",
          "userSelected": true
        } ]
      } ],
      "subject": {
        "reference": "Patient/c1b6ce43-8310-4776-8103-1e0d6bc08fc6"
      },
      "period": {
        "start": "2026-05-27T08:00:00.000+00:00",
        "end": "2026-05-27T09:15:00.000+00:00"
      }
    }
  }, {
    "fullUrl": "https://madie.cms.gov/Coverage/845a5f3c-b9d7-4309-9501-a6e9ba49819e",
    "resource": {
      "resourceType": "Coverage",
      "id": "845a5f3c-b9d7-4309-9501-a6e9ba49819e",
      "meta": {
        "profile": [ "http://hl7.org/fhir/us/qicore/StructureDefinition/qicore-coverage" ]
      },
      "status": "active",
      "subscriberId": "123456",
      "beneficiary": {
        "reference": "Patient/c1b6ce43-8310-4776-8103-1e0d6bc08fc6"
      },
      "relationship": {
        "coding": [ {
          "system": "http://terminology.hl7.org/CodeSystem/subscriber-relationship",
          "code": "self",
          "display": "Self"
        } ]
      },
      "payor": [ {
        "reference": "Organization/4922ff0c-1714-4970-95ef-112b0e9cdffc"
      } ]
    }
  }, {
    "fullUrl": "https://madie.cms.gov/Organization/4922ff0c-1714-4970-95ef-112b0e9cdffc",
    "resource": {
      "resourceType": "Organization",
      "id": "4922ff0c-1714-4970-95ef-112b0e9cdffc",
      "meta": {
        "profile": [ "http://hl7.org/fhir/us/qicore/StructureDefinition/qicore-organization" ]
      },
      "identifier": [ {
        "use": "temp",
        "system": "urn:oid:2.16.840.1.113883.4.4",
        "value": "21-3259825"
      } ],
      "active": true,
      "type": [ {
        "coding": [ {
          "system": "http://terminology.hl7.org/CodeSystem/organization-type",
          "code": "pay",
          "display": "Payer"
        } ]
      } ],
      "name": "Blue Cross Blue Shield of Texas",
      "telecom": [ {
        "system": "phone",
        "value": "(+1) 972-766-6900"
      } ],
      "address": [ {
        "use": "billing",
        "type": "postal",
        "line": [ "P.O. Box 660044" ],
        "city": "Dallas",
        "state": "TX",
        "postalCode": "75266-0044",
        "country": "USA"
      } ]
    }
  }, {
    "fullUrl": "https://madie.cms.gov/Practitioner/961d60bf-a4c9-4326-964b-fbf38e152af3",
    "resource": {
      "resourceType": "Practitioner",
      "id": "961d60bf-a4c9-4326-964b-fbf38e152af3",
      "meta": {
        "profile": [ "http://hl7.org/fhir/us/qicore/StructureDefinition/qicore-practitioner" ]
      },
      "identifier": [ {
        "system": "http://hl7.org/fhir/sid/us-npi",
        "value": "1689411712"
      } ],
      "name": [ {
        "family": "Evil",
        "prefix": [ "Dr" ]
      } ]
    }
  }, {
    "fullUrl": "https://madie.cms.gov/MeasureReport/2f16fae5-f05a-4aa9-be4a-2a87282174df",
    "resource": {
      "resourceType": "MeasureReport",
      "id": "2f16fae5-f05a-4aa9-be4a-2a87282174df",
      "meta": {
        "profile": [ "http://hl7.org/fhir/us/cqfmeasures/StructureDefinition/test-case-cqfm" ]
      },
      "contained": [ {
        "resourceType": "Parameters",
        "id": "044f72d8-2e17-46ab-b162-bb04ffda18df-parameters",
        "parameter": [ {
          "name": "subject",
          "valueString": "c1b6ce43-8310-4776-8103-1e0d6bc08fc6"
        } ]
      } ],
      "extension": [ {
        "url": "http://hl7.org/fhir/StructureDefinition/cqf-inputParameters",
        "valueReference": {
          "reference": "#044f72d8-2e17-46ab-b162-bb04ffda18df-parameters"
        }
      }, {
        "url": "http://hl7.org/fhir/us/cqfmeasures/StructureDefinition/cqfm-testCaseDescription",
        "valueMarkdown": "2 Referrals 1 minute apart only 2nd referral closed."
      } ],
      "modifierExtension": [ {
        "url": "http://hl7.org/fhir/us/cqfmeasures/StructureDefinition/cqfm-isTestCase",
        "valueBoolean": true
      } ],
      "status": "complete",
      "type": "individual",
      "measure": "https://madie.cms.gov/Measure/CMS50FHIRReceiptofSpecialistReport",
      "period": {
        "start": "2026-01-01",
        "end": "2026-12-31"
      },
      "group": [ {
        "id": "Group_1",
        "population": [ {
          "id": "InitialPopulation_1",
          "code": {
            "coding": [ {
              "system": "http://terminology.hl7.org/CodeSystem/measure-population",
              "code": "initial-population",
              "display": "Initial Population"
            } ]
          },
          "count": 1
        }, {
          "id": "Denominator_1",
          "code": {
            "coding": [ {
              "system": "http://terminology.hl7.org/CodeSystem/measure-population",
              "code": "denominator",
              "display": "Denominator"
            } ]
          },
          "count": 1
        }, {
          "id": "Numerator_1",
          "code": {
            "coding": [ {
              "system": "http://terminology.hl7.org/CodeSystem/measure-population",
              "code": "numerator",
              "display": "Numerator"
            } ]
          },
          "count": 0
        } ],
        "measureScore": {
          "value": 1.0
        }
      } ],
      "evaluatedResource": [ {
        "reference": "Patient/c1b6ce43-8310-4776-8103-1e0d6bc08fc6"
      }, {
        "reference": "ServiceRequest/a42d8461-94b6-4f4d-ba82-74ee077e645f"
      }, {
        "reference": "Task/e2ffa98d-fe58-4af6-8af4-7043c3c3e4ea"
      }, {
        "reference": "ServiceRequest/9aba5be7-3968-46e4-a53a-fde4f83b19e7"
      }, {
        "reference": "Encounter/2d184ab1-5427-49b1-a7ec-524eaa44cc33"
      }, {
        "reference": "Coverage/845a5f3c-b9d7-4309-9501-a6e9ba49819e"
      }, {
        "reference": "Organization/4922ff0c-1714-4970-95ef-112b0e9cdffc"
      }, {
        "reference": "Practitioner/961d60bf-a4c9-4326-964b-fbf38e152af3"
      } ]
    }
  } ]
}