{
  "resourceType": "Bundle",
  "id": "633b3f9f0968f80122503cdb",
  "type": "transaction",
  "entry": [ {
    "fullUrl": "https://madie.cms.gov/Patient/973b0d7a-ac92-4882-9b38-0bfca797269f",
    "resource": {
      "resourceType": "Patient",
      "id": "973b0d7a-ac92-4882-9b38-0bfca797269f",
      "meta": {
        "profile": [ "http://hl7.org/fhir/us/qicore/StructureDefinition/qicore-patient" ]
      },
      "text": {
        "status": "generated",
        "div": "<div xmlns=\"http://www.w3.org/1999/xhtml\"><div class=\"hapiHeaderText\">RiskPlacentalAccretaSpectrumACCRETA<b>RISKPass</b></div><table class=\"hapiPropertyTable\"><tbody><tr><td>Date of birth</td><td><span>01 February 2004</span></td></tr></tbody></table></div>"
      },
      "extension": [ {
        "url": "http://hl7.org/fhir/us/core/StructureDefinition/us-core-race",
        "extension": [ {
          "url": "ombCategory",
          "valueCoding": {
            "system": "urn:oid:2.16.840.1.113883.6.238",
            "code": "1002-5",
            "display": "American Indian or Alaska Native",
            "userSelected": true
          }
        }, {
          "url": "text",
          "valueString": "American Indian or Alaska Native"
        } ]
      }, {
        "url": "http://hl7.org/fhir/us/core/StructureDefinition/us-core-ethnicity",
        "extension": [ {
          "url": "ombCategory",
          "valueCoding": {
            "system": "urn:oid:2.16.840.1.113883.6.238",
            "code": "2135-2",
            "display": "Hispanic or Latino",
            "userSelected": true
          }
        }, {
          "url": "text",
          "valueString": "Hispanic or Latino"
        } ]
      } ],
      "identifier": [ {
        "type": {
          "coding": [ {
            "system": "http://terminology.hl7.org/CodeSystem/v2-0203",
            "code": "MR"
          } ]
        },
        "system": "https://bonnie-fhir.healthit.gov/",
        "value": "633b3f9f0968f80122503cdb"
      } ],
      "active": true,
      "name": [ {
        "use": "usual",
        "family": "RISKPass",
        "given": [ "RiskPlacentalAccretaSpectrumACCRETA" ]
      } ],
      "gender": "female",
      "birthDate": "2005-02-01"
    },
    "request": {
      "method": "PUT",
      "url": "Patient/973b0d7a-ac92-4882-9b38-0bfca797269f"
    }
  }, {
    "fullUrl": "https://madie.cms.gov/Observation/80438718-20e6-40c6-b0a0-51f781ed8627",
    "resource": {
      "resourceType": "Observation",
      "id": "80438718-20e6-40c6-b0a0-51f781ed8627",
      "meta": {
        "profile": [ "http://hl7.org/fhir/us/qicore/StructureDefinition/qicore-simple-observation" ]
      },
      "status": "final",
      "category": [ {
        "coding": [ {
          "system": "http://terminology.hl7.org/CodeSystem/observation-category",
          "code": "exam",
          "display": "exam",
          "userSelected": true
        } ]
      } ],
      "code": {
        "coding": [ {
          "system": "http://loinc.org",
          "code": "93857-1"
        } ]
      },
      "subject": {
        "reference": "Patient/973b0d7a-ac92-4882-9b38-0bfca797269f"
      },
      "effectiveDateTime": "2026-02-01T08:00:00.000+00:00",
      "performer": [ {
        "reference": "Organization/example1",
        "display": "Hendricks Country Hospital"
      } ],
      "valueDateTime": "2026-02-01T08:00:00.000+00:00"
    },
    "request": {
      "method": "PUT",
      "url": "Observation/80438718-20e6-40c6-b0a0-51f781ed8627"
    }
  }, {
    "fullUrl": "https://madie.cms.gov/Observation/9cd87c5d-44a3-4208-8a19-6a0a4bddbe4d",
    "resource": {
      "resourceType": "Observation",
      "id": "9cd87c5d-44a3-4208-8a19-6a0a4bddbe4d",
      "meta": {
        "profile": [ "http://hl7.org/fhir/us/qicore/StructureDefinition/qicore-simple-observation" ]
      },
      "status": "final",
      "category": [ {
        "coding": [ {
          "system": "http://terminology.hl7.org/CodeSystem/observation-category",
          "code": "exam",
          "display": "exam",
          "userSelected": true
        } ]
      } ],
      "code": {
        "coding": [ {
          "system": "http://loinc.org",
          "code": "11884-4"
        } ]
      },
      "subject": {
        "reference": "Patient/973b0d7a-ac92-4882-9b38-0bfca797269f"
      },
      "effectiveDateTime": "2026-02-01T08:00:00.000+00:00",
      "performer": [ {
        "reference": "Organization/example1",
        "display": "Hendricks Country Hospital"
      } ],
      "valueQuantity": {
        "value": 20,
        "system": "http://unitsofmeasure.org",
        "code": "wk"
      }
    },
    "request": {
      "method": "PUT",
      "url": "Observation/9cd87c5d-44a3-4208-8a19-6a0a4bddbe4d"
    }
  }, {
    "fullUrl": "https://madie.cms.gov/Encounter/5d4927ec-deb2-4be6-80ce-b0ebc2109210",
    "resource": {
      "resourceType": "Encounter",
      "id": "5d4927ec-deb2-4be6-80ce-b0ebc2109210",
      "meta": {
        "profile": [ "http://hl7.org/fhir/us/qicore/StructureDefinition/qicore-encounter" ]
      },
      "status": "finished",
      "class": {
        "system": "http://terminology.hl7.org/CodeSystem/v3-ActCode",
        "code": "IMP",
        "display": "inpatient encounter"
      },
      "type": [ {
        "coding": [ {
          "system": "http://snomed.info/sct",
          "code": "183452005"
        } ]
      } ],
      "subject": {
        "reference": "Patient/973b0d7a-ac92-4882-9b38-0bfca797269f"
      },
      "period": {
        "start": "2026-02-01T08:00:00.000+00:00",
        "end": "2026-02-05T08:15:00.000+00:00"
      }
    },
    "request": {
      "method": "PUT",
      "url": "Encounter/5d4927ec-deb2-4be6-80ce-b0ebc2109210"
    }
  }, {
    "fullUrl": "https://madie.cms.gov/Coverage/a7c6c8f4-2053-4ad3-b0ef-7accde9cdcdb",
    "resource": {
      "resourceType": "Coverage",
      "id": "a7c6c8f4-2053-4ad3-b0ef-7accde9cdcdb",
      "status": "active",
      "subscriberId": "523435",
      "beneficiary": {
        "reference": "Patient/973b0d7a-ac92-4882-9b38-0bfca797269f"
      },
      "relationship": {
        "coding": [ {
          "system": "http://terminology.hl7.org/CodeSystem/subscriber-relationship",
          "code": "self"
        } ]
      },
      "period": {
        "start": "2005-02-01T08:00:00.000+00:00"
      },
      "payor": [ {
        "reference": "Organization/a7396573-2ada-4d36-9aff-5640ec06a96b"
      } ]
    },
    "request": {
      "method": "PUT",
      "url": "Coverage/a7c6c8f4-2053-4ad3-b0ef-7accde9cdcdb"
    }
  }, {
    "fullUrl": "https://madie.cms.gov/Procedure/817e0f2b-909c-4097-b93a-fe29c1510a8a",
    "resource": {
      "resourceType": "Procedure",
      "id": "817e0f2b-909c-4097-b93a-fe29c1510a8a",
      "meta": {
        "profile": [ "http://hl7.org/fhir/us/qicore/StructureDefinition/qicore-procedure" ]
      },
      "extension": [ {
        "url": "http://hl7.org/fhir/us/qicore/StructureDefinition/qicore-recorded",
        "valueDateTime": "2014-04-05T13:35:00.000+00:00"
      } ],
      "status": "completed",
      "code": {
        "coding": [ {
          "system": "http://snomed.info/sct",
          "code": "10745001"
        } ]
      },
      "subject": {
        "reference": "Patient/973b0d7a-ac92-4882-9b38-0bfca797269f"
      },
      "performedPeriod": {
        "start": "2026-02-01T08:00:00.000+00:00",
        "end": "2026-02-05T08:15:00.000+00:00"
      }
    },
    "request": {
      "method": "PUT",
      "url": "Procedure/817e0f2b-909c-4097-b93a-fe29c1510a8a"
    }
  }, {
    "fullUrl": "https://madie.cms.gov/Procedure/71d150d5-fc76-4ea7-b681-34e21bd7fa84",
    "resource": {
      "resourceType": "Procedure",
      "id": "71d150d5-fc76-4ea7-b681-34e21bd7fa84",
      "meta": {
        "profile": [ "http://hl7.org/fhir/us/qicore/StructureDefinition/qicore-procedure" ]
      },
      "extension": [ {
        "url": "http://hl7.org/fhir/us/qicore/StructureDefinition/qicore-recorded",
        "valueDateTime": "2026-02-01T04:01:00.000+00:00"
      } ],
      "status": "completed",
      "code": {
        "coding": [ {
          "system": "http://snomed.info/sct",
          "code": "11050006"
        } ]
      },
      "subject": {
        "reference": "Patient/973b0d7a-ac92-4882-9b38-0bfca797269f"
      },
      "performedPeriod": {
        "start": "2026-02-04T00:00:00.000+00:00",
        "end": "2026-02-04T11:59:00.000+00:00"
      }
    },
    "request": {
      "method": "PUT",
      "url": "Procedure/71d150d5-fc76-4ea7-b681-34e21bd7fa84"
    }
  }, {
    "fullUrl": "https://madie.cms.gov/Claim/b4f3e71d-d9fd-4f6f-b455-522899e7d593",
    "resource": {
      "resourceType": "Claim",
      "id": "b4f3e71d-d9fd-4f6f-b455-522899e7d593",
      "meta": {
        "profile": [ "http://hl7.org/fhir/us/qicore/StructureDefinition/qicore-claim" ]
      },
      "status": "active",
      "type": {
        "coding": [ {
          "system": "http://terminology.hl7.org/CodeSystem/claim-type",
          "code": "institutional",
          "display": "Institutional"
        } ]
      },
      "use": "claim",
      "patient": {
        "reference": "Patient/973b0d7a-ac92-4882-9b38-0bfca797269f"
      },
      "created": "2026-11-08",
      "provider": {
        "reference": "Practitioner/10cdbbd3-0045-4d07-a0b8-077667bdc8ed"
      },
      "priority": {
        "coding": [ {
          "system": "http://terminology.hl7.org/CodeSystem/processpriority",
          "code": "normal"
        } ]
      },
      "diagnosis": [ {
        "sequence": 1,
        "diagnosisCodeableConcept": {
          "coding": [ {
            "system": "http://hl7.org/fhir/sid/icd-10-cm",
            "code": "O43.219",
            "display": "Placenta accreta, unspecified trimester"
          } ]
        },
        "type": [ {
          "coding": [ {
            "system": "http://terminology.hl7.org/CodeSystem/ex-diagnosistype",
            "code": "discharge",
            "display": "Discharge Diagnosis"
          } ]
        } ],
        "onAdmission": {
          "coding": [ {
            "system": "https://www.cms.gov/Medicare/Medicare-Fee-for-Service-Payment/HospitalAcqCond/Coding",
            "code": "Y"
          } ]
        }
      } ],
      "insurance": [ {
        "sequence": 1,
        "focal": true,
        "coverage": {
          "reference": "Coverage/Coverage-1"
        }
      } ],
      "item": [ {
        "sequence": 1,
        "careTeamSequence": [ 1 ],
        "diagnosisSequence": [ 1 ],
        "productOrService": {
          "coding": [ {
            "system": "http://www.ama-assn.org/go/cpt",
            "code": "99232"
          } ]
        },
        "encounter": [ {
          "reference": "Encounter/5d4927ec-deb2-4be6-80ce-b0ebc2109210"
        } ]
      }, {
        "sequence": 2,
        "careTeamSequence": [ 1 ],
        "diagnosisSequence": [ 2 ],
        "productOrService": {
          "coding": [ {
            "system": "http://www.ama-assn.org/go/cpt",
            "code": "99233"
          } ]
        },
        "encounter": [ {
          "reference": "Encounter/5d4927ec-deb2-4be6-80ce-b0ebc2109210"
        } ]
      } ],
      "total": {
        "value": 3800,
        "currency": "USD"
      }
    },
    "request": {
      "method": "PUT",
      "url": "Claim/b4f3e71d-d9fd-4f6f-b455-522899e7d593"
    }
  }, {
    "fullUrl": "https://madie.cms.gov/Organization/a7396573-2ada-4d36-9aff-5640ec06a96b",
    "resource": {
      "resourceType": "Organization",
      "id": "a7396573-2ada-4d36-9aff-5640ec06a96b",
      "meta": {
        "profile": [ "http://hl7.org/fhir/us/qicore/StructureDefinition/qicore-organization" ]
      },
      "identifier": [ {
        "use": "temp",
        "system": "urn:oid:2.16.840.1.113883.4.4",
        "value": "21-3259825"
      } ],
      "active": true,
      "type": [ {
        "coding": [ {
          "system": "http://terminology.hl7.org/CodeSystem/organization-type",
          "code": "pay",
          "display": "Payer"
        } ]
      } ],
      "name": "Blue Cross Blue Shield of Texas",
      "telecom": [ {
        "system": "phone",
        "value": "(+1) 972-766-6900"
      } ],
      "address": [ {
        "use": "billing",
        "type": "postal",
        "line": [ "P.O. Box 660044" ],
        "city": "Dallas",
        "state": "TX",
        "postalCode": "75266-0044",
        "country": "USA"
      } ]
    },
    "request": {
      "method": "PUT",
      "url": "Organization/a7396573-2ada-4d36-9aff-5640ec06a96b"
    }
  }, {
    "fullUrl": "https://madie.cms.gov/Practitioner/10cdbbd3-0045-4d07-a0b8-077667bdc8ed",
    "resource": {
      "resourceType": "Practitioner",
      "id": "10cdbbd3-0045-4d07-a0b8-077667bdc8ed",
      "meta": {
        "profile": [ "http://hl7.org/fhir/us/qicore/StructureDefinition/qicore-practitioner" ]
      },
      "identifier": [ {
        "system": "http://hl7.org/fhir/sid/us-npi",
        "value": "9999999896"
      } ],
      "name": [ {
        "family": "Evil",
        "prefix": [ "Dr" ]
      } ]
    },
    "request": {
      "method": "PUT",
      "url": "Practitioner/10cdbbd3-0045-4d07-a0b8-077667bdc8ed"
    }
  }, {
    "fullUrl": "https://madie.cms.gov/MeasureReport/82579d31-2f0c-42c4-a5e1-e015c92f4b7b",
    "resource": {
      "resourceType": "MeasureReport",
      "id": "82579d31-2f0c-42c4-a5e1-e015c92f4b7b",
      "meta": {
        "profile": [ "http://hl7.org/fhir/us/cqfmeasures/StructureDefinition/test-case-cqfm" ]
      },
      "contained": [ {
        "resourceType": "Parameters",
        "id": "78af45c1-e322-40bd-bec2-67480150fad0-parameters",
        "parameter": [ {
          "name": "subject",
          "valueString": "973b0d7a-ac92-4882-9b38-0bfca797269f"
        } ]
      } ],
      "extension": [ {
        "url": "http://hl7.org/fhir/StructureDefinition/cqf-inputParameters",
        "valueReference": {
          "reference": "#78af45c1-e322-40bd-bec2-67480150fad0-parameters"
        }
      }, {
        "url": "http://hl7.org/fhir/us/cqfmeasures/StructureDefinition/cqfm-testCaseDescription",
        "valueMarkdown": "Risk variable Placental Accreta Spectrum, \"placenta accreta, unspecified trimester\" in Placenta Accreta value set."
      } ],
      "modifierExtension": [ {
        "url": "http://hl7.org/fhir/us/cqfmeasures/StructureDefinition/cqfm-isTestCase",
        "valueBoolean": true
      } ],
      "status": "complete",
      "type": "individual",
      "measure": "https://madie.cms.gov/Measure/CMS1028FHIRPCSevereOBComps",
      "period": {
        "start": "2026-01-01",
        "end": "2026-12-31"
      },
      "group": [ {
        "id": "Group_1",
        "population": [ {
          "id": "InitialPopulation_1",
          "code": {
            "coding": [ {
              "system": "http://terminology.hl7.org/CodeSystem/measure-population",
              "code": "initial-population",
              "display": "Initial Population"
            } ]
          },
          "count": 1
        }, {
          "id": "Denominator_1",
          "code": {
            "coding": [ {
              "system": "http://terminology.hl7.org/CodeSystem/measure-population",
              "code": "denominator",
              "display": "Denominator"
            } ]
          },
          "count": 1
        }, {
          "id": "Numerator_1",
          "code": {
            "coding": [ {
              "system": "http://terminology.hl7.org/CodeSystem/measure-population",
              "code": "numerator",
              "display": "Numerator"
            } ]
          },
          "count": 1
        }, {
          "id": "NumeratorExclusion_1",
          "code": {
            "coding": [ {
              "system": "http://terminology.hl7.org/CodeSystem/measure-population",
              "code": "numerator-exclusion",
              "display": "Numerator Exclusion"
            } ]
          },
          "count": 0
        } ],
        "measureScore": {
          "value": 0.0
        }
      }, {
        "id": "Group_2",
        "population": [ {
          "id": "InitialPopulation_2",
          "code": {
            "coding": [ {
              "system": "http://terminology.hl7.org/CodeSystem/measure-population",
              "code": "initial-population",
              "display": "Initial Population"
            } ]
          },
          "count": 1
        }, {
          "id": "Denominator_2",
          "code": {
            "coding": [ {
              "system": "http://terminology.hl7.org/CodeSystem/measure-population",
              "code": "denominator",
              "display": "Denominator"
            } ]
          },
          "count": 1
        }, {
          "id": "Numerator_2",
          "code": {
            "coding": [ {
              "system": "http://terminology.hl7.org/CodeSystem/measure-population",
              "code": "numerator",
              "display": "Numerator"
            } ]
          },
          "count": 1
        }, {
          "id": "NumeratorExclusion_2",
          "code": {
            "coding": [ {
              "system": "http://terminology.hl7.org/CodeSystem/measure-population",
              "code": "numerator-exclusion",
              "display": "Numerator Exclusion"
            } ]
          },
          "count": 0
        } ],
        "measureScore": {
          "value": 0.0
        }
      } ],
      "evaluatedResource": [ {
        "reference": "Patient/973b0d7a-ac92-4882-9b38-0bfca797269f"
      }, {
        "reference": "Observation/80438718-20e6-40c6-b0a0-51f781ed8627"
      }, {
        "reference": "Observation/9cd87c5d-44a3-4208-8a19-6a0a4bddbe4d"
      }, {
        "reference": "Encounter/5d4927ec-deb2-4be6-80ce-b0ebc2109210"
      }, {
        "reference": "Coverage/a7c6c8f4-2053-4ad3-b0ef-7accde9cdcdb"
      }, {
        "reference": "Procedure/817e0f2b-909c-4097-b93a-fe29c1510a8a"
      }, {
        "reference": "Procedure/71d150d5-fc76-4ea7-b681-34e21bd7fa84"
      }, {
        "reference": "Claim/b4f3e71d-d9fd-4f6f-b455-522899e7d593"
      }, {
        "reference": "Organization/a7396573-2ada-4d36-9aff-5640ec06a96b"
      }, {
        "reference": "Practitioner/10cdbbd3-0045-4d07-a0b8-077667bdc8ed"
      } ]
    },
    "request": {
      "method": "PUT",
      "url": "MeasureReport/82579d31-2f0c-42c4-a5e1-e015c92f4b7b"
    }
  } ]
}