{
  "resourceType": "Bundle",
  "id": "64137a4e4b11b147841ab8f1",
  "type": "transaction",
  "entry": [ {
    "fullUrl": "https://madie.cms.gov/Patient/ed17f9e5-1200-49e3-a4fc-1c188d8932dc",
    "resource": {
      "resourceType": "Patient",
      "id": "ed17f9e5-1200-49e3-a4fc-1c188d8932dc",
      "meta": {
        "profile": [ "http://hl7.org/fhir/us/qicore/StructureDefinition/qicore-patient" ]
      },
      "extension": [ {
        "url": "http://hl7.org/fhir/us/core/StructureDefinition/us-core-race",
        "extension": [ {
          "url": "ombCategory",
          "valueCoding": {
            "system": "urn:oid:2.16.840.1.113883.6.238",
            "code": "2076-8",
            "display": "Native Hawaiian or Other Pacific Islander",
            "userSelected": true
          }
        }, {
          "url": "text",
          "valueString": "Native Hawaiian or Other Pacific Islander"
        } ]
      }, {
        "url": "http://hl7.org/fhir/us/core/StructureDefinition/us-core-ethnicity",
        "extension": [ {
          "url": "ombCategory",
          "valueCoding": {
            "system": "urn:oid:2.16.840.1.113883.6.238",
            "code": "2186-5",
            "display": "Not Hispanic or Latino",
            "userSelected": true
          }
        }, {
          "url": "text",
          "valueString": "Not Hispanic or Latino"
        } ]
      } ],
      "identifier": [ {
        "type": {
          "coding": [ {
            "system": "http://terminology.hl7.org/CodeSystem/v2-0203",
            "code": "MR"
          } ]
        },
        "system": "https://bonnie-fhir.healthit.gov/",
        "value": "64137a4e4b11b147841ab8f1"
      } ],
      "name": [ {
        "family": "DENOMPass",
        "given": [ "AnnualWellnessVisitDuringMP" ]
      } ],
      "gender": "female",
      "birthDate": "1999-01-01"
    },
    "request": {
      "method": "PUT",
      "url": "Patient/ed17f9e5-1200-49e3-a4fc-1c188d8932dc"
    }
  }, {
    "fullUrl": "https://madie.cms.gov/Condition/b0799db6-975c-4aee-992c-2a5df86d11f8",
    "resource": {
      "resourceType": "Condition",
      "id": "b0799db6-975c-4aee-992c-2a5df86d11f8",
      "meta": {
        "profile": [ "http://hl7.org/fhir/us/qicore/StructureDefinition/qicore-condition-problems-health-concerns" ]
      },
      "clinicalStatus": {
        "coding": [ {
          "system": "http://terminology.hl7.org/CodeSystem/condition-clinical",
          "code": "active",
          "display": "active",
          "userSelected": true
        } ]
      },
      "category": [ {
        "coding": [ {
          "system": "http://terminology.hl7.org/CodeSystem/condition-category",
          "code": "problem-list-item",
          "display": "Problem List Item",
          "userSelected": true
        } ]
      } ],
      "code": {
        "coding": [ {
          "system": "http://snomed.info/sct",
          "version": "2021-09",
          "code": "102781000119107",
          "display": "Sensory neuropathy due to type 1 diabetes mellitus (disorder)",
          "userSelected": true
        } ]
      },
      "subject": {
        "reference": "Patient/ed17f9e5-1200-49e3-a4fc-1c188d8932dc"
      },
      "onsetDateTime": "2025-07-14T08:00:00.000+00:00"
    },
    "request": {
      "method": "PUT",
      "url": "Condition/b0799db6-975c-4aee-992c-2a5df86d11f8"
    }
  }, {
    "fullUrl": "https://madie.cms.gov/Encounter/232ccb1d-167c-43a4-9f94-b1d6689ce830",
    "resource": {
      "resourceType": "Encounter",
      "id": "232ccb1d-167c-43a4-9f94-b1d6689ce830",
      "meta": {
        "profile": [ "http://hl7.org/fhir/us/qicore/StructureDefinition/qicore-encounter" ]
      },
      "status": "finished",
      "class": {
        "system": "http://terminology.hl7.org/CodeSystem/v3-ActCode",
        "code": "AMB",
        "display": "ambulatory",
        "userSelected": true
      },
      "type": [ {
        "coding": [ {
          "system": "http://snomed.info/sct",
          "version": "2021-09",
          "code": "444971000124105",
          "display": "Annual wellness visit (procedure)",
          "userSelected": true
        } ]
      } ],
      "subject": {
        "reference": "Patient/ed17f9e5-1200-49e3-a4fc-1c188d8932dc"
      },
      "period": {
        "start": "2026-03-15T20:00:00.000+00:00",
        "end": "2026-03-15T20:15:00.000+00:00"
      }
    },
    "request": {
      "method": "PUT",
      "url": "Encounter/232ccb1d-167c-43a4-9f94-b1d6689ce830"
    }
  }, {
    "fullUrl": "https://madie.cms.gov/MeasureReport/e769e58e-6958-4e2e-abb0-d414f74a0115",
    "resource": {
      "resourceType": "MeasureReport",
      "id": "e769e58e-6958-4e2e-abb0-d414f74a0115",
      "meta": {
        "profile": [ "http://hl7.org/fhir/us/cqfmeasures/StructureDefinition/test-case-cqfm" ]
      },
      "contained": [ {
        "resourceType": "Parameters",
        "id": "bfdde76b-d0ce-4cd5-b156-455c500aa3f2-parameters",
        "parameter": [ {
          "name": "subject",
          "valueString": "ed17f9e5-1200-49e3-a4fc-1c188d8932dc"
        } ]
      } ],
      "extension": [ {
        "url": "http://hl7.org/fhir/StructureDefinition/cqf-inputParameters",
        "valueReference": {
          "reference": "#bfdde76b-d0ce-4cd5-b156-455c500aa3f2-parameters"
        }
      }, {
        "url": "http://hl7.org/fhir/us/cqfmeasures/StructureDefinition/cqfm-testCaseDescription",
        "valueMarkdown": "This patient is 27 and has an active diabetes diagnosis and an annual wellness visit performed during the measurement period. This tests the denominator criteria.\n"
      } ],
      "modifierExtension": [ {
        "url": "http://hl7.org/fhir/us/cqfmeasures/StructureDefinition/cqfm-isTestCase",
        "valueBoolean": true
      } ],
      "status": "complete",
      "type": "individual",
      "measure": "https://madie.cms.gov/Measure/CMS951FHIRKidneyHealthEval",
      "period": {
        "start": "2026-01-01",
        "end": "2026-12-31"
      },
      "group": [ {
        "id": "Group_1",
        "population": [ {
          "id": "InitialPopulation_1",
          "code": {
            "coding": [ {
              "system": "http://terminology.hl7.org/CodeSystem/measure-population",
              "code": "initial-population",
              "display": "Initial Population"
            } ]
          },
          "count": 1
        }, {
          "id": "Denominator_1",
          "code": {
            "coding": [ {
              "system": "http://terminology.hl7.org/CodeSystem/measure-population",
              "code": "denominator",
              "display": "Denominator"
            } ]
          },
          "count": 1
        }, {
          "id": "DenominatorExclusion_1",
          "code": {
            "coding": [ {
              "system": "http://terminology.hl7.org/CodeSystem/measure-population",
              "code": "denominator-exclusion",
              "display": "Denominator Exclusion"
            } ]
          },
          "count": 0
        }, {
          "id": "Numerator_1",
          "code": {
            "coding": [ {
              "system": "http://terminology.hl7.org/CodeSystem/measure-population",
              "code": "numerator",
              "display": "Numerator"
            } ]
          },
          "count": 0
        } ],
        "measureScore": {
          "value": 1.0
        }
      } ],
      "evaluatedResource": [ {
        "reference": "Patient/ed17f9e5-1200-49e3-a4fc-1c188d8932dc"
      }, {
        "reference": "Condition/b0799db6-975c-4aee-992c-2a5df86d11f8"
      }, {
        "reference": "Encounter/232ccb1d-167c-43a4-9f94-b1d6689ce830"
      } ]
    },
    "request": {
      "method": "PUT",
      "url": "MeasureReport/e769e58e-6958-4e2e-abb0-d414f74a0115"
    }
  } ]
}