{
  "resourceType": "Bundle",
  "id": "NUMER2Pass-PsycotherapyAmbLocation",
  "type": "transaction",
  "entry": [ {
    "fullUrl": "https://madie.cms.gov/Patient/a7c60982-d2d3-4366-86c3-40179595f41c",
    "resource": {
      "resourceType": "Patient",
      "id": "a7c60982-d2d3-4366-86c3-40179595f41c",
      "meta": {
        "profile": [ "http://hl7.org/fhir/us/qicore/StructureDefinition/qicore-patient" ]
      },
      "extension": [ {
        "url": "http://hl7.org/fhir/us/core/StructureDefinition/us-core-race",
        "extension": [ {
          "url": "ombCategory",
          "valueCoding": {
            "system": "urn:oid:2.16.840.1.113883.6.238",
            "code": "2028-9",
            "display": "Asian",
            "userSelected": true
          }
        }, {
          "url": "text",
          "valueString": "Asian"
        } ]
      }, {
        "url": "http://hl7.org/fhir/us/core/StructureDefinition/us-core-ethnicity",
        "extension": [ {
          "url": "ombCategory",
          "valueCoding": {
            "system": "urn:oid:2.16.840.1.113883.6.238",
            "code": "2135-2",
            "display": "Hispanic or Latino",
            "userSelected": true
          }
        }, {
          "url": "text",
          "valueString": "Hispanic or Latino"
        } ]
      } ],
      "identifier": [ {
        "type": {
          "coding": [ {
            "system": "http://terminology.hl7.org/CodeSystem/v2-0203",
            "code": "MR"
          } ]
        },
        "system": "http://hospital.smarthealthit.org",
        "value": "999999995"
      } ],
      "name": [ {
        "family": "Bertha",
        "given": [ "Betty" ]
      } ],
      "gender": "female",
      "birthDate": "2016-12-31"
    },
    "request": {
      "method": "PUT",
      "url": "Patient/a7c60982-d2d3-4366-86c3-40179595f41c"
    }
  }, {
    "fullUrl": "https://madie.cms.gov/Encounter/2b2761ca-8297-4b29-9cfc-14ac98dee652",
    "resource": {
      "resourceType": "Encounter",
      "id": "2b2761ca-8297-4b29-9cfc-14ac98dee652",
      "meta": {
        "profile": [ "http://hl7.org/fhir/us/qicore/StructureDefinition/qicore-encounter" ]
      },
      "status": "finished",
      "class": {
        "system": "http://terminology.hl7.org/CodeSystem/v3-ActCode",
        "code": "AMB",
        "display": "ambulatory"
      },
      "type": [ {
        "coding": [ {
          "system": "http://snomed.info/sct",
          "code": "185464004",
          "display": "Out of hours visit - not night visit (procedure)"
        } ]
      } ],
      "subject": {
        "reference": "Patient/a7c60982-d2d3-4366-86c3-40179595f41c"
      },
      "period": {
        "start": "2026-01-01T00:00:00.000+00:00",
        "end": "2026-01-01T01:00:00.000+00:00"
      }
    },
    "request": {
      "method": "PUT",
      "url": "Encounter/2b2761ca-8297-4b29-9cfc-14ac98dee652"
    }
  }, {
    "fullUrl": "https://madie.cms.gov/MedicationRequest/dd76acd7-a90e-4db6-b114-829dc3783cb9",
    "resource": {
      "resourceType": "MedicationRequest",
      "id": "dd76acd7-a90e-4db6-b114-829dc3783cb9",
      "meta": {
        "profile": [ "http://hl7.org/fhir/us/qicore/StructureDefinition/qicore-medicationrequest" ]
      },
      "status": "completed",
      "intent": "order",
      "medicationCodeableConcept": {
        "coding": [ {
          "system": "http://www.nlm.nih.gov/research/umls/rxnorm",
          "code": "884173",
          "display": "clonidine hydrochloride 0.1 MG Oral Tablet"
        } ]
      },
      "subject": {
        "reference": "Patient/a7c60982-d2d3-4366-86c3-40179595f41c"
      },
      "authoredOn": "2026-01-02T00:00:00.000+00:00",
      "requester": {
        "reference": "Practitioner/example"
      },
      "dosageInstruction": [ {
        "timing": {
          "repeat": {
            "boundsPeriod": {
              "start": "2026-01-02T00:00:00.000+00:00",
              "end": "2026-07-30T23:59:59.000+00:00"
            }
          }
        }
      } ],
      "dispenseRequest": {
        "expectedSupplyDuration": {
          "value": 210,
          "system": "http://unitsofmeasure.org",
          "code": "d"
        }
      }
    },
    "request": {
      "method": "PUT",
      "url": "MedicationRequest/dd76acd7-a90e-4db6-b114-829dc3783cb9"
    }
  }, {
    "fullUrl": "https://madie.cms.gov/Encounter/a2933639-b76b-4999-9892-e839a1e664c8",
    "resource": {
      "resourceType": "Encounter",
      "id": "a2933639-b76b-4999-9892-e839a1e664c8",
      "meta": {
        "profile": [ "http://hl7.org/fhir/us/qicore/StructureDefinition/qicore-encounter" ]
      },
      "status": "finished",
      "class": {
        "system": "http://terminology.hl7.org/CodeSystem/v3-ActCode",
        "code": "AMB",
        "display": "ambulatory"
      },
      "type": [ {
        "coding": [ {
          "system": "http://www.ama-assn.org/go/cpt",
          "code": "90791",
          "display": "Psychiatric diagnostic evaluation"
        } ]
      } ],
      "subject": {
        "reference": "Patient/a7c60982-d2d3-4366-86c3-40179595f41c"
      },
      "period": {
        "start": "2026-01-31T00:00:00.000+00:00",
        "end": "2026-01-31T01:00:00.000+00:00"
      }
    },
    "request": {
      "method": "PUT",
      "url": "Encounter/a2933639-b76b-4999-9892-e839a1e664c8"
    }
  }, {
    "fullUrl": "https://madie.cms.gov/Encounter/822f5d5d-4027-49c0-aacb-e4548732182b",
    "resource": {
      "resourceType": "Encounter",
      "id": "822f5d5d-4027-49c0-aacb-e4548732182b",
      "meta": {
        "profile": [ "http://hl7.org/fhir/us/qicore/StructureDefinition/qicore-encounter" ]
      },
      "status": "finished",
      "class": {
        "system": "http://terminology.hl7.org/CodeSystem/v3-ActCode",
        "code": "AMB",
        "display": "ambulatory"
      },
      "type": [ {
        "coding": [ {
          "system": "http://www.ama-assn.org/go/cpt",
          "code": "90791",
          "display": "Psychiatric diagnostic evaluation"
        } ]
      } ],
      "subject": {
        "reference": "Patient/a7c60982-d2d3-4366-86c3-40179595f41c"
      },
      "period": {
        "start": "2026-06-30T00:00:00.000+00:00",
        "end": "2026-06-30T01:00:00.000+00:00"
      }
    },
    "request": {
      "method": "PUT",
      "url": "Encounter/822f5d5d-4027-49c0-aacb-e4548732182b"
    }
  }, {
    "fullUrl": "https://madie.cms.gov/Encounter/93d507a0-f028-424b-932e-a28141e58c90",
    "resource": {
      "resourceType": "Encounter",
      "id": "93d507a0-f028-424b-932e-a28141e58c90",
      "meta": {
        "profile": [ "http://hl7.org/fhir/us/qicore/StructureDefinition/qicore-encounter" ]
      },
      "status": "finished",
      "class": {
        "system": "http://terminology.hl7.org/CodeSystem/v3-ActCode",
        "code": "AMB",
        "display": "ambulatory"
      },
      "type": [ {
        "coding": [ {
          "system": "http://www.ama-assn.org/go/cpt",
          "code": "90849",
          "display": "Multiple-family group psychotherapy"
        } ]
      } ],
      "subject": {
        "reference": "Patient/a7c60982-d2d3-4366-86c3-40179595f41c"
      },
      "period": {
        "start": "2026-08-31T00:00:00.000+00:00",
        "end": "2026-08-31T01:00:00.000+00:00"
      },
      "location": [ {
        "location": {
          "reference": "Location/dfd38ecd-ebb7-493f-9fe3-d0590be30e9e"
        }
      } ]
    },
    "request": {
      "method": "PUT",
      "url": "Encounter/93d507a0-f028-424b-932e-a28141e58c90"
    }
  }, {
    "fullUrl": "https://madie.cms.gov/Location/dfd38ecd-ebb7-493f-9fe3-d0590be30e9e",
    "resource": {
      "resourceType": "Location",
      "id": "dfd38ecd-ebb7-493f-9fe3-d0590be30e9e",
      "meta": {
        "profile": [ "http://hl7.org/fhir/us/qicore/StructureDefinition/qicore-location" ]
      },
      "identifier": [ {
        "use": "temp",
        "system": "http://exampleoflocation.com",
        "value": "example"
      } ],
      "name": "Example Hospital",
      "type": [ {
        "coding": [ {
          "system": "http://snomed.info/sct",
          "code": "35971002",
          "display": "Ambulatory care site (environment)"
        } ]
      } ]
    },
    "request": {
      "method": "PUT",
      "url": "Location/dfd38ecd-ebb7-493f-9fe3-d0590be30e9e"
    }
  }, {
    "fullUrl": "https://madie.cms.gov/MeasureReport/17fec576-35b2-4730-b882-af0255fea8d1",
    "resource": {
      "resourceType": "MeasureReport",
      "id": "17fec576-35b2-4730-b882-af0255fea8d1",
      "meta": {
        "profile": [ "http://hl7.org/fhir/us/cqfmeasures/StructureDefinition/test-case-cqfm" ]
      },
      "contained": [ {
        "resourceType": "Parameters",
        "id": "a8c80cd3-4732-4317-b646-de7ea4525c8d-parameters",
        "parameter": [ {
          "name": "subject",
          "valueString": "a7c60982-d2d3-4366-86c3-40179595f41c"
        } ]
      } ],
      "extension": [ {
        "url": "http://hl7.org/fhir/StructureDefinition/cqf-inputParameters",
        "valueReference": {
          "reference": "#a8c80cd3-4732-4317-b646-de7ea4525c8d-parameters"
        }
      }, {
        "url": "http://hl7.org/fhir/us/cqfmeasures/StructureDefinition/cqfm-testCaseDescription",
        "valueMarkdown": "\tPsychotherapy at ambulatory location during initiation phase"
      } ],
      "modifierExtension": [ {
        "url": "http://hl7.org/fhir/us/cqfmeasures/StructureDefinition/cqfm-isTestCase",
        "valueBoolean": true
      } ],
      "status": "complete",
      "type": "individual",
      "measure": "https://madie.cms.gov/Measure/CMS136FHIRChildADHDMedFollowUp",
      "period": {
        "start": "2026-01-01",
        "end": "2026-12-31"
      },
      "group": [ {
        "id": "Group_1",
        "population": [ {
          "id": "InitialPopulation_1",
          "code": {
            "coding": [ {
              "system": "http://terminology.hl7.org/CodeSystem/measure-population",
              "code": "initial-population",
              "display": "Initial Population"
            } ]
          },
          "count": 1
        }, {
          "id": "Denominator_1",
          "code": {
            "coding": [ {
              "system": "http://terminology.hl7.org/CodeSystem/measure-population",
              "code": "denominator",
              "display": "Denominator"
            } ]
          },
          "count": 1
        }, {
          "id": "DenominatorExclusion_1",
          "code": {
            "coding": [ {
              "system": "http://terminology.hl7.org/CodeSystem/measure-population",
              "code": "denominator-exclusion",
              "display": "Denominator Exclusion"
            } ]
          },
          "count": 0
        }, {
          "id": "Numerator_1",
          "code": {
            "coding": [ {
              "system": "http://terminology.hl7.org/CodeSystem/measure-population",
              "code": "numerator",
              "display": "Numerator"
            } ]
          },
          "count": 1
        } ],
        "measureScore": {
          "value": 1.0
        }
      }, {
        "id": "Group_2",
        "population": [ {
          "id": "InitialPopulation_2",
          "code": {
            "coding": [ {
              "system": "http://terminology.hl7.org/CodeSystem/measure-population",
              "code": "initial-population",
              "display": "Initial Population"
            } ]
          },
          "count": 1
        }, {
          "id": "Denominator_2",
          "code": {
            "coding": [ {
              "system": "http://terminology.hl7.org/CodeSystem/measure-population",
              "code": "denominator",
              "display": "Denominator"
            } ]
          },
          "count": 1
        }, {
          "id": "DenominatorExclusion_2",
          "code": {
            "coding": [ {
              "system": "http://terminology.hl7.org/CodeSystem/measure-population",
              "code": "denominator-exclusion",
              "display": "Denominator Exclusion"
            } ]
          },
          "count": 0
        }, {
          "id": "Numerator_2",
          "code": {
            "coding": [ {
              "system": "http://terminology.hl7.org/CodeSystem/measure-population",
              "code": "numerator",
              "display": "Numerator"
            } ]
          },
          "count": 1
        } ],
        "measureScore": {
          "value": 1.0
        }
      } ],
      "evaluatedResource": [ {
        "reference": "Patient/a7c60982-d2d3-4366-86c3-40179595f41c"
      }, {
        "reference": "Encounter/2b2761ca-8297-4b29-9cfc-14ac98dee652"
      }, {
        "reference": "MedicationRequest/dd76acd7-a90e-4db6-b114-829dc3783cb9"
      }, {
        "reference": "Encounter/a2933639-b76b-4999-9892-e839a1e664c8"
      }, {
        "reference": "Encounter/822f5d5d-4027-49c0-aacb-e4548732182b"
      }, {
        "reference": "Encounter/93d507a0-f028-424b-932e-a28141e58c90"
      }, {
        "reference": "Location/dfd38ecd-ebb7-493f-9fe3-d0590be30e9e"
      } ]
    },
    "request": {
      "method": "PUT",
      "url": "MeasureReport/17fec576-35b2-4730-b882-af0255fea8d1"
    }
  } ]
}