{
  "resourceType": "Bundle",
  "id": "NUMERPass-Fibrinolytic30minofEDstart",
  "type": "transaction",
  "entry": [ {
    "fullUrl": "https://madie.cms.gov/Patient/b4219e21-be97-4f81-8a31-fee0035179c8",
    "resource": {
      "resourceType": "Patient",
      "id": "b4219e21-be97-4f81-8a31-fee0035179c8",
      "meta": {
        "profile": [ "http://hl7.org/fhir/us/qicore/StructureDefinition/qicore-patient" ]
      },
      "extension": [ {
        "url": "http://hl7.org/fhir/us/core/StructureDefinition/us-core-race",
        "extension": [ {
          "url": "ombCategory",
          "valueCoding": {
            "system": "urn:oid:2.16.840.1.113883.6.238",
            "code": "2054-5",
            "display": "Black or African American",
            "userSelected": true
          }
        }, {
          "url": "text",
          "valueString": "Black or African American"
        } ]
      }, {
        "url": "http://hl7.org/fhir/us/core/StructureDefinition/us-core-ethnicity",
        "extension": [ {
          "url": "ombCategory",
          "valueCoding": {
            "system": "urn:oid:2.16.840.1.113883.6.238",
            "code": "2186-5",
            "display": "Not Hispanic or Latino",
            "userSelected": true
          }
        }, {
          "url": "text",
          "valueString": "Not Hispanic or Latino"
        } ]
      }, {
        "url": "http://hl7.org/fhir/us/core/StructureDefinition/us-core-sex",
        "valueCode": "248152002"
      } ],
      "identifier": [ {
        "type": {
          "coding": [ {
            "system": "http://terminology.hl7.org/CodeSystem/v2-0203",
            "code": "MR"
          } ]
        },
        "system": "https://bonnie-fhir.healthit.gov/",
        "value": "NUMERPass-Fibrinolytic30minofEDstart"
      } ],
      "name": [ {
        "use": "usual",
        "family": "NUMPass",
        "given": [ "Fibrinolytic30MinOfEDStart" ]
      } ],
      "gender": "female",
      "birthDate": "1985-12-02"
    },
    "request": {
      "method": "PUT",
      "url": "Patient/b4219e21-be97-4f81-8a31-fee0035179c8"
    }
  }, {
    "fullUrl": "https://madie.cms.gov/Location/ea8fb9b8-3946-4d65-834a-98552458c249",
    "resource": {
      "resourceType": "Location",
      "id": "ea8fb9b8-3946-4d65-834a-98552458c249",
      "meta": {
        "profile": [ "http://hl7.org/fhir/us/qicore/StructureDefinition/qicore-location" ]
      },
      "identifier": [ {
        "use": "usual",
        "system": "http://exampleoflocation.com",
        "value": "ED-1.R3"
      } ],
      "name": "Emergency Department, first floor",
      "type": [ {
        "coding": [ {
          "system": "http://snomed.info/sct",
          "version": "20210611",
          "code": "4525004",
          "display": "Emergency department patient visit (procedure)",
          "userSelected": true
        } ]
      }, {
        "coding": [ {
          "system": "http://terminology.hl7.org/CodeSystem/v3-RoleCode",
          "version": "2019",
          "code": "ER",
          "display": "Emergency room",
          "userSelected": true
        } ]
      }, {
        "coding": [ {
          "system": "https://www.cdc.gov/nhsn/cdaportal/terminology/codesystem/hsloc.html",
          "version": "2022",
          "code": "1108-0",
          "display": "Emergency Department",
          "userSelected": true
        } ]
      } ]
    },
    "request": {
      "method": "PUT",
      "url": "Location/ea8fb9b8-3946-4d65-834a-98552458c249"
    }
  }, {
    "fullUrl": "https://madie.cms.gov/Encounter/f6c378c2-4807-4aad-a16f-eea10914ca23",
    "resource": {
      "resourceType": "Encounter",
      "id": "f6c378c2-4807-4aad-a16f-eea10914ca23",
      "meta": {
        "profile": [ "http://hl7.org/fhir/us/qicore/StructureDefinition/qicore-encounter" ]
      },
      "status": "finished",
      "class": {
        "system": "http://terminology.hl7.org/CodeSystem/v3-ActCode",
        "code": "EMER",
        "display": "emergency"
      },
      "type": [ {
        "coding": [ {
          "system": "http://snomed.info/sct",
          "code": "4525004",
          "display": "Emergency department patient visit (procedure)"
        } ]
      } ],
      "subject": {
        "reference": "Patient/b4219e21-be97-4f81-8a31-fee0035179c8"
      },
      "period": {
        "start": "2026-10-09T08:05:00.000+00:00",
        "end": "2026-10-10T07:15:00.000+00:00"
      },
      "reasonReference": [ {
        "reference": "Condition/9f06ee69-95e6-4de8-96b1-b0d31dac22d0"
      } ],
      "location": [ {
        "location": {
          "reference": "Location/ea8fb9b8-3946-4d65-834a-98552458c249"
        },
        "period": {
          "start": "2026-10-09T08:05:00.000+00:00",
          "end": "2026-10-10T07:15:00.000+00:00"
        }
      } ]
    },
    "request": {
      "method": "PUT",
      "url": "Encounter/f6c378c2-4807-4aad-a16f-eea10914ca23"
    }
  }, {
    "fullUrl": "https://madie.cms.gov/Condition/9f06ee69-95e6-4de8-96b1-b0d31dac22d0",
    "resource": {
      "resourceType": "Condition",
      "id": "9f06ee69-95e6-4de8-96b1-b0d31dac22d0",
      "meta": {
        "profile": [ "http://hl7.org/fhir/us/qicore/StructureDefinition/qicore-condition-encounter-diagnosis" ]
      },
      "clinicalStatus": {
        "coding": [ {
          "system": "http://terminology.hl7.org/CodeSystem/condition-clinical",
          "code": "active",
          "display": "Active",
          "userSelected": true
        } ]
      },
      "verificationStatus": {
        "coding": [ {
          "system": "http://terminology.hl7.org/CodeSystem/condition-ver-status",
          "code": "confirmed",
          "display": "Confirmed",
          "userSelected": true
        } ]
      },
      "category": [ {
        "coding": [ {
          "system": "http://terminology.hl7.org/CodeSystem/condition-category",
          "code": "encounter-diagnosis",
          "display": "Encounter Diagnosis",
          "userSelected": true
        } ]
      } ],
      "code": {
        "coding": [ {
          "system": "http://snomed.info/sct",
          "code": "401303003",
          "display": "Acute ST segment elevation myocardial infarction (disorder)",
          "userSelected": true
        } ]
      },
      "subject": {
        "reference": "Patient/b4219e21-be97-4f81-8a31-fee0035179c8"
      },
      "onsetPeriod": {
        "start": "2026-10-09T08:10:00.000+00:00"
      }
    },
    "request": {
      "method": "PUT",
      "url": "Condition/9f06ee69-95e6-4de8-96b1-b0d31dac22d0"
    }
  }, {
    "fullUrl": "https://madie.cms.gov/MedicationAdministration/a34df8ae-21e8-4be7-b0dd-552df881e5a6",
    "resource": {
      "resourceType": "MedicationAdministration",
      "id": "a34df8ae-21e8-4be7-b0dd-552df881e5a6",
      "meta": {
        "profile": [ "http://hl7.org/fhir/us/qicore/StructureDefinition/qicore-medicationadministration" ]
      },
      "status": "completed",
      "medicationCodeableConcept": {
        "coding": [ {
          "system": "http://www.nlm.nih.gov/research/umls/rxnorm",
          "code": "1804804",
          "display": "alteplase 50 MG Injection",
          "userSelected": true
        } ]
      },
      "subject": {
        "reference": "Patient/b4219e21-be97-4f81-8a31-fee0035179c8"
      },
      "effectiveDateTime": "2026-10-09T08:35:00.000+00:00"
    },
    "request": {
      "method": "PUT",
      "url": "MedicationAdministration/a34df8ae-21e8-4be7-b0dd-552df881e5a6"
    }
  }, {
    "fullUrl": "https://madie.cms.gov/Coverage/dd9f9aa6-54c0-47de-ae63-bda30789f66f",
    "resource": {
      "resourceType": "Coverage",
      "id": "dd9f9aa6-54c0-47de-ae63-bda30789f66f",
      "meta": {
        "profile": [ "http://hl7.org/fhir/us/qicore/StructureDefinition/qicore-coverage" ]
      },
      "identifier": [ {
        "type": {
          "coding": [ {
            "system": "http://terminology.hl7.org/CodeSystem/v2-0203",
            "code": "MB"
          } ]
        }
      } ],
      "status": "active",
      "type": {
        "coding": [ {
          "system": "https://nahdo.org/sopt",
          "code": "1",
          "display": "MEDICARE"
        } ]
      },
      "beneficiary": {
        "reference": "Patient/b4219e21-be97-4f81-8a31-fee0035179c8"
      },
      "relationship": {
        "coding": [ {
          "system": "http://terminology.hl7.org/CodeSystem/subscriber-relationship",
          "code": "self"
        } ]
      },
      "payor": [ {
        "reference": "Organization/NUMERPass-Fibrinolytic30minofEDstart-98"
      } ]
    },
    "request": {
      "method": "PUT",
      "url": "Coverage/dd9f9aa6-54c0-47de-ae63-bda30789f66f"
    }
  }, {
    "fullUrl": "https://madie.cms.gov/Organization/81f1a0fb-3136-4a49-ba82-a3c7b33b1a37",
    "resource": {
      "resourceType": "Organization",
      "id": "81f1a0fb-3136-4a49-ba82-a3c7b33b1a37",
      "meta": {
        "profile": [ "http://hl7.org/fhir/us/qicore/StructureDefinition/qicore-organization" ]
      },
      "identifier": [ {
        "use": "temp",
        "system": "urn:oid:2.16.840.1.113883.4.4",
        "value": "21-3259825"
      } ],
      "active": true,
      "type": [ {
        "coding": [ {
          "system": "http://terminology.hl7.org/CodeSystem/organization-type",
          "code": "pay",
          "display": "Payer"
        } ]
      } ],
      "name": "Blue Cross Blue Shield of Texas",
      "telecom": [ {
        "system": "phone",
        "value": "(+1) 972-766-6900"
      } ],
      "address": [ {
        "use": "billing",
        "type": "postal",
        "line": [ "P.O. Box 660044" ],
        "city": "Dallas",
        "state": "TX",
        "postalCode": "75266-0044",
        "country": "USA"
      } ]
    },
    "request": {
      "method": "PUT",
      "url": "Organization/81f1a0fb-3136-4a49-ba82-a3c7b33b1a37"
    }
  }, {
    "fullUrl": "https://madie.cms.gov/Practitioner/ebfb3cf4-978f-47b4-ae72-9be7d553888c",
    "resource": {
      "resourceType": "Practitioner",
      "id": "ebfb3cf4-978f-47b4-ae72-9be7d553888c",
      "meta": {
        "profile": [ "http://hl7.org/fhir/us/qicore/StructureDefinition/qicore-practitioner" ]
      },
      "identifier": [ {
        "system": "http://hl7.org/fhir/sid/us-npi",
        "value": "9999999896"
      } ],
      "name": [ {
        "family": "Evil",
        "prefix": [ "Dr" ]
      } ]
    },
    "request": {
      "method": "PUT",
      "url": "Practitioner/ebfb3cf4-978f-47b4-ae72-9be7d553888c"
    }
  }, {
    "fullUrl": "https://madie.cms.gov/MeasureReport/7a5ead70-59bb-4aa1-aa27-ad0b65999322",
    "resource": {
      "resourceType": "MeasureReport",
      "id": "7a5ead70-59bb-4aa1-aa27-ad0b65999322",
      "meta": {
        "profile": [ "http://hl7.org/fhir/us/cqfmeasures/StructureDefinition/test-case-cqfm" ]
      },
      "contained": [ {
        "resourceType": "Parameters",
        "id": "ae2c7d88-3d50-47f8-a9c6-9fd116d8046c-parameters",
        "parameter": [ {
          "name": "subject",
          "valueString": "b4219e21-be97-4f81-8a31-fee0035179c8"
        } ]
      } ],
      "extension": [ {
        "url": "http://hl7.org/fhir/StructureDefinition/cqf-inputParameters",
        "valueReference": {
          "reference": "#ae2c7d88-3d50-47f8-a9c6-9fd116d8046c-parameters"
        }
      }, {
        "url": "http://hl7.org/fhir/us/cqfmeasures/StructureDefinition/cqfm-testCaseDescription",
        "valueMarkdown": "Fibrinolytic Therapy 30 minutes of ED start"
      } ],
      "modifierExtension": [ {
        "url": "http://hl7.org/fhir/us/cqfmeasures/StructureDefinition/cqfm-isTestCase",
        "valueBoolean": true
      } ],
      "status": "complete",
      "type": "individual",
      "measure": "https://madie.cms.gov/Measure/CMS996FHIRAptTxforSTEMI",
      "period": {
        "start": "2026-01-01",
        "end": "2026-12-31"
      },
      "group": [ {
        "id": "Group_1",
        "population": [ {
          "id": "InitialPopulation_1",
          "code": {
            "coding": [ {
              "system": "http://terminology.hl7.org/CodeSystem/measure-population",
              "code": "initial-population",
              "display": "Initial Population"
            } ]
          },
          "count": 1
        }, {
          "id": "Denominator_1",
          "code": {
            "coding": [ {
              "system": "http://terminology.hl7.org/CodeSystem/measure-population",
              "code": "denominator",
              "display": "Denominator"
            } ]
          },
          "count": 1
        }, {
          "id": "DenominatorExclusion_1",
          "code": {
            "coding": [ {
              "system": "http://terminology.hl7.org/CodeSystem/measure-population",
              "code": "denominator-exclusion",
              "display": "Denominator Exclusion"
            } ]
          },
          "count": 0
        }, {
          "id": "Numerator_1",
          "code": {
            "coding": [ {
              "system": "http://terminology.hl7.org/CodeSystem/measure-population",
              "code": "numerator",
              "display": "Numerator"
            } ]
          },
          "count": 1
        }, {
          "id": "DenominatorException_1",
          "code": {
            "coding": [ {
              "system": "http://terminology.hl7.org/CodeSystem/measure-population",
              "code": "denominator-exception",
              "display": "Denominator Exception"
            } ]
          },
          "count": 0
        } ],
        "measureScore": {
          "value": 0.0
        }
      } ],
      "evaluatedResource": [ {
        "reference": "Patient/b4219e21-be97-4f81-8a31-fee0035179c8"
      }, {
        "reference": "Location/ea8fb9b8-3946-4d65-834a-98552458c249"
      }, {
        "reference": "Encounter/f6c378c2-4807-4aad-a16f-eea10914ca23"
      }, {
        "reference": "Condition/9f06ee69-95e6-4de8-96b1-b0d31dac22d0"
      }, {
        "reference": "MedicationAdministration/a34df8ae-21e8-4be7-b0dd-552df881e5a6"
      }, {
        "reference": "Coverage/dd9f9aa6-54c0-47de-ae63-bda30789f66f"
      }, {
        "reference": "Organization/81f1a0fb-3136-4a49-ba82-a3c7b33b1a37"
      }, {
        "reference": "Practitioner/ebfb3cf4-978f-47b4-ae72-9be7d553888c"
      } ]
    },
    "request": {
      "method": "PUT",
      "url": "MeasureReport/7a5ead70-59bb-4aa1-aa27-ad0b65999322"
    }
  } ]
}