{
  "resourceType": "Bundle",
  "id": "6129134e02c62a011f2e71b4",
  "type": "transaction",
  "entry": [ {
    "fullUrl": "https://madie.cms.gov/Patient/7c3ee345-c9da-4ce2-97e8-727de2e5023a",
    "resource": {
      "resourceType": "Patient",
      "id": "7c3ee345-c9da-4ce2-97e8-727de2e5023a",
      "meta": {
        "profile": [ "http://hl7.org/fhir/us/qicore/StructureDefinition/qicore-patient" ]
      },
      "text": {
        "status": "generated",
        "div": "<div xmlns=\"http://www.w3.org/1999/xhtml\"><div class=\"hapiHeaderText\">CMOdurED_ED=1hrObs=1hrBFEnc <b>DENEXPASS </b></div><table class=\"hapiPropertyTable\"><tbody><tr><td>Identifier</td><td>2af1bfa71528978fd91ee5e826bec671ef1ea1688c1d7786aa6df361c02306ba</td></tr><tr><td>Date of birth</td><td><span>21 August 1994</span></td></tr></tbody></table></div>"
      },
      "extension": [ {
        "url": "http://hl7.org/fhir/us/core/StructureDefinition/us-core-race",
        "extension": [ {
          "url": "ombCategory",
          "valueCoding": {
            "system": "urn:oid:2.16.840.1.113883.6.238",
            "code": "1002-5",
            "display": "American Indian or Alaska Native",
            "userSelected": true
          }
        }, {
          "url": "text",
          "valueString": "American Indian or Alaska Native"
        } ]
      }, {
        "url": "http://hl7.org/fhir/us/core/StructureDefinition/us-core-ethnicity",
        "extension": [ {
          "url": "ombCategory",
          "valueCoding": {
            "system": "urn:oid:2.16.840.1.113883.6.238",
            "code": "2135-2",
            "display": "Hispanic or Latino",
            "userSelected": true
          }
        }, {
          "url": "text",
          "valueString": "Hispanic or Latino"
        } ]
      } ],
      "identifier": [ {
        "type": {
          "coding": [ {
            "system": "http://terminology.hl7.org/CodeSystem/v2-0203",
            "code": "MR"
          } ]
        },
        "system": "https://bonnie-fhir.healthit.gov/",
        "value": "6129134e02c62a011f2e71b4"
      } ],
      "active": true,
      "name": [ {
        "use": "usual",
        "family": "DENEXPass",
        "given": [ "CMOdurED_ED=1hrObs=1hrBFEnc" ]
      } ],
      "gender": "male",
      "birthDate": "1995-08-21"
    },
    "request": {
      "method": "PUT",
      "url": "Patient/7c3ee345-c9da-4ce2-97e8-727de2e5023a"
    }
  }, {
    "fullUrl": "https://madie.cms.gov/Encounter/843f6459-7f11-4dde-a283-7f6d22baca70",
    "resource": {
      "resourceType": "Encounter",
      "id": "843f6459-7f11-4dde-a283-7f6d22baca70",
      "meta": {
        "profile": [ "http://hl7.org/fhir/us/qicore/StructureDefinition/qicore-encounter" ]
      },
      "status": "finished",
      "class": {
        "system": "http://terminology.hl7.org/CodeSystem/v3-ActCode",
        "code": "EMER",
        "display": "emergency",
        "userSelected": true
      },
      "type": [ {
        "coding": [ {
          "system": "http://snomed.info/sct",
          "code": "4525004"
        } ]
      } ],
      "subject": {
        "reference": "Patient/7c3ee345-c9da-4ce2-97e8-727de2e5023a"
      },
      "period": {
        "start": "2026-10-10T09:30:00.000+00:00",
        "end": "2026-10-10T10:30:00.000+00:00"
      },
      "length": {
        "value": 0,
        "unit": "days"
      }
    },
    "request": {
      "method": "PUT",
      "url": "Encounter/843f6459-7f11-4dde-a283-7f6d22baca70"
    }
  }, {
    "fullUrl": "https://madie.cms.gov/Encounter/b40b731a-63fc-4752-aed4-a4fcd0b28f98",
    "resource": {
      "resourceType": "Encounter",
      "id": "b40b731a-63fc-4752-aed4-a4fcd0b28f98",
      "meta": {
        "profile": [ "http://hl7.org/fhir/us/qicore/StructureDefinition/qicore-encounter" ]
      },
      "status": "finished",
      "class": {
        "system": "http://terminology.hl7.org/CodeSystem/v3-ActCode",
        "code": "OBSENC",
        "display": "observation encounter",
        "userSelected": true
      },
      "type": [ {
        "coding": [ {
          "system": "http://snomed.info/sct",
          "code": "448851000124103"
        } ]
      } ],
      "subject": {
        "reference": "Patient/7c3ee345-c9da-4ce2-97e8-727de2e5023a"
      },
      "period": {
        "start": "2026-10-10T10:30:00.000+00:00",
        "end": "2026-10-10T10:35:00.000+00:00"
      },
      "length": {
        "value": 0,
        "unit": "days"
      }
    },
    "request": {
      "method": "PUT",
      "url": "Encounter/b40b731a-63fc-4752-aed4-a4fcd0b28f98"
    }
  }, {
    "fullUrl": "https://madie.cms.gov/Encounter/97e8f7d0-74d0-4352-81d0-5d6c3f97ab2a",
    "resource": {
      "resourceType": "Encounter",
      "id": "97e8f7d0-74d0-4352-81d0-5d6c3f97ab2a",
      "meta": {
        "profile": [ "http://hl7.org/fhir/us/qicore/StructureDefinition/qicore-encounter" ]
      },
      "status": "finished",
      "class": {
        "system": "http://terminology.hl7.org/CodeSystem/v3-ActCode",
        "code": "IMP",
        "display": "inpatient encounter",
        "userSelected": true
      },
      "type": [ {
        "coding": [ {
          "system": "http://snomed.info/sct",
          "code": "32485007"
        } ]
      } ],
      "subject": {
        "reference": "Patient/7c3ee345-c9da-4ce2-97e8-727de2e5023a"
      },
      "period": {
        "start": "2026-10-10T10:35:00.000+00:00",
        "end": "2026-10-12T11:30:00.000+00:00"
      },
      "length": {
        "value": 2,
        "unit": "days"
      },
      "diagnosis": [ {
        "condition": {
          "reference": "Condition/e142c4f6-988d-43c2-a7b3-fe1171313b7e"
        },
        "use": {
          "coding": [ {
            "system": "http://terminology.hl7.org/CodeSystem/diagnosis-role",
            "code": "billing",
            "display": "Billing"
          } ]
        },
        "rank": 1
      } ]
    },
    "request": {
      "method": "PUT",
      "url": "Encounter/97e8f7d0-74d0-4352-81d0-5d6c3f97ab2a"
    }
  }, {
    "fullUrl": "https://madie.cms.gov/claim/5ca62962b8484628b8de1ec5",
    "resource": {
      "resourceType": "Claim",
      "id": "5ca62962b8484628b8de1ec5",
      "meta": {
        "profile": [ "http://hl7.org/fhir/us/qicore/StructureDefinition/qicore-claim" ]
      },
      "status": "active",
      "type": {
        "coding": [ {
          "system": "http://terminology.hl7.org/CodeSystem/claim-type",
          "code": "institutional"
        } ]
      },
      "use": "claim",
      "patient": {
        "reference": "Patient/d170a0a8-b5ad-4303-b6df-e304dd5f92ad"
      },
      "created": "2026-12-01",
      "provider": {
        "reference": "Practitioner/practitioner-123456"
      },
      "priority": {
        "coding": [ {
          "system": "http://terminology.hl7.org/CodeSystem/processpriority",
          "code": "normal"
        } ]
      },
      "diagnosis": [ {
        "sequence": 1,
        "diagnosisCodeableConcept": {
          "coding": [ {
            "system": "http://hl7.org/fhir/sid/icd-10-cm",
            "code": "I63.00"
          } ]
        },
        "type": [ {
          "coding": [ {
            "system": "http://terminology.hl7.org/CodeSystem/ex-diagnosistype",
            "code": "principal"
          } ]
        } ]
      } ],
      "insurance": [ {
        "sequence": 1,
        "focal": true,
        "coverage": {
          "reference": "Coverage/5fa041661c76ba66d9959367"
        }
      } ],
      "item": [ {
        "sequence": 1,
        "diagnosisSequence": [ 1 ],
        "productOrService": {
          "coding": [ {
            "system": "http://terminology.hl7.org/CodeSystem/ex-USCLS",
            "code": "99555"
          } ]
        },
        "encounter": [ {
          "reference": "Encounter/97e8f7d0-74d0-4352-81d0-5d6c3f97ab2a"
        } ]
      } ]
    },
    "request": {
      "method": "PUT",
      "url": "Claim/5ca62962b8484628b8de1ec5"
    }
  }, {
    "fullUrl": "https://madie.cms.gov/ServiceRequest/593f9f9b-dcc0-4d1a-a3f6-7d89f353ce89",
    "resource": {
      "resourceType": "ServiceRequest",
      "id": "593f9f9b-dcc0-4d1a-a3f6-7d89f353ce89",
      "meta": {
        "profile": [ "http://hl7.org/fhir/us/qicore/StructureDefinition/qicore-servicerequest" ]
      },
      "status": "active",
      "intent": "order",
      "code": {
        "coding": [ {
          "system": "http://snomed.info/sct",
          "code": "133918004"
        } ]
      },
      "subject": {
        "reference": "Patient/7c3ee345-c9da-4ce2-97e8-727de2e5023a"
      },
      "authoredOn": "2026-10-10T09:30:00.000+00:00"
    },
    "request": {
      "method": "PUT",
      "url": "ServiceRequest/593f9f9b-dcc0-4d1a-a3f6-7d89f353ce89"
    }
  }, {
    "fullUrl": "https://madie.cms.gov/Condition/e142c4f6-988d-43c2-a7b3-fe1171313b7e",
    "resource": {
      "resourceType": "Condition",
      "id": "e142c4f6-988d-43c2-a7b3-fe1171313b7e",
      "meta": {
        "profile": [ "http://hl7.org/fhir/us/qicore/StructureDefinition/qicore-condition" ]
      },
      "clinicalStatus": {
        "coding": [ {
          "system": "http://terminology.hl7.org/CodeSystem/condition-clinical",
          "code": "active"
        } ]
      },
      "verificationStatus": {
        "coding": [ {
          "system": "http://terminology.hl7.org/CodeSystem/condition-ver-status",
          "code": "confirmed"
        } ]
      },
      "category": [ {
        "coding": [ {
          "system": "http://terminology.hl7.org/CodeSystem/condition-category",
          "code": "encounter-diagnosis",
          "display": "Encounter Diagnosis"
        } ]
      } ],
      "code": {
        "coding": [ {
          "system": "http://snomed.info/sct",
          "version": "2020-09",
          "code": "111297002",
          "display": "Nonparalytic stroke (disorder)",
          "userSelected": true
        } ]
      },
      "subject": {
        "reference": "Patient/7c3ee345-c9da-4ce2-97e8-727de2e5023a"
      },
      "recordedDate": "2026-07-14T08:00:00.000+00:00"
    },
    "request": {
      "method": "PUT",
      "url": "Condition/e142c4f6-988d-43c2-a7b3-fe1171313b7e"
    }
  }, {
    "fullUrl": "https://madie.cms.gov/Coverage/95e171d8-c0a5-4f42-8eed-1aa24ac34114",
    "resource": {
      "resourceType": "Coverage",
      "id": "95e171d8-c0a5-4f42-8eed-1aa24ac34114",
      "meta": {
        "profile": [ "http://hl7.org/fhir/us/qicore/StructureDefinition/qicore-coverage" ]
      },
      "status": "active",
      "beneficiary": {
        "reference": "Patient/7c3ee345-c9da-4ce2-97e8-727de2e5023a"
      },
      "payor": [ {
        "reference": "Organization/e966f80d-7334-436b-b14e-8db6e3e94c66"
      } ]
    },
    "request": {
      "method": "PUT",
      "url": "Coverage/95e171d8-c0a5-4f42-8eed-1aa24ac34114"
    }
  }, {
    "fullUrl": "https://madie.cms.gov/Organization/e966f80d-7334-436b-b14e-8db6e3e94c66",
    "resource": {
      "resourceType": "Organization",
      "id": "e966f80d-7334-436b-b14e-8db6e3e94c66",
      "meta": {
        "profile": [ "http://hl7.org/fhir/us/qicore/StructureDefinition/qicore-organization" ]
      },
      "identifier": [ {
        "use": "temp",
        "system": "urn:oid:2.16.840.1.113883.4.4",
        "value": "21-3259825"
      } ],
      "active": true,
      "type": [ {
        "coding": [ {
          "system": "http://terminology.hl7.org/CodeSystem/organization-type",
          "code": "pay",
          "display": "Payer"
        } ]
      } ],
      "name": "Blue Cross Blue Shield of Texas",
      "telecom": [ {
        "system": "phone",
        "value": "(+1) 972-766-6900"
      } ],
      "address": [ {
        "use": "billing",
        "type": "postal",
        "line": [ "P.O. Box 660044" ],
        "city": "Dallas",
        "state": "TX",
        "postalCode": "75266-0044",
        "country": "USA"
      } ]
    },
    "request": {
      "method": "PUT",
      "url": "Organization/e966f80d-7334-436b-b14e-8db6e3e94c66"
    }
  }, {
    "fullUrl": "https://madie.cms.gov/MeasureReport/9f41c847-9ff7-454b-a5e9-e43f995a3569",
    "resource": {
      "resourceType": "MeasureReport",
      "id": "9f41c847-9ff7-454b-a5e9-e43f995a3569",
      "meta": {
        "profile": [ "http://hl7.org/fhir/us/cqfmeasures/StructureDefinition/test-case-cqfm" ]
      },
      "contained": [ {
        "resourceType": "Parameters",
        "id": "3d3b808a-3435-4411-97f3-cf88134b34c8-parameters",
        "parameter": [ {
          "name": "subject",
          "valueString": "7c3ee345-c9da-4ce2-97e8-727de2e5023a"
        } ]
      } ],
      "extension": [ {
        "url": "http://hl7.org/fhir/StructureDefinition/cqf-inputParameters",
        "valueReference": {
          "reference": "#3d3b808a-3435-4411-97f3-cf88134b34c8-parameters"
        }
      }, {
        "url": "http://hl7.org/fhir/us/cqfmeasures/StructureDefinition/cqfm-testCaseDescription",
        "valueMarkdown": "Patient receives CMO during ED. ED ends 60 minute before Observation. Obs ends 60 min before IP start. Testing day of operator with HospitalizationWithObservation function."
      } ],
      "modifierExtension": [ {
        "url": "http://hl7.org/fhir/us/cqfmeasures/StructureDefinition/cqfm-isTestCase",
        "valueBoolean": true
      } ],
      "status": "complete",
      "type": "individual",
      "measure": "https://madie.cms.gov/Measure/CMS104FHIRSTKDCAntithrombotic",
      "period": {
        "start": "2026-01-01",
        "end": "2026-12-31"
      },
      "group": [ {
        "id": "Group_1",
        "population": [ {
          "id": "InitialPopulation_1",
          "code": {
            "coding": [ {
              "system": "http://terminology.hl7.org/CodeSystem/measure-population",
              "code": "initial-population",
              "display": "Initial Population"
            } ]
          },
          "count": 1
        }, {
          "id": "Denominator_1",
          "code": {
            "coding": [ {
              "system": "http://terminology.hl7.org/CodeSystem/measure-population",
              "code": "denominator",
              "display": "Denominator"
            } ]
          },
          "count": 1
        }, {
          "id": "DenominatorExclusion_1",
          "code": {
            "coding": [ {
              "system": "http://terminology.hl7.org/CodeSystem/measure-population",
              "code": "denominator-exclusion",
              "display": "Denominator Exclusion"
            } ]
          },
          "count": 1
        }, {
          "id": "Numerator_1",
          "code": {
            "coding": [ {
              "system": "http://terminology.hl7.org/CodeSystem/measure-population",
              "code": "numerator",
              "display": "Numerator"
            } ]
          },
          "count": 0
        }, {
          "id": "DenominatorException_1",
          "code": {
            "coding": [ {
              "system": "http://terminology.hl7.org/CodeSystem/measure-population",
              "code": "denominator-exception",
              "display": "Denominator Exception"
            } ]
          },
          "count": 0
        } ],
        "measureScore": {
          "value": 0.0
        }
      } ],
      "evaluatedResource": [ {
        "reference": "Patient/7c3ee345-c9da-4ce2-97e8-727de2e5023a"
      }, {
        "reference": "Encounter/843f6459-7f11-4dde-a283-7f6d22baca70"
      }, {
        "reference": "Encounter/b40b731a-63fc-4752-aed4-a4fcd0b28f98"
      }, {
        "reference": "Encounter/97e8f7d0-74d0-4352-81d0-5d6c3f97ab2a"
      }, {
        "reference": "Claim/5ca62962b8484628b8de1ec5"
      }, {
        "reference": "ServiceRequest/593f9f9b-dcc0-4d1a-a3f6-7d89f353ce89"
      }, {
        "reference": "Condition/e142c4f6-988d-43c2-a7b3-fe1171313b7e"
      }, {
        "reference": "Coverage/95e171d8-c0a5-4f42-8eed-1aa24ac34114"
      }, {
        "reference": "Organization/e966f80d-7334-436b-b14e-8db6e3e94c66"
      } ]
    },
    "request": {
      "method": "PUT",
      "url": "MeasureReport/9f41c847-9ff7-454b-a5e9-e43f995a3569"
    }
  } ]
}