{
  "resourceType": "Bundle",
  "id": "DENEXFail-HospiceServiceRequestDraft",
  "type": "transaction",
  "entry": [ {
    "fullUrl": "https://madie.cms.gov/Patient/94d2a25e-9eec-44ce-bc34-711452549be8",
    "resource": {
      "resourceType": "Patient",
      "id": "94d2a25e-9eec-44ce-bc34-711452549be8",
      "meta": {
        "profile": [ "http://hl7.org/fhir/us/qicore/StructureDefinition/qicore-patient" ]
      },
      "extension": [ {
        "url": "http://hl7.org/fhir/us/core/StructureDefinition/us-core-race",
        "extension": [ {
          "url": "ombCategory",
          "valueCoding": {
            "system": "urn:oid:2.16.840.1.113883.6.238",
            "code": "2028-9",
            "display": "Asian"
          }
        }, {
          "url": "text",
          "valueString": "Asian"
        } ]
      }, {
        "url": "http://hl7.org/fhir/us/core/StructureDefinition/us-core-ethnicity",
        "extension": [ {
          "url": "ombCategory",
          "valueCoding": {
            "system": "urn:oid:2.16.840.1.113883.6.238",
            "code": "2135-2",
            "display": "Hispanic or Latino"
          }
        }, {
          "url": "text",
          "valueString": "Hispanic or Latino"
        } ]
      } ],
      "identifier": [ {
        "system": "http://hospital.smarthealthit.org",
        "value": "999999995"
      } ],
      "name": [ {
        "family": "DENEXFail",
        "given": [ "HospiceServiceRequestDraft" ]
      } ],
      "gender": "female",
      "birthDate": "2007-12-31"
    },
    "request": {
      "method": "PUT",
      "url": "Patient/94d2a25e-9eec-44ce-bc34-711452549be8"
    }
  }, {
    "fullUrl": "https://madie.cms.gov/Encounter/da6d7041-3973-4f6d-9490-f0f1793f7db7",
    "resource": {
      "resourceType": "Encounter",
      "id": "da6d7041-3973-4f6d-9490-f0f1793f7db7",
      "meta": {
        "profile": [ "http://hl7.org/fhir/us/qicore/StructureDefinition/qicore-encounter" ]
      },
      "status": "finished",
      "class": {
        "system": "http://terminology.hl7.org/CodeSystem/v3-ActCode",
        "code": "AMB",
        "display": "ambulatory"
      },
      "type": [ {
        "coding": [ {
          "system": "http://snomed.info/sct",
          "code": "3391000175108",
          "display": "Office visit for pediatric care and assessment (procedure)"
        } ]
      } ],
      "subject": {
        "reference": "Patient/94d2a25e-9eec-44ce-bc34-711452549be8"
      },
      "period": {
        "start": "2026-01-01T00:00:00.000+00:00",
        "end": "2026-01-01T01:00:00.000+00:00"
      }
    },
    "request": {
      "method": "PUT",
      "url": "Encounter/da6d7041-3973-4f6d-9490-f0f1793f7db7"
    }
  }, {
    "fullUrl": "https://madie.cms.gov/Condition/a2fc49be-7d4d-4171-9e80-d7387b792431",
    "resource": {
      "resourceType": "Condition",
      "id": "a2fc49be-7d4d-4171-9e80-d7387b792431",
      "meta": {
        "profile": [ "http://hl7.org/fhir/us/qicore/StructureDefinition/qicore-condition-problems-health-concerns" ]
      },
      "clinicalStatus": {
        "coding": [ {
          "system": "http://terminology.hl7.org/CodeSystem/condition-clinical",
          "code": "active"
        } ]
      },
      "category": [ {
        "coding": [ {
          "system": "http://terminology.hl7.org/CodeSystem/condition-category",
          "code": "problem-list-item",
          "display": "Problem List Item"
        } ]
      } ],
      "code": {
        "coding": [ {
          "system": "http://snomed.info/sct",
          "code": "371125006",
          "display": "Labile essential hypertension (disorder)"
        } ]
      },
      "subject": {
        "reference": "Patient/94d2a25e-9eec-44ce-bc34-711452549be8"
      },
      "onsetDateTime": "2026-06-30T23:59:59.000+00:00"
    },
    "request": {
      "method": "PUT",
      "url": "Condition/a2fc49be-7d4d-4171-9e80-d7387b792431"
    }
  }, {
    "fullUrl": "https://madie.cms.gov/ServiceRequest/13789240-da79-4329-9fbe-8a7899b89c8b",
    "resource": {
      "resourceType": "ServiceRequest",
      "id": "13789240-da79-4329-9fbe-8a7899b89c8b",
      "meta": {
        "profile": [ "http://hl7.org/fhir/us/qicore/StructureDefinition/qicore-servicerequest" ]
      },
      "status": "draft",
      "intent": "order",
      "category": [ {
        "coding": [ {
          "system": "http://snomed.info/sct",
          "code": "387713003",
          "display": "Surgical procedure"
        } ]
      } ],
      "priority": "routine",
      "code": {
        "coding": [ {
          "system": "http://snomed.info/sct",
          "code": "385763009",
          "display": "Hospice care (regime/therapy)"
        } ]
      },
      "subject": {
        "reference": "Patient/94d2a25e-9eec-44ce-bc34-711452549be8"
      },
      "authoredOn": "2026-01-02T00:00:00.000+00:00",
      "performerType": {
        "coding": [ {
          "system": "http://snomed.info/sct",
          "code": "405279007",
          "display": "Attending physician (occupation)"
        } ]
      }
    },
    "request": {
      "method": "PUT",
      "url": "ServiceRequest/13789240-da79-4329-9fbe-8a7899b89c8b"
    }
  }, {
    "fullUrl": "https://madie.cms.gov/MeasureReport/fc4417c5-d5ce-47d1-b934-185fb732e88d",
    "resource": {
      "resourceType": "MeasureReport",
      "id": "fc4417c5-d5ce-47d1-b934-185fb732e88d",
      "meta": {
        "profile": [ "http://hl7.org/fhir/us/cqfmeasures/StructureDefinition/test-case-cqfm" ]
      },
      "contained": [ {
        "resourceType": "Parameters",
        "id": "0a666084-4f3b-441e-a8d3-428d01b4e7ad-parameters",
        "parameter": [ {
          "name": "subject",
          "valueString": "94d2a25e-9eec-44ce-bc34-711452549be8"
        } ]
      } ],
      "extension": [ {
        "url": "http://hl7.org/fhir/StructureDefinition/cqf-inputParameters",
        "valueReference": {
          "reference": "#0a666084-4f3b-441e-a8d3-428d01b4e7ad-parameters"
        }
      }, {
        "url": "http://hl7.org/fhir/us/cqfmeasures/StructureDefinition/cqfm-testCaseDescription",
        "valueMarkdown": "Hospice service request status is in draft"
      } ],
      "modifierExtension": [ {
        "url": "http://hl7.org/fhir/us/cqfmeasures/StructureDefinition/cqfm-isTestCase",
        "valueBoolean": true
      } ],
      "status": "complete",
      "type": "individual",
      "measure": "https://madie.cms.gov/Measure/CMS165FHIRControllingHighBP",
      "period": {
        "start": "2026-01-01",
        "end": "2026-12-31"
      },
      "group": [ {
        "id": "Group_1",
        "population": [ {
          "id": "InitialPopulation_1",
          "code": {
            "coding": [ {
              "system": "http://terminology.hl7.org/CodeSystem/measure-population",
              "code": "initial-population",
              "display": "Initial Population"
            } ]
          },
          "count": 1
        }, {
          "id": "Denominator_1",
          "code": {
            "coding": [ {
              "system": "http://terminology.hl7.org/CodeSystem/measure-population",
              "code": "denominator",
              "display": "Denominator"
            } ]
          },
          "count": 1
        }, {
          "id": "DenominatorExclusion_1",
          "code": {
            "coding": [ {
              "system": "http://terminology.hl7.org/CodeSystem/measure-population",
              "code": "denominator-exclusion",
              "display": "Denominator Exclusion"
            } ]
          },
          "count": 0
        }, {
          "id": "Numerator_1",
          "code": {
            "coding": [ {
              "system": "http://terminology.hl7.org/CodeSystem/measure-population",
              "code": "numerator",
              "display": "Numerator"
            } ]
          },
          "count": 0
        } ],
        "measureScore": {
          "value": 1.0
        }
      } ],
      "evaluatedResource": [ {
        "reference": "Patient/94d2a25e-9eec-44ce-bc34-711452549be8"
      }, {
        "reference": "Encounter/da6d7041-3973-4f6d-9490-f0f1793f7db7"
      }, {
        "reference": "Condition/a2fc49be-7d4d-4171-9e80-d7387b792431"
      }, {
        "reference": "ServiceRequest/13789240-da79-4329-9fbe-8a7899b89c8b"
      } ]
    },
    "request": {
      "method": "PUT",
      "url": "MeasureReport/fc4417c5-d5ce-47d1-b934-185fb732e88d"
    }
  } ]
}