{
  "resourceType": "Bundle",
  "id": "612e6b5a02c62a011f2ed71d",
  "type": "transaction",
  "entry": [ {
    "fullUrl": "https://madie.cms.gov/Patient/1cc5371c-a4d4-4912-a9be-76d2b31e1edd",
    "resource": {
      "resourceType": "Patient",
      "id": "1cc5371c-a4d4-4912-a9be-76d2b31e1edd",
      "meta": {
        "profile": [ "http://hl7.org/fhir/us/qicore/StructureDefinition/qicore-patient" ]
      },
      "text": {
        "status": "generated",
        "div": "<div xmlns=\"http://www.w3.org/1999/xhtml\"><div class=\"hapiHeaderText\">VTE_RiskAssess_ED <b>NUMERPASS </b></div><table class=\"hapiPropertyTable\"><tbody><tr><td>Identifier</td><td>a29965ceec8340c6fb3a5567ca0595ba</td></tr><tr><td>Date of birth</td><td><span>02 January 1974</span></td></tr></tbody></table></div>"
      },
      "extension": [ {
        "url": "http://hl7.org/fhir/us/core/StructureDefinition/us-core-race",
        "extension": [ {
          "url": "ombCategory",
          "valueCoding": {
            "system": "urn:oid:2.16.840.1.113883.6.238",
            "code": "1002-5",
            "display": "American Indian or Alaska Native",
            "userSelected": true
          }
        }, {
          "url": "text",
          "valueString": "American Indian or Alaska Native"
        } ]
      }, {
        "url": "http://hl7.org/fhir/us/core/StructureDefinition/us-core-ethnicity",
        "extension": [ {
          "url": "ombCategory",
          "valueCoding": {
            "system": "urn:oid:2.16.840.1.113883.6.238",
            "code": "2135-2",
            "display": "Hispanic or Latino",
            "userSelected": true
          }
        }, {
          "url": "text",
          "valueString": "Hispanic or Latino"
        } ]
      } ],
      "identifier": [ {
        "type": {
          "coding": [ {
            "system": "http://terminology.hl7.org/CodeSystem/v2-0203",
            "code": "MR"
          } ]
        },
        "system": "https://bonnie-fhir.healthit.gov/",
        "value": "612e6b5a02c62a011f2ed71d"
      } ],
      "active": true,
      "name": [ {
        "use": "usual",
        "family": "NUMERPass",
        "given": [ "VTERiskAssessED" ]
      } ],
      "gender": "male",
      "birthDate": "1975-01-02"
    },
    "request": {
      "method": "PUT",
      "url": "Patient/1cc5371c-a4d4-4912-a9be-76d2b31e1edd"
    }
  }, {
    "fullUrl": "https://madie.cms.gov/Encounter/cab6d77d-d42d-4dd4-adb1-a2e0981520ce",
    "resource": {
      "resourceType": "Encounter",
      "id": "cab6d77d-d42d-4dd4-adb1-a2e0981520ce",
      "meta": {
        "profile": [ "http://hl7.org/fhir/us/qicore/StructureDefinition/qicore-encounter" ]
      },
      "status": "finished",
      "class": {
        "system": "http://terminology.hl7.org/CodeSystem/v3-ActCode",
        "code": "EMER",
        "display": "emergency"
      },
      "type": [ {
        "coding": [ {
          "system": "http://snomed.info/sct",
          "code": "4525004"
        } ]
      } ],
      "subject": {
        "reference": "Patient/1cc5371c-a4d4-4912-a9be-76d2b31e1edd"
      },
      "period": {
        "start": "2026-10-31T23:00:00.000+00:00",
        "end": "2026-11-01T07:15:00.000+00:00"
      },
      "length": {
        "value": 1,
        "unit": "days"
      }
    },
    "request": {
      "method": "PUT",
      "url": "Encounter/cab6d77d-d42d-4dd4-adb1-a2e0981520ce"
    }
  }, {
    "fullUrl": "https://madie.cms.gov/Encounter/b3140881-1d55-4afa-8101-b4ea9a3e4d3e",
    "resource": {
      "resourceType": "Encounter",
      "id": "b3140881-1d55-4afa-8101-b4ea9a3e4d3e",
      "meta": {
        "profile": [ "http://hl7.org/fhir/us/qicore/StructureDefinition/qicore-encounter" ]
      },
      "status": "finished",
      "class": {
        "system": "http://terminology.hl7.org/CodeSystem/v3-ActCode",
        "code": "IMP",
        "display": "inpatient encounter"
      },
      "type": [ {
        "coding": [ {
          "system": "http://snomed.info/sct",
          "code": "8715000"
        } ]
      } ],
      "subject": {
        "reference": "Patient/1cc5371c-a4d4-4912-a9be-76d2b31e1edd"
      },
      "period": {
        "start": "2026-11-01T08:00:00.000+00:00",
        "end": "2026-11-26T08:15:00.000+00:00"
      },
      "length": {
        "value": 25,
        "unit": "days"
      }
    },
    "request": {
      "method": "PUT",
      "url": "Encounter/b3140881-1d55-4afa-8101-b4ea9a3e4d3e"
    }
  }, {
    "fullUrl": "https://madie.cms.gov/Observation/60ffa1a3-229d-493a-bd61-1fe1037e71fe",
    "resource": {
      "resourceType": "Observation",
      "id": "60ffa1a3-229d-493a-bd61-1fe1037e71fe",
      "meta": {
        "profile": [ "http://hl7.org/fhir/us/qicore/StructureDefinition/qicore-simple-observation" ]
      },
      "status": "corrected",
      "category": [ {
        "coding": [ {
          "system": "http://terminology.hl7.org/CodeSystem/observation-category",
          "code": "exam",
          "display": "exam"
        } ]
      } ],
      "code": {
        "coding": [ {
          "system": "http://loinc.org",
          "code": "72136-5"
        } ]
      },
      "subject": {
        "reference": "Patient/1cc5371c-a4d4-4912-a9be-76d2b31e1edd"
      },
      "effectiveDateTime": "2026-11-01T06:00:00.000+00:00",
      "valueCodeableConcept": {
        "coding": [ {
          "system": "http://snomed.info/sct",
          "code": "260362008",
          "display": "Low Risk"
        } ]
      }
    },
    "request": {
      "method": "PUT",
      "url": "Observation/60ffa1a3-229d-493a-bd61-1fe1037e71fe"
    }
  }, {
    "fullUrl": "https://madie.cms.gov/Coverage/971ef435-eeac-4671-af5c-32abc5d67910",
    "resource": {
      "resourceType": "Coverage",
      "id": "971ef435-eeac-4671-af5c-32abc5d67910",
      "status": "active",
      "beneficiary": {
        "reference": "Patient/1cc5371c-a4d4-4912-a9be-76d2b31e1edd"
      },
      "period": {
        "start": "1975-01-02T08:00:00.000+00:00"
      },
      "payor": [ {
        "reference": "Organization/37f37c44-a2e6-47dc-b6fe-ebddc8c0a150"
      } ]
    },
    "request": {
      "method": "PUT",
      "url": "Coverage/971ef435-eeac-4671-af5c-32abc5d67910"
    }
  }, {
    "fullUrl": "https://madie.cms.gov/Organization/37f37c44-a2e6-47dc-b6fe-ebddc8c0a150",
    "resource": {
      "resourceType": "Organization",
      "id": "37f37c44-a2e6-47dc-b6fe-ebddc8c0a150",
      "meta": {
        "profile": [ "http://hl7.org/fhir/us/qicore/StructureDefinition/qicore-organization" ]
      },
      "identifier": [ {
        "use": "temp",
        "system": "urn:oid:2.16.840.1.113883.4.4",
        "value": "21-3259825"
      } ],
      "active": true,
      "type": [ {
        "coding": [ {
          "system": "http://terminology.hl7.org/CodeSystem/organization-type",
          "code": "pay",
          "display": "Payer"
        } ]
      } ],
      "name": "Blue Cross Blue Shield of Texas",
      "telecom": [ {
        "system": "phone",
        "value": "(+1) 972-766-6900"
      } ],
      "address": [ {
        "use": "billing",
        "type": "postal",
        "line": [ "P.O. Box 660044" ],
        "city": "Dallas",
        "state": "TX",
        "postalCode": "75266-0044",
        "country": "USA"
      } ]
    },
    "request": {
      "method": "PUT",
      "url": "Organization/37f37c44-a2e6-47dc-b6fe-ebddc8c0a150"
    }
  }, {
    "fullUrl": "https://madie.cms.gov/Practitioner/be329178-abe7-4ab8-9332-ce5e728b3dee",
    "resource": {
      "resourceType": "Practitioner",
      "id": "be329178-abe7-4ab8-9332-ce5e728b3dee",
      "identifier": [ {
        "system": "http://hl7.org/fhir/sid/us-npi",
        "value": "123456"
      } ],
      "name": [ {
        "family": "Evil",
        "prefix": [ "Dr" ]
      } ]
    },
    "request": {
      "method": "PUT",
      "url": "Practitioner/be329178-abe7-4ab8-9332-ce5e728b3dee"
    }
  }, {
    "fullUrl": "https://madie.cms.gov/MeasureReport/833afbd6-7951-4490-8dbc-d4e70108b322",
    "resource": {
      "resourceType": "MeasureReport",
      "id": "833afbd6-7951-4490-8dbc-d4e70108b322",
      "meta": {
        "profile": [ "http://hl7.org/fhir/us/cqfmeasures/StructureDefinition/test-case-cqfm" ]
      },
      "contained": [ {
        "resourceType": "Parameters",
        "id": "5d1b4dce-78be-4cb9-a933-a27440fc39d8-parameters",
        "parameter": [ {
          "name": "subject",
          "valueString": "1cc5371c-a4d4-4912-a9be-76d2b31e1edd"
        } ]
      } ],
      "extension": [ {
        "url": "http://hl7.org/fhir/StructureDefinition/cqf-inputParameters",
        "valueReference": {
          "reference": "#5d1b4dce-78be-4cb9-a933-a27440fc39d8-parameters"
        }
      }, {
        "url": "http://hl7.org/fhir/us/cqfmeasures/StructureDefinition/cqfm-testCaseDescription",
        "valueMarkdown": ">18, LOS<120 day, VTE Risk Assess during ED\n"
      } ],
      "modifierExtension": [ {
        "url": "http://hl7.org/fhir/us/cqfmeasures/StructureDefinition/cqfm-isTestCase",
        "valueBoolean": true
      } ],
      "status": "complete",
      "type": "individual",
      "measure": "https://madie.cms.gov/Measure/CMS108FHIRVTEProphylaxis",
      "period": {
        "start": "2026-01-01",
        "end": "2026-12-31"
      },
      "group": [ {
        "id": "Group_1",
        "population": [ {
          "id": "InitialPopulation_1",
          "code": {
            "coding": [ {
              "system": "http://terminology.hl7.org/CodeSystem/measure-population",
              "code": "initial-population",
              "display": "Initial Population"
            } ]
          },
          "count": 1
        }, {
          "id": "Denominator_1",
          "code": {
            "coding": [ {
              "system": "http://terminology.hl7.org/CodeSystem/measure-population",
              "code": "denominator",
              "display": "Denominator"
            } ]
          },
          "count": 1
        }, {
          "id": "DenominatorExclusion_1",
          "code": {
            "coding": [ {
              "system": "http://terminology.hl7.org/CodeSystem/measure-population",
              "code": "denominator-exclusion",
              "display": "Denominator Exclusion"
            } ]
          },
          "count": 0
        }, {
          "id": "Numerator_1",
          "code": {
            "coding": [ {
              "system": "http://terminology.hl7.org/CodeSystem/measure-population",
              "code": "numerator",
              "display": "Numerator"
            } ]
          },
          "count": 1
        } ],
        "measureScore": {
          "value": 0.0
        }
      } ],
      "evaluatedResource": [ {
        "reference": "Patient/1cc5371c-a4d4-4912-a9be-76d2b31e1edd"
      }, {
        "reference": "Encounter/cab6d77d-d42d-4dd4-adb1-a2e0981520ce"
      }, {
        "reference": "Encounter/b3140881-1d55-4afa-8101-b4ea9a3e4d3e"
      }, {
        "reference": "Observation/60ffa1a3-229d-493a-bd61-1fe1037e71fe"
      }, {
        "reference": "Coverage/971ef435-eeac-4671-af5c-32abc5d67910"
      }, {
        "reference": "Organization/37f37c44-a2e6-47dc-b6fe-ebddc8c0a150"
      }, {
        "reference": "Practitioner/be329178-abe7-4ab8-9332-ce5e728b3dee"
      } ]
    },
    "request": {
      "method": "PUT",
      "url": "MeasureReport/833afbd6-7951-4490-8dbc-d4e70108b322"
    }
  } ]
}