{
  "resourceType": "Bundle",
  "id": "k1f044ef3e654daa9108",
  "type": "transaction",
  "entry": [ {
    "fullUrl": "https://madie.cms.gov/Patient/31cd9edb-02a8-4208-956a-baac147ed8d8",
    "resource": {
      "resourceType": "Patient",
      "id": "31cd9edb-02a8-4208-956a-baac147ed8d8",
      "meta": {
        "profile": [ "http://hl7.org/fhir/us/qicore/StructureDefinition/qicore-patient" ]
      },
      "extension": [ {
        "url": "http://hl7.org/fhir/us/core/StructureDefinition/us-core-race",
        "extension": [ {
          "url": "ombCategory",
          "valueCoding": {
            "system": "urn:oid:2.16.840.1.113883.6.238",
            "code": "2028-9",
            "display": "Asian",
            "userSelected": true
          }
        }, {
          "url": "text",
          "valueString": "Asian"
        } ]
      }, {
        "url": "http://hl7.org/fhir/us/core/StructureDefinition/us-core-ethnicity",
        "extension": [ {
          "url": "ombCategory",
          "valueCoding": {
            "system": "urn:oid:2.16.840.1.113883.6.238",
            "code": "2186-5",
            "display": "Not Hispanic or Latino",
            "userSelected": true
          }
        }, {
          "url": "text",
          "valueString": "Not Hispanic or Latino"
        } ]
      }, {
        "url": "http://hl7.org/fhir/us/core/StructureDefinition/us-core-sex",
        "valueCode": "248153007"
      } ],
      "identifier": [ {
        "type": {
          "coding": [ {
            "system": "http://terminology.hl7.org/CodeSystem/v2-0203",
            "code": "MR"
          } ]
        },
        "system": "https://bonnie-fhir.healthit.gov/",
        "value": "k1f044ef3e654daa9108"
      } ],
      "name": [ {
        "family": "DENEXCL11PASS",
        "given": [ "HospiceFacilityDischargeDispositionOverlapsED" ]
      } ],
      "gender": "male",
      "birthDate": "1995-01-10"
    },
    "request": {
      "method": "PUT",
      "url": "Patient/31cd9edb-02a8-4208-956a-baac147ed8d8"
    }
  }, {
    "fullUrl": "https://madie.cms.gov/Encounter/2c59ee67-4dd0-4c6d-af5f-b463f24befce",
    "resource": {
      "resourceType": "Encounter",
      "id": "2c59ee67-4dd0-4c6d-af5f-b463f24befce",
      "meta": {
        "profile": [ "http://hl7.org/fhir/us/qicore/StructureDefinition/qicore-encounter" ]
      },
      "status": "finished",
      "class": {
        "system": "http://terminology.hl7.org/CodeSystem/v3-ActCode",
        "code": "EMER",
        "display": "emergency",
        "userSelected": true
      },
      "type": [ {
        "coding": [ {
          "system": "http://snomed.info/sct",
          "version": "2020-09",
          "code": "4525004",
          "display": "Emergency department patient visit",
          "userSelected": true
        } ]
      } ],
      "subject": {
        "reference": "Patient/31cd9edb-02a8-4208-956a-baac147ed8d8"
      },
      "period": {
        "start": "2026-10-09T05:00:00.000+00:00",
        "end": "2026-10-13T17:00:00.000+00:00"
      },
      "reasonReference": [ {
        "reference": "Condition/4efdb95e-6a0d-4f0d-8a71-fb387d9f75a0"
      } ]
    },
    "request": {
      "method": "PUT",
      "url": "Encounter/2c59ee67-4dd0-4c6d-af5f-b463f24befce"
    }
  }, {
    "fullUrl": "https://madie.cms.gov/Encounter/7d6deb3d-3379-4a83-9f0e-4e14e4b79e06",
    "resource": {
      "resourceType": "Encounter",
      "id": "7d6deb3d-3379-4a83-9f0e-4e14e4b79e06",
      "meta": {
        "profile": [ "http://hl7.org/fhir/us/qicore/StructureDefinition/qicore-encounter" ]
      },
      "status": "finished",
      "class": {
        "system": "http://terminology.hl7.org/CodeSystem/v3-ActCode",
        "code": "EMER",
        "display": "emergency",
        "userSelected": true
      },
      "type": [ {
        "coding": [ {
          "system": "http://snomed.info/sct",
          "code": "32485007",
          "display": "Hospital admission (procedure)",
          "userSelected": true
        } ]
      } ],
      "subject": {
        "reference": "Patient/31cd9edb-02a8-4208-956a-baac147ed8d8"
      },
      "period": {
        "start": "2026-10-08T05:00:00.000+00:00"
      },
      "hospitalization": {
        "dischargeDisposition": {
          "coding": [ {
            "system": "http://snomed.info/sct",
            "code": "428371000124100",
            "display": "Discharge to healthcare facility for hospice care (procedure)",
            "userSelected": true
          } ]
        }
      }
    },
    "request": {
      "method": "PUT",
      "url": "Encounter/7d6deb3d-3379-4a83-9f0e-4e14e4b79e06"
    }
  }, {
    "fullUrl": "https://madie.cms.gov/Condition/4efdb95e-6a0d-4f0d-8a71-fb387d9f75a0",
    "resource": {
      "resourceType": "Condition",
      "id": "4efdb95e-6a0d-4f0d-8a71-fb387d9f75a0",
      "meta": {
        "profile": [ "http://hl7.org/fhir/us/qicore/StructureDefinition/qicore-condition-encounter-diagnosis" ]
      },
      "clinicalStatus": {
        "coding": [ {
          "system": "http://terminology.hl7.org/CodeSystem/condition-clinical",
          "code": "active",
          "display": "Active",
          "userSelected": true
        } ]
      },
      "category": [ {
        "coding": [ {
          "system": "http://terminology.hl7.org/CodeSystem/condition-category",
          "code": "encounter-diagnosis",
          "display": "Encounter Diagnosis",
          "userSelected": true
        } ]
      } ],
      "code": {
        "coding": [ {
          "system": "http://hl7.org/fhir/sid/icd-10-cm",
          "code": "I21.21",
          "display": "ST elevation (STEMI) myocardial infarction involving left circumflex coronary artery",
          "userSelected": true
        } ]
      },
      "subject": {
        "reference": "Patient/31cd9edb-02a8-4208-956a-baac147ed8d8"
      },
      "encounter": {
        "reference": "Encounter/2c59ee67-4dd0-4c6d-af5f-b463f24befce"
      },
      "onsetPeriod": {
        "start": "2026-10-09T05:00:00.000+00:00",
        "end": "2026-10-09T17:00:00.000+00:00"
      }
    },
    "request": {
      "method": "PUT",
      "url": "Condition/4efdb95e-6a0d-4f0d-8a71-fb387d9f75a0"
    }
  }, {
    "fullUrl": "https://madie.cms.gov/MeasureReport/eb70d38c-d6ec-40c8-866e-2fdeda8fc855",
    "resource": {
      "resourceType": "MeasureReport",
      "id": "eb70d38c-d6ec-40c8-866e-2fdeda8fc855",
      "meta": {
        "profile": [ "http://hl7.org/fhir/us/cqfmeasures/StructureDefinition/test-case-cqfm" ]
      },
      "contained": [ {
        "resourceType": "Parameters",
        "id": "07fe792f-dbd2-4f84-9de5-901eff4e4e0f-parameters",
        "parameter": [ {
          "name": "subject",
          "valueString": "31cd9edb-02a8-4208-956a-baac147ed8d8"
        } ]
      } ],
      "extension": [ {
        "url": "http://hl7.org/fhir/StructureDefinition/cqf-inputParameters",
        "valueReference": {
          "reference": "#07fe792f-dbd2-4f84-9de5-901eff4e4e0f-parameters"
        }
      }, {
        "url": "http://hl7.org/fhir/us/cqfmeasures/StructureDefinition/cqfm-testCaseDescription",
        "valueMarkdown": "Patients has hospice discharge disposition (HCF) overlaps ED (missing IP end date)"
      } ],
      "modifierExtension": [ {
        "url": "http://hl7.org/fhir/us/cqfmeasures/StructureDefinition/cqfm-isTestCase",
        "valueBoolean": true
      } ],
      "status": "complete",
      "type": "individual",
      "measure": "https://madie.cms.gov/Measure/CMS996FHIRAptTxforSTEMI",
      "period": {
        "start": "2026-01-01",
        "end": "2026-12-31"
      },
      "group": [ {
        "id": "Group_1",
        "population": [ {
          "id": "InitialPopulation_1",
          "code": {
            "coding": [ {
              "system": "http://terminology.hl7.org/CodeSystem/measure-population",
              "code": "initial-population",
              "display": "Initial Population"
            } ]
          },
          "count": 1
        }, {
          "id": "Denominator_1",
          "code": {
            "coding": [ {
              "system": "http://terminology.hl7.org/CodeSystem/measure-population",
              "code": "denominator",
              "display": "Denominator"
            } ]
          },
          "count": 1
        }, {
          "id": "DenominatorExclusion_1",
          "code": {
            "coding": [ {
              "system": "http://terminology.hl7.org/CodeSystem/measure-population",
              "code": "denominator-exclusion",
              "display": "Denominator Exclusion"
            } ]
          },
          "count": 1
        }, {
          "id": "Numerator_1",
          "code": {
            "coding": [ {
              "system": "http://terminology.hl7.org/CodeSystem/measure-population",
              "code": "numerator",
              "display": "Numerator"
            } ]
          },
          "count": 0
        }, {
          "id": "DenominatorException_1",
          "code": {
            "coding": [ {
              "system": "http://terminology.hl7.org/CodeSystem/measure-population",
              "code": "denominator-exception",
              "display": "Denominator Exception"
            } ]
          },
          "count": 0
        } ],
        "measureScore": {
          "value": 0.0
        }
      } ],
      "evaluatedResource": [ {
        "reference": "Patient/31cd9edb-02a8-4208-956a-baac147ed8d8"
      }, {
        "reference": "Encounter/2c59ee67-4dd0-4c6d-af5f-b463f24befce"
      }, {
        "reference": "Encounter/7d6deb3d-3379-4a83-9f0e-4e14e4b79e06"
      }, {
        "reference": "Condition/4efdb95e-6a0d-4f0d-8a71-fb387d9f75a0"
      } ]
    },
    "request": {
      "method": "PUT",
      "url": "MeasureReport/eb70d38c-d6ec-40c8-866e-2fdeda8fc855"
    }
  } ]
}