{
  "resourceType": "Bundle",
  "id": "NUMERFail-TwoDTapSameDay",
  "type": "transaction",
  "entry": [ {
    "fullUrl": "https://madie.cms.gov/Patient/6b9e1f1b-90db-42f2-8591-f1a1858ca27a",
    "resource": {
      "resourceType": "Patient",
      "id": "6b9e1f1b-90db-42f2-8591-f1a1858ca27a",
      "meta": {
        "profile": [ "http://hl7.org/fhir/us/qicore/StructureDefinition/qicore-patient" ]
      },
      "extension": [ {
        "url": "http://hl7.org/fhir/us/core/StructureDefinition/us-core-race",
        "extension": [ {
          "url": "ombCategory",
          "valueCoding": {
            "system": "urn:oid:2.16.840.1.113883.6.238",
            "code": "2028-9",
            "display": "Asian"
          }
        }, {
          "url": "text",
          "valueString": "Asian"
        } ]
      }, {
        "url": "http://hl7.org/fhir/us/core/StructureDefinition/us-core-ethnicity",
        "extension": [ {
          "url": "ombCategory",
          "valueCoding": {
            "system": "urn:oid:2.16.840.1.113883.6.238",
            "code": "2135-2",
            "display": "Hispanic or Latino"
          }
        }, {
          "url": "text",
          "valueString": "Hispanic or Latino"
        } ]
      } ],
      "identifier": [ {
        "system": "http://hospital.smarthealthit.org",
        "value": "999999995"
      } ],
      "name": [ {
        "family": "Bertha",
        "given": [ "Betty" ]
      } ],
      "gender": "female",
      "birthDate": "2024-01-01"
    },
    "request": {
      "method": "PUT",
      "url": "Patient/6b9e1f1b-90db-42f2-8591-f1a1858ca27a"
    }
  }, {
    "fullUrl": "https://madie.cms.gov/Encounter/6b63af41-a08a-4952-97b3-3b891a6fab87",
    "resource": {
      "resourceType": "Encounter",
      "id": "6b63af41-a08a-4952-97b3-3b891a6fab87",
      "meta": {
        "profile": [ "http://hl7.org/fhir/us/qicore/StructureDefinition/qicore-encounter" ]
      },
      "status": "finished",
      "class": {
        "system": "http://terminology.hl7.org/CodeSystem/v3-ActCode",
        "code": "AMB",
        "display": "ambulatory"
      },
      "type": [ {
        "coding": [ {
          "system": "http://snomed.info/sct",
          "code": "185317003",
          "display": "Telephone encounter (procedure)"
        } ]
      } ],
      "subject": {
        "reference": "Patient/6b9e1f1b-90db-42f2-8591-f1a1858ca27a"
      },
      "period": {
        "start": "2026-01-01T01:00:00.000+00:00",
        "end": "2026-01-01T01:15:00.000+00:00"
      }
    },
    "request": {
      "method": "PUT",
      "url": "Encounter/6b63af41-a08a-4952-97b3-3b891a6fab87"
    }
  }, {
    "fullUrl": "https://madie.cms.gov/Immunization/06f589b3-1240-4fa5-964a-3fc34afd9aa6",
    "resource": {
      "resourceType": "Immunization",
      "id": "06f589b3-1240-4fa5-964a-3fc34afd9aa6",
      "meta": {
        "profile": [ "http://hl7.org/fhir/us/qicore/StructureDefinition/qicore-immunization" ]
      },
      "status": "completed",
      "vaccineCode": {
        "coding": [ {
          "system": "http://hl7.org/fhir/sid/cvx",
          "code": "20",
          "display": "diphtheria, tetanus toxoids and acellular pertussis vaccine"
        } ]
      },
      "patient": {
        "reference": "Patient/6b9e1f1b-90db-42f2-8591-f1a1858ca27a"
      },
      "occurrenceDateTime": "2025-01-02T00:00:00.000+00:00",
      "recorded": "2025-01-02T00:00:00.000+00:00",
      "primarySource": true
    },
    "request": {
      "method": "PUT",
      "url": "Immunization/06f589b3-1240-4fa5-964a-3fc34afd9aa6"
    }
  }, {
    "fullUrl": "https://madie.cms.gov/Immunization/8dafea8a-d11b-4762-8183-74868ecd6d44",
    "resource": {
      "resourceType": "Immunization",
      "id": "8dafea8a-d11b-4762-8183-74868ecd6d44",
      "meta": {
        "profile": [ "http://hl7.org/fhir/us/qicore/StructureDefinition/qicore-immunization" ]
      },
      "status": "completed",
      "vaccineCode": {
        "coding": [ {
          "system": "http://hl7.org/fhir/sid/cvx",
          "code": "20",
          "display": "diphtheria, tetanus toxoids and acellular pertussis vaccine"
        } ]
      },
      "patient": {
        "reference": "Patient/6b9e1f1b-90db-42f2-8591-f1a1858ca27a"
      },
      "occurrenceDateTime": "2025-01-02T00:00:00.000+00:00",
      "recorded": "2025-01-02T00:00:00.000+00:00",
      "primarySource": true
    },
    "request": {
      "method": "PUT",
      "url": "Immunization/8dafea8a-d11b-4762-8183-74868ecd6d44"
    }
  }, {
    "fullUrl": "https://madie.cms.gov/Immunization/35c8e227-7b14-41c6-8ed2-0ef73e451a93",
    "resource": {
      "resourceType": "Immunization",
      "id": "35c8e227-7b14-41c6-8ed2-0ef73e451a93",
      "meta": {
        "profile": [ "http://hl7.org/fhir/us/qicore/StructureDefinition/qicore-immunization" ]
      },
      "status": "completed",
      "vaccineCode": {
        "coding": [ {
          "system": "http://hl7.org/fhir/sid/cvx",
          "code": "20",
          "display": "diphtheria, tetanus toxoids and acellular pertussis vaccine"
        } ]
      },
      "patient": {
        "reference": "Patient/6b9e1f1b-90db-42f2-8591-f1a1858ca27a"
      },
      "occurrenceDateTime": "2025-01-07T00:00:00.000+00:00",
      "recorded": "2025-01-02T00:00:00.000+00:00",
      "primarySource": true
    },
    "request": {
      "method": "PUT",
      "url": "Immunization/35c8e227-7b14-41c6-8ed2-0ef73e451a93"
    }
  }, {
    "fullUrl": "https://madie.cms.gov/Immunization/b07f05cc-bb83-4822-a3a5-c1e82ee9c700",
    "resource": {
      "resourceType": "Immunization",
      "id": "b07f05cc-bb83-4822-a3a5-c1e82ee9c700",
      "meta": {
        "profile": [ "http://hl7.org/fhir/us/qicore/StructureDefinition/qicore-immunization" ]
      },
      "status": "completed",
      "vaccineCode": {
        "coding": [ {
          "system": "http://hl7.org/fhir/sid/cvx",
          "code": "20",
          "display": "diphtheria, tetanus toxoids and acellular pertussis vaccine"
        } ]
      },
      "patient": {
        "reference": "Patient/6b9e1f1b-90db-42f2-8591-f1a1858ca27a"
      },
      "occurrenceDateTime": "2025-01-10T00:00:00.000+00:00",
      "recorded": "2025-01-02T00:00:00.000+00:00",
      "primarySource": true
    },
    "request": {
      "method": "PUT",
      "url": "Immunization/b07f05cc-bb83-4822-a3a5-c1e82ee9c700"
    }
  }, {
    "fullUrl": "https://madie.cms.gov/Immunization/467a918f-460a-47fa-86f7-02461e2f85e8",
    "resource": {
      "resourceType": "Immunization",
      "id": "467a918f-460a-47fa-86f7-02461e2f85e8",
      "meta": {
        "profile": [ "http://hl7.org/fhir/us/qicore/StructureDefinition/qicore-immunization" ]
      },
      "status": "completed",
      "vaccineCode": {
        "coding": [ {
          "system": "http://hl7.org/fhir/sid/cvx",
          "code": "89",
          "display": "poliovirus vaccine, unspecified formulation"
        } ]
      },
      "patient": {
        "reference": "Patient/6b9e1f1b-90db-42f2-8591-f1a1858ca27a"
      },
      "occurrenceDateTime": "2025-01-02T00:00:00.000+00:00",
      "recorded": "2025-01-02T00:00:00.000+00:00",
      "primarySource": true
    },
    "request": {
      "method": "PUT",
      "url": "Immunization/467a918f-460a-47fa-86f7-02461e2f85e8"
    }
  }, {
    "fullUrl": "https://madie.cms.gov/Immunization/6d49f982-ed25-4884-a6c1-d0243eb54861",
    "resource": {
      "resourceType": "Immunization",
      "id": "6d49f982-ed25-4884-a6c1-d0243eb54861",
      "meta": {
        "profile": [ "http://hl7.org/fhir/us/qicore/StructureDefinition/qicore-immunization" ]
      },
      "status": "completed",
      "vaccineCode": {
        "coding": [ {
          "system": "http://hl7.org/fhir/sid/cvx",
          "code": "89",
          "display": "poliovirus vaccine, unspecified formulation"
        } ]
      },
      "patient": {
        "reference": "Patient/6b9e1f1b-90db-42f2-8591-f1a1858ca27a"
      },
      "occurrenceDateTime": "2025-01-06T00:00:00.000+00:00",
      "recorded": "2025-01-02T00:00:00.000+00:00",
      "primarySource": true
    },
    "request": {
      "method": "PUT",
      "url": "Immunization/6d49f982-ed25-4884-a6c1-d0243eb54861"
    }
  }, {
    "fullUrl": "https://madie.cms.gov/Immunization/3e92e799-1ea5-41ee-8f50-cc6ca1c502a9",
    "resource": {
      "resourceType": "Immunization",
      "id": "3e92e799-1ea5-41ee-8f50-cc6ca1c502a9",
      "meta": {
        "profile": [ "http://hl7.org/fhir/us/qicore/StructureDefinition/qicore-immunization" ]
      },
      "status": "completed",
      "vaccineCode": {
        "coding": [ {
          "system": "http://hl7.org/fhir/sid/cvx",
          "code": "89",
          "display": "poliovirus vaccine, unspecified formulation"
        } ]
      },
      "patient": {
        "reference": "Patient/6b9e1f1b-90db-42f2-8591-f1a1858ca27a"
      },
      "occurrenceDateTime": "2025-01-09T00:00:00.000+00:00",
      "recorded": "2025-01-02T00:00:00.000+00:00",
      "primarySource": true
    },
    "request": {
      "method": "PUT",
      "url": "Immunization/3e92e799-1ea5-41ee-8f50-cc6ca1c502a9"
    }
  }, {
    "fullUrl": "https://madie.cms.gov/Immunization/0b397305-66d1-4aa8-9dd8-4cfe21afc258",
    "resource": {
      "resourceType": "Immunization",
      "id": "0b397305-66d1-4aa8-9dd8-4cfe21afc258",
      "meta": {
        "profile": [ "http://hl7.org/fhir/us/qicore/StructureDefinition/qicore-immunization" ]
      },
      "status": "completed",
      "vaccineCode": {
        "coding": [ {
          "system": "http://hl7.org/fhir/sid/cvx",
          "code": "94",
          "display": "measles, mumps, rubella, and varicella virus vaccine"
        } ]
      },
      "patient": {
        "reference": "Patient/6b9e1f1b-90db-42f2-8591-f1a1858ca27a"
      },
      "occurrenceDateTime": "2025-01-02T00:00:00.000+00:00",
      "recorded": "2025-01-02T00:00:00.000+00:00",
      "primarySource": true
    },
    "request": {
      "method": "PUT",
      "url": "Immunization/0b397305-66d1-4aa8-9dd8-4cfe21afc258"
    }
  }, {
    "fullUrl": "https://madie.cms.gov/Immunization/b02e24ca-1b87-4825-bdbc-cba4980c7b1a",
    "resource": {
      "resourceType": "Immunization",
      "id": "b02e24ca-1b87-4825-bdbc-cba4980c7b1a",
      "meta": {
        "profile": [ "http://hl7.org/fhir/us/qicore/StructureDefinition/qicore-immunization" ]
      },
      "status": "completed",
      "vaccineCode": {
        "coding": [ {
          "system": "http://hl7.org/fhir/sid/cvx",
          "code": "49",
          "display": "Haemophilus influenzae type b vaccine, PRP-OMP conjugate"
        } ]
      },
      "patient": {
        "reference": "Patient/6b9e1f1b-90db-42f2-8591-f1a1858ca27a"
      },
      "occurrenceDateTime": "2025-01-02T00:00:00.000+00:00",
      "recorded": "2025-01-02T00:00:00.000+00:00",
      "primarySource": true
    },
    "request": {
      "method": "PUT",
      "url": "Immunization/b02e24ca-1b87-4825-bdbc-cba4980c7b1a"
    }
  }, {
    "fullUrl": "https://madie.cms.gov/Immunization/88b67db3-d9f4-453e-ae50-7acdbf5c7cac",
    "resource": {
      "resourceType": "Immunization",
      "id": "88b67db3-d9f4-453e-ae50-7acdbf5c7cac",
      "meta": {
        "profile": [ "http://hl7.org/fhir/us/qicore/StructureDefinition/qicore-immunization" ]
      },
      "status": "completed",
      "vaccineCode": {
        "coding": [ {
          "system": "http://hl7.org/fhir/sid/cvx",
          "code": "49",
          "display": "Haemophilus influenzae type b vaccine, PRP-OMP conjugate"
        } ]
      },
      "patient": {
        "reference": "Patient/6b9e1f1b-90db-42f2-8591-f1a1858ca27a"
      },
      "occurrenceDateTime": "2025-01-02T00:00:00.000+00:00",
      "recorded": "2025-01-02T00:00:00.000+00:00",
      "primarySource": true
    },
    "request": {
      "method": "PUT",
      "url": "Immunization/88b67db3-d9f4-453e-ae50-7acdbf5c7cac"
    }
  }, {
    "fullUrl": "https://madie.cms.gov/Immunization/30ebb6ce-244c-453c-9776-63db032a7c28",
    "resource": {
      "resourceType": "Immunization",
      "id": "30ebb6ce-244c-453c-9776-63db032a7c28",
      "meta": {
        "profile": [ "http://hl7.org/fhir/us/qicore/StructureDefinition/qicore-immunization" ]
      },
      "status": "completed",
      "vaccineCode": {
        "coding": [ {
          "system": "http://hl7.org/fhir/sid/cvx",
          "code": "49",
          "display": "Haemophilus influenzae type b vaccine, PRP-OMP conjugate"
        } ]
      },
      "patient": {
        "reference": "Patient/6b9e1f1b-90db-42f2-8591-f1a1858ca27a"
      },
      "occurrenceDateTime": "2025-01-02T00:00:00.000+00:00",
      "recorded": "2025-01-02T00:00:00.000+00:00",
      "primarySource": true
    },
    "request": {
      "method": "PUT",
      "url": "Immunization/30ebb6ce-244c-453c-9776-63db032a7c28"
    }
  }, {
    "fullUrl": "https://madie.cms.gov/Immunization/8746b3fe-e256-4637-b1a5-bd00247c5db1",
    "resource": {
      "resourceType": "Immunization",
      "id": "8746b3fe-e256-4637-b1a5-bd00247c5db1",
      "meta": {
        "profile": [ "http://hl7.org/fhir/us/qicore/StructureDefinition/qicore-immunization" ]
      },
      "status": "completed",
      "vaccineCode": {
        "coding": [ {
          "system": "http://hl7.org/fhir/sid/cvx",
          "code": "51",
          "display": "Haemophilus influenzae type b conjugate and Hepatitis B vaccine"
        } ]
      },
      "patient": {
        "reference": "Patient/6b9e1f1b-90db-42f2-8591-f1a1858ca27a"
      },
      "occurrenceDateTime": "2025-01-02T00:00:00.000+00:00",
      "recorded": "2025-01-02T00:00:00.000+00:00",
      "primarySource": true
    },
    "request": {
      "method": "PUT",
      "url": "Immunization/8746b3fe-e256-4637-b1a5-bd00247c5db1"
    }
  }, {
    "fullUrl": "https://madie.cms.gov/Immunization/5242097b-be20-4982-8bcf-715dbb43ad05",
    "resource": {
      "resourceType": "Immunization",
      "id": "5242097b-be20-4982-8bcf-715dbb43ad05",
      "meta": {
        "profile": [ "http://hl7.org/fhir/us/qicore/StructureDefinition/qicore-immunization" ]
      },
      "status": "completed",
      "vaccineCode": {
        "coding": [ {
          "system": "http://hl7.org/fhir/sid/cvx",
          "code": "51",
          "display": "Haemophilus influenzae type b conjugate and Hepatitis B vaccine"
        } ]
      },
      "patient": {
        "reference": "Patient/6b9e1f1b-90db-42f2-8591-f1a1858ca27a"
      },
      "occurrenceDateTime": "2025-01-10T00:00:00.000+00:00",
      "recorded": "2025-01-02T00:00:00.000+00:00",
      "primarySource": true
    },
    "request": {
      "method": "PUT",
      "url": "Immunization/5242097b-be20-4982-8bcf-715dbb43ad05"
    }
  }, {
    "fullUrl": "https://madie.cms.gov/Immunization/9b783ef5-c227-441d-a2c8-96677d8b1099",
    "resource": {
      "resourceType": "Immunization",
      "id": "9b783ef5-c227-441d-a2c8-96677d8b1099",
      "meta": {
        "profile": [ "http://hl7.org/fhir/us/qicore/StructureDefinition/qicore-immunization" ]
      },
      "status": "completed",
      "vaccineCode": {
        "coding": [ {
          "system": "http://hl7.org/fhir/sid/cvx",
          "code": "51",
          "display": "Haemophilus influenzae type b conjugate and Hepatitis B vaccine"
        } ]
      },
      "patient": {
        "reference": "Patient/6b9e1f1b-90db-42f2-8591-f1a1858ca27a"
      },
      "occurrenceDateTime": "2025-01-12T00:00:00.000+00:00",
      "recorded": "2025-01-02T00:00:00.000+00:00",
      "primarySource": true
    },
    "request": {
      "method": "PUT",
      "url": "Immunization/9b783ef5-c227-441d-a2c8-96677d8b1099"
    }
  }, {
    "fullUrl": "https://madie.cms.gov/Immunization/27ecb94c-b42b-43ed-9536-d7b02c3abbd5",
    "resource": {
      "resourceType": "Immunization",
      "id": "27ecb94c-b42b-43ed-9536-d7b02c3abbd5",
      "meta": {
        "profile": [ "http://hl7.org/fhir/us/qicore/StructureDefinition/qicore-immunization" ]
      },
      "status": "completed",
      "vaccineCode": {
        "coding": [ {
          "system": "http://hl7.org/fhir/sid/cvx",
          "code": "94",
          "display": "measles, mumps, rubella, and varicella virus vaccine"
        } ]
      },
      "patient": {
        "reference": "Patient/6b9e1f1b-90db-42f2-8591-f1a1858ca27a"
      },
      "occurrenceDateTime": "2025-01-02T00:00:00.000+00:00",
      "recorded": "2025-01-02T00:00:00.000+00:00",
      "primarySource": true
    },
    "request": {
      "method": "PUT",
      "url": "Immunization/27ecb94c-b42b-43ed-9536-d7b02c3abbd5"
    }
  }, {
    "fullUrl": "https://madie.cms.gov/Immunization/a69837b3-b806-428c-ae26-60971827833d",
    "resource": {
      "resourceType": "Immunization",
      "id": "a69837b3-b806-428c-ae26-60971827833d",
      "meta": {
        "profile": [ "http://hl7.org/fhir/us/qicore/StructureDefinition/qicore-immunization" ]
      },
      "status": "completed",
      "vaccineCode": {
        "coding": [ {
          "system": "http://hl7.org/fhir/sid/cvx",
          "code": "215",
          "display": "Pneumococcal conjugate vaccine 15-valent (PCV15), polysaccharide CRM197 conjugate, adjuvant, preservative free"
        } ]
      },
      "patient": {
        "reference": "Patient/6b9e1f1b-90db-42f2-8591-f1a1858ca27a"
      },
      "occurrenceDateTime": "2025-01-12T00:00:00.000+00:00",
      "recorded": "2025-01-02T00:00:00.000+00:00",
      "primarySource": true
    },
    "request": {
      "method": "PUT",
      "url": "Immunization/a69837b3-b806-428c-ae26-60971827833d"
    }
  }, {
    "fullUrl": "https://madie.cms.gov/Immunization/418d3da3-fd68-455f-8e21-d0c75a6cc6f2",
    "resource": {
      "resourceType": "Immunization",
      "id": "418d3da3-fd68-455f-8e21-d0c75a6cc6f2",
      "meta": {
        "profile": [ "http://hl7.org/fhir/us/qicore/StructureDefinition/qicore-immunization" ]
      },
      "status": "completed",
      "vaccineCode": {
        "coding": [ {
          "system": "http://hl7.org/fhir/sid/cvx",
          "code": "215",
          "display": "Pneumococcal conjugate vaccine 15-valent (PCV15), polysaccharide CRM197 conjugate, adjuvant, preservative free"
        } ]
      },
      "patient": {
        "reference": "Patient/6b9e1f1b-90db-42f2-8591-f1a1858ca27a"
      },
      "occurrenceDateTime": "2025-01-14T00:00:00.000+00:00",
      "recorded": "2025-01-02T00:00:00.000+00:00",
      "primarySource": true
    },
    "request": {
      "method": "PUT",
      "url": "Immunization/418d3da3-fd68-455f-8e21-d0c75a6cc6f2"
    }
  }, {
    "fullUrl": "https://madie.cms.gov/Immunization/e6495c09-beff-498a-a2a4-dbdad617a781",
    "resource": {
      "resourceType": "Immunization",
      "id": "e6495c09-beff-498a-a2a4-dbdad617a781",
      "meta": {
        "profile": [ "http://hl7.org/fhir/us/qicore/StructureDefinition/qicore-immunization" ]
      },
      "status": "completed",
      "vaccineCode": {
        "coding": [ {
          "system": "http://hl7.org/fhir/sid/cvx",
          "code": "215",
          "display": "Pneumococcal conjugate vaccine 15-valent (PCV15), polysaccharide CRM197 conjugate, adjuvant, preservative free"
        } ]
      },
      "patient": {
        "reference": "Patient/6b9e1f1b-90db-42f2-8591-f1a1858ca27a"
      },
      "occurrenceDateTime": "2025-01-20T00:00:00.000+00:00",
      "recorded": "2025-01-02T00:00:00.000+00:00",
      "primarySource": true
    },
    "request": {
      "method": "PUT",
      "url": "Immunization/e6495c09-beff-498a-a2a4-dbdad617a781"
    }
  }, {
    "fullUrl": "https://madie.cms.gov/Immunization/37be8530-be8f-42df-a19a-8ec93f96a42d",
    "resource": {
      "resourceType": "Immunization",
      "id": "37be8530-be8f-42df-a19a-8ec93f96a42d",
      "meta": {
        "profile": [ "http://hl7.org/fhir/us/qicore/StructureDefinition/qicore-immunization" ]
      },
      "status": "completed",
      "vaccineCode": {
        "coding": [ {
          "system": "http://hl7.org/fhir/sid/cvx",
          "code": "215",
          "display": "Pneumococcal conjugate vaccine 15-valent (PCV15), polysaccharide CRM197 conjugate, adjuvant, preservative free"
        } ]
      },
      "patient": {
        "reference": "Patient/6b9e1f1b-90db-42f2-8591-f1a1858ca27a"
      },
      "occurrenceDateTime": "2025-01-22T00:00:00.000+00:00",
      "recorded": "2025-01-02T00:00:00.000+00:00",
      "primarySource": true
    },
    "request": {
      "method": "PUT",
      "url": "Immunization/37be8530-be8f-42df-a19a-8ec93f96a42d"
    }
  }, {
    "fullUrl": "https://madie.cms.gov/Immunization/b009519b-e6cc-4f6f-b3cc-44670d63af35",
    "resource": {
      "resourceType": "Immunization",
      "id": "b009519b-e6cc-4f6f-b3cc-44670d63af35",
      "meta": {
        "profile": [ "http://hl7.org/fhir/us/qicore/StructureDefinition/qicore-immunization" ]
      },
      "status": "completed",
      "vaccineCode": {
        "coding": [ {
          "system": "http://hl7.org/fhir/sid/cvx",
          "code": "85",
          "display": "hepatitis A vaccine, unspecified formulation"
        } ]
      },
      "patient": {
        "reference": "Patient/6b9e1f1b-90db-42f2-8591-f1a1858ca27a"
      },
      "occurrenceDateTime": "2025-01-02T00:00:00.000+00:00",
      "recorded": "2025-01-02T00:00:00.000+00:00",
      "primarySource": true
    },
    "request": {
      "method": "PUT",
      "url": "Immunization/b009519b-e6cc-4f6f-b3cc-44670d63af35"
    }
  }, {
    "fullUrl": "https://madie.cms.gov/Immunization/fe4bdad1-c5ac-461c-baf2-42121a5af307",
    "resource": {
      "resourceType": "Immunization",
      "id": "fe4bdad1-c5ac-461c-baf2-42121a5af307",
      "meta": {
        "profile": [ "http://hl7.org/fhir/us/qicore/StructureDefinition/qicore-immunization" ]
      },
      "status": "completed",
      "vaccineCode": {
        "coding": [ {
          "system": "http://hl7.org/fhir/sid/cvx",
          "code": "119",
          "display": "rotavirus, live, monovalent vaccine"
        } ]
      },
      "patient": {
        "reference": "Patient/6b9e1f1b-90db-42f2-8591-f1a1858ca27a"
      },
      "occurrenceDateTime": "2025-01-02T00:00:00.000+00:00",
      "recorded": "2025-01-02T00:00:00.000+00:00",
      "primarySource": true
    },
    "request": {
      "method": "PUT",
      "url": "Immunization/fe4bdad1-c5ac-461c-baf2-42121a5af307"
    }
  }, {
    "fullUrl": "https://madie.cms.gov/Immunization/cee62ac4-5824-43bd-ad48-313f60e7f761",
    "resource": {
      "resourceType": "Immunization",
      "id": "cee62ac4-5824-43bd-ad48-313f60e7f761",
      "meta": {
        "profile": [ "http://hl7.org/fhir/us/qicore/StructureDefinition/qicore-immunization" ]
      },
      "status": "completed",
      "vaccineCode": {
        "coding": [ {
          "system": "http://hl7.org/fhir/sid/cvx",
          "code": "119",
          "display": "rotavirus, live, monovalent vaccine"
        } ]
      },
      "patient": {
        "reference": "Patient/6b9e1f1b-90db-42f2-8591-f1a1858ca27a"
      },
      "occurrenceDateTime": "2025-01-07T00:00:00.000+00:00",
      "recorded": "2025-01-02T00:00:00.000+00:00",
      "primarySource": true
    },
    "request": {
      "method": "PUT",
      "url": "Immunization/cee62ac4-5824-43bd-ad48-313f60e7f761"
    }
  }, {
    "fullUrl": "https://madie.cms.gov/Immunization/a91493f0-d532-4ed1-857c-3b74791836f9",
    "resource": {
      "resourceType": "Immunization",
      "id": "a91493f0-d532-4ed1-857c-3b74791836f9",
      "meta": {
        "profile": [ "http://hl7.org/fhir/us/qicore/StructureDefinition/qicore-immunization" ]
      },
      "status": "completed",
      "vaccineCode": {
        "coding": [ {
          "system": "http://hl7.org/fhir/sid/cvx",
          "code": "153",
          "display": "Influenza, injectable, MDCK, preservative free"
        } ]
      },
      "patient": {
        "reference": "Patient/6b9e1f1b-90db-42f2-8591-f1a1858ca27a"
      },
      "occurrenceDateTime": "2025-01-02T00:00:00.000+00:00",
      "recorded": "2025-01-02T00:00:00.000+00:00",
      "primarySource": true
    },
    "request": {
      "method": "PUT",
      "url": "Immunization/a91493f0-d532-4ed1-857c-3b74791836f9"
    }
  }, {
    "fullUrl": "https://madie.cms.gov/Immunization/3f79892d-a065-4061-b58a-4f8c86af89a1",
    "resource": {
      "resourceType": "Immunization",
      "id": "3f79892d-a065-4061-b58a-4f8c86af89a1",
      "meta": {
        "profile": [ "http://hl7.org/fhir/us/qicore/StructureDefinition/qicore-immunization" ]
      },
      "status": "completed",
      "vaccineCode": {
        "coding": [ {
          "system": "http://hl7.org/fhir/sid/cvx",
          "code": "153",
          "display": "Influenza, injectable, MDCK, preservative free"
        } ]
      },
      "patient": {
        "reference": "Patient/6b9e1f1b-90db-42f2-8591-f1a1858ca27a"
      },
      "occurrenceDateTime": "2025-01-10T00:00:00.000+00:00",
      "recorded": "2025-01-02T00:00:00.000+00:00",
      "primarySource": true
    },
    "request": {
      "method": "PUT",
      "url": "Immunization/3f79892d-a065-4061-b58a-4f8c86af89a1"
    }
  }, {
    "fullUrl": "https://madie.cms.gov/MeasureReport/796c0397-56bd-4c2b-aec9-7f4572366f2f",
    "resource": {
      "resourceType": "MeasureReport",
      "id": "796c0397-56bd-4c2b-aec9-7f4572366f2f",
      "meta": {
        "profile": [ "http://hl7.org/fhir/us/cqfmeasures/StructureDefinition/test-case-cqfm" ]
      },
      "contained": [ {
        "resourceType": "Parameters",
        "id": "969deb3d-effa-492b-a999-01527d518560-parameters",
        "parameter": [ {
          "name": "subject",
          "valueString": "6b9e1f1b-90db-42f2-8591-f1a1858ca27a"
        } ]
      } ],
      "extension": [ {
        "url": "http://hl7.org/fhir/StructureDefinition/cqf-inputParameters",
        "valueReference": {
          "reference": "#969deb3d-effa-492b-a999-01527d518560-parameters"
        }
      }, {
        "url": "http://hl7.org/fhir/us/cqfmeasures/StructureDefinition/cqfm-testCaseDescription",
        "valueMarkdown": "Two DTap same day"
      } ],
      "modifierExtension": [ {
        "url": "http://hl7.org/fhir/us/cqfmeasures/StructureDefinition/cqfm-isTestCase",
        "valueBoolean": true
      } ],
      "status": "complete",
      "type": "individual",
      "measure": "https://madie.cms.gov/Measure/CMS117FHIRChildImmunStatus",
      "period": {
        "start": "2026-01-01",
        "end": "2026-12-31"
      },
      "group": [ {
        "id": "Group_1",
        "population": [ {
          "id": "InitialPopulation_1",
          "code": {
            "coding": [ {
              "system": "http://terminology.hl7.org/CodeSystem/measure-population",
              "code": "initial-population",
              "display": "Initial Population"
            } ]
          },
          "count": 1
        }, {
          "id": "Denominator_1",
          "code": {
            "coding": [ {
              "system": "http://terminology.hl7.org/CodeSystem/measure-population",
              "code": "denominator",
              "display": "Denominator"
            } ]
          },
          "count": 1
        }, {
          "id": "DenominatorExclusion_1",
          "code": {
            "coding": [ {
              "system": "http://terminology.hl7.org/CodeSystem/measure-population",
              "code": "denominator-exclusion",
              "display": "Denominator Exclusion"
            } ]
          },
          "count": 0
        }, {
          "id": "Numerator_1",
          "code": {
            "coding": [ {
              "system": "http://terminology.hl7.org/CodeSystem/measure-population",
              "code": "numerator",
              "display": "Numerator"
            } ]
          },
          "count": 0
        } ],
        "measureScore": {
          "value": 1.0
        }
      } ],
      "evaluatedResource": [ {
        "reference": "Patient/6b9e1f1b-90db-42f2-8591-f1a1858ca27a"
      }, {
        "reference": "Encounter/6b63af41-a08a-4952-97b3-3b891a6fab87"
      }, {
        "reference": "Immunization/06f589b3-1240-4fa5-964a-3fc34afd9aa6"
      }, {
        "reference": "Immunization/8dafea8a-d11b-4762-8183-74868ecd6d44"
      }, {
        "reference": "Immunization/35c8e227-7b14-41c6-8ed2-0ef73e451a93"
      }, {
        "reference": "Immunization/b07f05cc-bb83-4822-a3a5-c1e82ee9c700"
      }, {
        "reference": "Immunization/467a918f-460a-47fa-86f7-02461e2f85e8"
      }, {
        "reference": "Immunization/6d49f982-ed25-4884-a6c1-d0243eb54861"
      }, {
        "reference": "Immunization/3e92e799-1ea5-41ee-8f50-cc6ca1c502a9"
      }, {
        "reference": "Immunization/0b397305-66d1-4aa8-9dd8-4cfe21afc258"
      }, {
        "reference": "Immunization/b02e24ca-1b87-4825-bdbc-cba4980c7b1a"
      }, {
        "reference": "Immunization/88b67db3-d9f4-453e-ae50-7acdbf5c7cac"
      }, {
        "reference": "Immunization/30ebb6ce-244c-453c-9776-63db032a7c28"
      }, {
        "reference": "Immunization/8746b3fe-e256-4637-b1a5-bd00247c5db1"
      }, {
        "reference": "Immunization/5242097b-be20-4982-8bcf-715dbb43ad05"
      }, {
        "reference": "Immunization/9b783ef5-c227-441d-a2c8-96677d8b1099"
      }, {
        "reference": "Immunization/27ecb94c-b42b-43ed-9536-d7b02c3abbd5"
      }, {
        "reference": "Immunization/a69837b3-b806-428c-ae26-60971827833d"
      }, {
        "reference": "Immunization/418d3da3-fd68-455f-8e21-d0c75a6cc6f2"
      }, {
        "reference": "Immunization/e6495c09-beff-498a-a2a4-dbdad617a781"
      }, {
        "reference": "Immunization/37be8530-be8f-42df-a19a-8ec93f96a42d"
      }, {
        "reference": "Immunization/b009519b-e6cc-4f6f-b3cc-44670d63af35"
      }, {
        "reference": "Immunization/fe4bdad1-c5ac-461c-baf2-42121a5af307"
      }, {
        "reference": "Immunization/cee62ac4-5824-43bd-ad48-313f60e7f761"
      }, {
        "reference": "Immunization/a91493f0-d532-4ed1-857c-3b74791836f9"
      }, {
        "reference": "Immunization/3f79892d-a065-4061-b58a-4f8c86af89a1"
      } ]
    },
    "request": {
      "method": "PUT",
      "url": "MeasureReport/796c0397-56bd-4c2b-aec9-7f4572366f2f"
    }
  } ]
}