{
  "resourceType": "Bundle",
  "id": "DENOMPass-RVNeuropathyDxPOA",
  "type": "transaction",
  "entry": [ {
    "fullUrl": "https://madie.cms.gov/Claim/76521020-b02f-442d-8dda-cd209648e6f5",
    "resource": {
      "resourceType": "Claim",
      "id": "76521020-b02f-442d-8dda-cd209648e6f5",
      "meta": {
        "profile": [ "http://hl7.org/fhir/us/qicore/StructureDefinition/qicore-claim" ]
      },
      "status": "active",
      "type": {
        "coding": [ {
          "system": "http://terminology.hl7.org/CodeSystem/claim-type",
          "code": "professional",
          "display": "Professional"
        } ]
      },
      "use": "claim",
      "patient": {
        "reference": "Patient/28684639-1aa3-429c-9cac-4e8217995b13"
      },
      "created": "2026-12-12",
      "provider": {
        "reference": "Practitioner/practitioner-1"
      },
      "priority": {
        "coding": [ {
          "system": "http://terminology.hl7.org/CodeSystem/processpriority",
          "code": "normal"
        } ]
      },
      "diagnosis": [ {
        "sequence": 1,
        "diagnosisCodeableConcept": {
          "coding": [ {
            "system": "http://hl7.org/fhir/sid/icd-10-cm",
            "code": "A52.15"
          } ]
        },
        "onAdmission": {
          "coding": [ {
            "system": "https://www.cms.gov/Medicare/Medicare-Fee-for-Service-Payment/HospitalAcqCond/Coding",
            "code": "Y"
          } ]
        }
      } ],
      "insurance": [ {
        "sequence": 1,
        "focal": true,
        "coverage": {
          "reference": "Coverage/coverage-1"
        }
      } ],
      "item": [ {
        "sequence": 1,
        "diagnosisSequence": [ 1, 2 ],
        "productOrService": {
          "coding": [ {
            "system": "http://terminology.hl7.org/CodeSystem/ex-USCLS",
            "code": "1101"
          } ]
        },
        "encounter": [ {
          "reference": "Encounter/3210597d-eeeb-4194-8f5a-9b057b114116"
        } ]
      } ]
    },
    "request": {
      "method": "PUT",
      "url": "Claim/76521020-b02f-442d-8dda-cd209648e6f5"
    }
  }, {
    "fullUrl": "https://madie.cms.gov/Patient/28684639-1aa3-429c-9cac-4e8217995b13",
    "resource": {
      "resourceType": "Patient",
      "id": "28684639-1aa3-429c-9cac-4e8217995b13",
      "meta": {
        "profile": [ "http://hl7.org/fhir/us/qicore/StructureDefinition/qicore-patient" ]
      },
      "extension": [ {
        "url": "http://hl7.org/fhir/us/core/StructureDefinition/us-core-race",
        "extension": [ {
          "url": "ombCategory",
          "valueCoding": {
            "system": "urn:oid:2.16.840.1.113883.6.238",
            "code": "1002-5",
            "display": "American Indian or Alaska Native",
            "userSelected": true
          }
        }, {
          "url": "text",
          "valueString": "American Indian or Alaska Native"
        } ]
      }, {
        "url": "http://hl7.org/fhir/us/core/StructureDefinition/us-core-ethnicity",
        "extension": [ {
          "url": "ombCategory",
          "valueCoding": {
            "system": "urn:oid:2.16.840.1.113883.6.238",
            "code": "2135-2",
            "display": "Hispanic or Latino",
            "userSelected": true
          }
        }, {
          "url": "text",
          "valueString": "Hispanic or Latino"
        } ]
      } ],
      "identifier": [ {
        "type": {
          "coding": [ {
            "system": "http://terminology.hl7.org/CodeSystem/v2-0203",
            "code": "MR"
          } ]
        },
        "system": "https://bonnie-fhir.healthit.gov/",
        "value": "61152a3b98086b7a79cbd7c1"
      } ],
      "active": true,
      "name": [ {
        "use": "usual",
        "family": "DENOMPass",
        "given": [ "RVDeliriumDxPOA" ]
      } ],
      "gender": "female",
      "birthDate": "1964-12-11"
    },
    "request": {
      "method": "PUT",
      "url": "Patient/28684639-1aa3-429c-9cac-4e8217995b13"
    }
  }, {
    "fullUrl": "https://madie.cms.gov/Encounter/3210597d-eeeb-4194-8f5a-9b057b114116",
    "resource": {
      "resourceType": "Encounter",
      "id": "3210597d-eeeb-4194-8f5a-9b057b114116",
      "meta": {
        "profile": [ "http://hl7.org/fhir/us/qicore/StructureDefinition/qicore-encounter" ]
      },
      "status": "finished",
      "class": {
        "system": "http://terminology.hl7.org/CodeSystem/v3-ActCode",
        "code": "IMP",
        "display": "inpatient encounter"
      },
      "type": [ {
        "coding": [ {
          "system": "http://snomed.info/sct",
          "code": "183452005",
          "display": "Emergency hospital admission"
        } ]
      } ],
      "subject": {
        "reference": "Patient/28684639-1aa3-429c-9cac-4e8217995b13"
      },
      "period": {
        "start": "2026-11-12T08:00:00.000+00:00",
        "end": "2026-11-18T08:01:00.000+00:00"
      },
      "length": {
        "value": 6,
        "unit": "days"
      }
    },
    "request": {
      "method": "PUT",
      "url": "Encounter/3210597d-eeeb-4194-8f5a-9b057b114116"
    }
  }, {
    "fullUrl": "https://madie.cms.gov/Practitioner/c3f2007e-acde-4def-b7ea-76df83ff5b7f",
    "resource": {
      "resourceType": "Practitioner",
      "id": "c3f2007e-acde-4def-b7ea-76df83ff5b7f",
      "identifier": [ {
        "system": "http://www.cms.gov/identifiers/pracitioners",
        "value": "P12345"
      } ],
      "name": [ {
        "use": "official",
        "family": "Smith",
        "given": [ "John" ]
      } ],
      "qualification": [ {
        "identifier": [ {
          "system": "http://hl7.org/fhir/sid/us-npi",
          "value": "1234567890"
        } ],
        "code": {
          "coding": [ {
            "system": "http://terminology.hl7.org/CodeSystem/v2-0203",
            "code": "MD",
            "display": "Medical License number"
          } ]
        }
      } ]
    },
    "request": {
      "method": "PUT",
      "url": "Practitioner/c3f2007e-acde-4def-b7ea-76df83ff5b7f"
    }
  }, {
    "fullUrl": "https://madie.cms.gov/Coverage/ece5672f-d396-4738-b4cc-7c468db0d58f",
    "resource": {
      "resourceType": "Coverage",
      "id": "ece5672f-d396-4738-b4cc-7c468db0d58f",
      "status": "active",
      "beneficiary": {
        "reference": "Patient/28684639-1aa3-429c-9cac-4e8217995b13"
      },
      "payor": [ {
        "reference": "Organization/93c59788-09c3-46ce-a036-6b307a9ba9ea"
      } ]
    },
    "request": {
      "method": "PUT",
      "url": "Coverage/ece5672f-d396-4738-b4cc-7c468db0d58f"
    }
  }, {
    "fullUrl": "https://madie.cms.gov/Organization/93c59788-09c3-46ce-a036-6b307a9ba9ea",
    "resource": {
      "resourceType": "Organization",
      "id": "93c59788-09c3-46ce-a036-6b307a9ba9ea",
      "identifier": [ {
        "system": "http://cms.gov/insurance-ids",
        "value": "AET12345"
      } ],
      "type": [ {
        "coding": [ {
          "system": "http://terminology.hl7.org/CodeSystem/organization-type",
          "code": "prov",
          "display": "Healthcare Provider"
        } ]
      } ],
      "name": "Aetna Insurance",
      "telecom": [ {
        "system": "phone",
        "value": "+1-800-123-4567"
      } ],
      "address": [ {
        "line": [ "123 Main Street" ],
        "city": "Cityville",
        "state": "CA",
        "postalCode": "12345",
        "country": "USA"
      } ]
    },
    "request": {
      "method": "PUT",
      "url": "Organization/93c59788-09c3-46ce-a036-6b307a9ba9ea"
    }
  }, {
    "fullUrl": "https://madie.cms.gov/MeasureReport/4f50177e-ee99-41d1-ac09-5b8312f5e6fe",
    "resource": {
      "resourceType": "MeasureReport",
      "id": "4f50177e-ee99-41d1-ac09-5b8312f5e6fe",
      "meta": {
        "profile": [ "http://hl7.org/fhir/us/cqfmeasures/StructureDefinition/test-case-cqfm" ]
      },
      "contained": [ {
        "resourceType": "Parameters",
        "id": "643ef79a-cff7-4840-8eab-1ca3ebf6f2ae-parameters",
        "parameter": [ {
          "name": "subject",
          "valueString": "28684639-1aa3-429c-9cac-4e8217995b13"
        } ]
      } ],
      "extension": [ {
        "url": "http://hl7.org/fhir/StructureDefinition/cqf-inputParameters",
        "valueReference": {
          "reference": "#643ef79a-cff7-4840-8eab-1ca3ebf6f2ae-parameters"
        }
      }, {
        "url": "http://hl7.org/fhir/us/cqfmeasures/StructureDefinition/cqfm-testCaseDescription",
        "valueMarkdown": "Encounter with Neuropathy Present dx POA = Y. Meets RV"
      } ],
      "modifierExtension": [ {
        "url": "http://hl7.org/fhir/us/cqfmeasures/StructureDefinition/cqfm-isTestCase",
        "valueBoolean": true
      } ],
      "status": "complete",
      "type": "individual",
      "measure": "https://madie.cms.gov/Measure/CMS1017FHIRHHFI",
      "period": {
        "start": "2026-01-01",
        "end": "2026-12-31"
      },
      "group": [ {
        "id": "Group_1",
        "population": [ {
          "id": "InitialPopulation_1",
          "code": {
            "coding": [ {
              "system": "http://terminology.hl7.org/CodeSystem/measure-population",
              "code": "initial-population",
              "display": "Initial Population"
            } ]
          },
          "count": 1
        }, {
          "id": "Denominator_1",
          "code": {
            "coding": [ {
              "system": "http://terminology.hl7.org/CodeSystem/measure-population",
              "code": "denominator",
              "display": "Denominator"
            } ]
          },
          "count": 1
        }, {
          "id": "DenominatorExclusion_1",
          "code": {
            "coding": [ {
              "system": "http://terminology.hl7.org/CodeSystem/measure-population",
              "code": "denominator-exclusion",
              "display": "Denominator Exclusion"
            } ]
          },
          "count": 0
        }, {
          "id": "Numerator_1",
          "code": {
            "coding": [ {
              "system": "http://terminology.hl7.org/CodeSystem/measure-population",
              "code": "numerator",
              "display": "Numerator"
            } ]
          },
          "count": 0
        }, {
          "id": "NumeratorExclusion_1",
          "code": {
            "coding": [ {
              "system": "http://terminology.hl7.org/CodeSystem/measure-population",
              "code": "numerator-exclusion",
              "display": "Numerator Exclusion"
            } ]
          },
          "count": 0
        }, {
          "id": "MeasureObservation_1_1_1",
          "code": {
            "coding": [ {
              "system": "http://terminology.hl7.org/CodeSystem/measure-population",
              "code": "measure-observation",
              "display": "Measure Observation"
            } ]
          },
          "count": 6
        } ],
        "measureScore": {
          "value": 0.0
        }
      } ],
      "evaluatedResource": [ {
        "reference": "Claim/76521020-b02f-442d-8dda-cd209648e6f5"
      }, {
        "reference": "Patient/28684639-1aa3-429c-9cac-4e8217995b13"
      }, {
        "reference": "Encounter/3210597d-eeeb-4194-8f5a-9b057b114116"
      }, {
        "reference": "Practitioner/c3f2007e-acde-4def-b7ea-76df83ff5b7f"
      }, {
        "reference": "Coverage/ece5672f-d396-4738-b4cc-7c468db0d58f"
      }, {
        "reference": "Organization/93c59788-09c3-46ce-a036-6b307a9ba9ea"
      } ]
    },
    "request": {
      "method": "PUT",
      "url": "MeasureReport/4f50177e-ee99-41d1-ac09-5b8312f5e6fe"
    }
  } ]
}