{
  "resourceType": "Bundle",
  "id": "DENEXPass-HospiceDischargeToFacilityDuringMP",
  "type": "transaction",
  "entry": [ {
    "fullUrl": "https://madie.cms.gov/Patient/29d930b1-1bb6-4089-9ed6-aa2b7b77d5a4",
    "resource": {
      "resourceType": "Patient",
      "id": "29d930b1-1bb6-4089-9ed6-aa2b7b77d5a4",
      "meta": {
        "profile": [ "http://hl7.org/fhir/us/qicore/StructureDefinition/qicore-patient" ]
      },
      "extension": [ {
        "url": "http://hl7.org/fhir/us/core/StructureDefinition/us-core-race",
        "extension": [ {
          "url": "ombCategory",
          "valueCoding": {
            "system": "urn:oid:2.16.840.1.113883.6.238",
            "code": "2028-9",
            "display": "Asian"
          }
        }, {
          "url": "text",
          "valueString": "Asian"
        } ]
      }, {
        "url": "http://hl7.org/fhir/us/core/StructureDefinition/us-core-ethnicity",
        "extension": [ {
          "url": "ombCategory",
          "valueCoding": {
            "system": "urn:oid:2.16.840.1.113883.6.238",
            "code": "2135-2",
            "display": "Hispanic or Latino"
          }
        }, {
          "url": "text",
          "valueString": "Hispanic or Latino"
        } ]
      } ],
      "identifier": [ {
        "system": "http://hospital.smarthealthit.org",
        "value": "999999995"
      } ],
      "name": [ {
        "family": "DENEXPass",
        "given": [ "HospiceDischargeToFacilityDuringMP" ]
      } ],
      "gender": "female",
      "birthDate": "2007-12-31"
    },
    "request": {
      "method": "PUT",
      "url": "Patient/29d930b1-1bb6-4089-9ed6-aa2b7b77d5a4"
    }
  }, {
    "fullUrl": "https://madie.cms.gov/Encounter/e3bbdcc7-ae89-403b-a613-ce528c9112cd",
    "resource": {
      "resourceType": "Encounter",
      "id": "e3bbdcc7-ae89-403b-a613-ce528c9112cd",
      "meta": {
        "profile": [ "http://hl7.org/fhir/us/qicore/StructureDefinition/qicore-encounter" ]
      },
      "status": "finished",
      "class": {
        "system": "http://terminology.hl7.org/CodeSystem/v3-ActCode",
        "code": "AMB",
        "display": "ambulatory"
      },
      "type": [ {
        "coding": [ {
          "system": "http://snomed.info/sct",
          "code": "3391000175108",
          "display": "Office visit for pediatric care and assessment (procedure)"
        } ]
      } ],
      "subject": {
        "reference": "Patient/29d930b1-1bb6-4089-9ed6-aa2b7b77d5a4"
      },
      "period": {
        "start": "2026-01-01T00:00:00.000+00:00",
        "end": "2026-01-01T01:00:00.000+00:00"
      }
    },
    "request": {
      "method": "PUT",
      "url": "Encounter/e3bbdcc7-ae89-403b-a613-ce528c9112cd"
    }
  }, {
    "fullUrl": "https://madie.cms.gov/Condition/098c1ebb-b92f-488c-abd2-dcefe9c507a0",
    "resource": {
      "resourceType": "Condition",
      "id": "098c1ebb-b92f-488c-abd2-dcefe9c507a0",
      "meta": {
        "profile": [ "http://hl7.org/fhir/us/qicore/StructureDefinition/qicore-condition-problems-health-concerns" ]
      },
      "clinicalStatus": {
        "coding": [ {
          "system": "http://terminology.hl7.org/CodeSystem/condition-clinical",
          "code": "active"
        } ]
      },
      "category": [ {
        "coding": [ {
          "system": "http://terminology.hl7.org/CodeSystem/condition-category",
          "code": "problem-list-item",
          "display": "Problem List Item"
        } ]
      } ],
      "code": {
        "coding": [ {
          "system": "http://snomed.info/sct",
          "code": "371125006",
          "display": "Labile essential hypertension (disorder)"
        } ]
      },
      "subject": {
        "reference": "Patient/29d930b1-1bb6-4089-9ed6-aa2b7b77d5a4"
      },
      "onsetDateTime": "2026-06-30T23:59:59.000+00:00"
    },
    "request": {
      "method": "PUT",
      "url": "Condition/098c1ebb-b92f-488c-abd2-dcefe9c507a0"
    }
  }, {
    "fullUrl": "https://madie.cms.gov/Encounter/372fbdab-1a0a-47be-8ef9-1f53555d4070",
    "resource": {
      "resourceType": "Encounter",
      "id": "372fbdab-1a0a-47be-8ef9-1f53555d4070",
      "meta": {
        "profile": [ "http://hl7.org/fhir/us/qicore/StructureDefinition/qicore-encounter" ]
      },
      "status": "finished",
      "class": {
        "system": "http://terminology.hl7.org/CodeSystem/v3-ActCode",
        "code": "AMB",
        "display": "ambulatory"
      },
      "type": [ {
        "coding": [ {
          "system": "http://snomed.info/sct",
          "code": "32485007",
          "display": "Hospital admission (procedure)"
        } ]
      } ],
      "subject": {
        "reference": "Patient/29d930b1-1bb6-4089-9ed6-aa2b7b77d5a4"
      },
      "period": {
        "start": "2025-12-31T23:59:59.000+00:00",
        "end": "2026-01-01T01:00:00.000+00:00"
      },
      "hospitalization": {
        "dischargeDisposition": {
          "coding": [ {
            "system": "http://snomed.info/sct",
            "code": "428371000124100",
            "display": "Discharge to healthcare facility for hospice care (procedure)"
          } ]
        }
      }
    },
    "request": {
      "method": "PUT",
      "url": "Encounter/372fbdab-1a0a-47be-8ef9-1f53555d4070"
    }
  }, {
    "fullUrl": "https://madie.cms.gov/MeasureReport/1590b87e-b65f-4331-8ffa-0d2952d2fba0",
    "resource": {
      "resourceType": "MeasureReport",
      "id": "1590b87e-b65f-4331-8ffa-0d2952d2fba0",
      "meta": {
        "profile": [ "http://hl7.org/fhir/us/cqfmeasures/StructureDefinition/test-case-cqfm" ]
      },
      "contained": [ {
        "resourceType": "Parameters",
        "id": "d693b0c5-f719-4b94-a770-57521962e8ce-parameters",
        "parameter": [ {
          "name": "subject",
          "valueString": "29d930b1-1bb6-4089-9ed6-aa2b7b77d5a4"
        } ]
      } ],
      "extension": [ {
        "url": "http://hl7.org/fhir/StructureDefinition/cqf-inputParameters",
        "valueReference": {
          "reference": "#d693b0c5-f719-4b94-a770-57521962e8ce-parameters"
        }
      }, {
        "url": "http://hl7.org/fhir/us/cqfmeasures/StructureDefinition/cqfm-testCaseDescription",
        "valueMarkdown": "Hospice discharge to facility during MP"
      } ],
      "modifierExtension": [ {
        "url": "http://hl7.org/fhir/us/cqfmeasures/StructureDefinition/cqfm-isTestCase",
        "valueBoolean": true
      } ],
      "status": "complete",
      "type": "individual",
      "measure": "https://madie.cms.gov/Measure/CMS165FHIRControllingHighBP",
      "period": {
        "start": "2026-01-01",
        "end": "2026-12-31"
      },
      "group": [ {
        "id": "Group_1",
        "population": [ {
          "id": "InitialPopulation_1",
          "code": {
            "coding": [ {
              "system": "http://terminology.hl7.org/CodeSystem/measure-population",
              "code": "initial-population",
              "display": "Initial Population"
            } ]
          },
          "count": 1
        }, {
          "id": "Denominator_1",
          "code": {
            "coding": [ {
              "system": "http://terminology.hl7.org/CodeSystem/measure-population",
              "code": "denominator",
              "display": "Denominator"
            } ]
          },
          "count": 1
        }, {
          "id": "DenominatorExclusion_1",
          "code": {
            "coding": [ {
              "system": "http://terminology.hl7.org/CodeSystem/measure-population",
              "code": "denominator-exclusion",
              "display": "Denominator Exclusion"
            } ]
          },
          "count": 1
        }, {
          "id": "Numerator_1",
          "code": {
            "coding": [ {
              "system": "http://terminology.hl7.org/CodeSystem/measure-population",
              "code": "numerator",
              "display": "Numerator"
            } ]
          },
          "count": 0
        } ],
        "measureScore": {
          "value": 1.0
        }
      } ],
      "evaluatedResource": [ {
        "reference": "Patient/29d930b1-1bb6-4089-9ed6-aa2b7b77d5a4"
      }, {
        "reference": "Encounter/e3bbdcc7-ae89-403b-a613-ce528c9112cd"
      }, {
        "reference": "Condition/098c1ebb-b92f-488c-abd2-dcefe9c507a0"
      }, {
        "reference": "Encounter/372fbdab-1a0a-47be-8ef9-1f53555d4070"
      } ]
    },
    "request": {
      "method": "PUT",
      "url": "MeasureReport/1590b87e-b65f-4331-8ffa-0d2952d2fba0"
    }
  } ]
}