{
  "resourceType": "Bundle",
  "id": "612e6b5702c62a011f2ed65b",
  "type": "transaction",
  "entry": [ {
    "fullUrl": "https://madie.cms.gov/Patient/33d162ce-3bc7-4b0a-8c04-fec0a42a6263",
    "resource": {
      "resourceType": "Patient",
      "id": "33d162ce-3bc7-4b0a-8c04-fec0a42a6263",
      "meta": {
        "profile": [ "http://hl7.org/fhir/us/qicore/StructureDefinition/qicore-patient" ]
      },
      "text": {
        "status": "generated",
        "div": "<div xmlns=\"http://www.w3.org/1999/xhtml\"><div class=\"hapiHeaderText\">DxVTEB4EncStartWMA_OralXa <b>NUMERPASS </b></div><table class=\"hapiPropertyTable\"><tbody><tr><td>Identifier</td><td>53ba7bfa81859444ffcb221a690f5daf</td></tr><tr><td>Date of birth</td><td><span>02 January 1974</span></td></tr></tbody></table></div>"
      },
      "extension": [ {
        "url": "http://hl7.org/fhir/us/core/StructureDefinition/us-core-race",
        "extension": [ {
          "url": "ombCategory",
          "valueCoding": {
            "system": "urn:oid:2.16.840.1.113883.6.238",
            "code": "1002-5",
            "display": "American Indian or Alaska Native",
            "userSelected": true
          }
        }, {
          "url": "text",
          "valueString": "American Indian or Alaska Native"
        } ]
      }, {
        "url": "http://hl7.org/fhir/us/core/StructureDefinition/us-core-ethnicity",
        "extension": [ {
          "url": "ombCategory",
          "valueCoding": {
            "system": "urn:oid:2.16.840.1.113883.6.238",
            "code": "2135-2",
            "display": "Hispanic or Latino",
            "userSelected": true
          }
        }, {
          "url": "text",
          "valueString": "Hispanic or Latino"
        } ]
      } ],
      "identifier": [ {
        "type": {
          "coding": [ {
            "system": "http://terminology.hl7.org/CodeSystem/v2-0203",
            "code": "MR"
          } ]
        },
        "system": "https://bonnie-fhir.healthit.gov/",
        "value": "612e6b5702c62a011f2ed65b"
      } ],
      "active": true,
      "name": [ {
        "use": "usual",
        "family": "NUMERPass",
        "given": [ "DxVTEB4EncStartWMAOralXa" ]
      } ],
      "gender": "male",
      "birthDate": "1975-01-02"
    },
    "request": {
      "method": "PUT",
      "url": "Patient/33d162ce-3bc7-4b0a-8c04-fec0a42a6263"
    }
  }, {
    "fullUrl": "https://madie.cms.gov/Encounter/62c79214-7847-4733-805b-14970487de15",
    "resource": {
      "resourceType": "Encounter",
      "id": "62c79214-7847-4733-805b-14970487de15",
      "meta": {
        "profile": [ "http://hl7.org/fhir/us/qicore/StructureDefinition/qicore-encounter" ]
      },
      "status": "finished",
      "class": {
        "system": "http://terminology.hl7.org/CodeSystem/v3-ActCode",
        "code": "IMP",
        "display": "inpatient encounter"
      },
      "type": [ {
        "coding": [ {
          "system": "http://snomed.info/sct",
          "code": "8715000"
        } ]
      } ],
      "subject": {
        "reference": "Patient/33d162ce-3bc7-4b0a-8c04-fec0a42a6263"
      },
      "period": {
        "start": "2026-11-01T08:00:00.000+00:00",
        "end": "2026-11-26T08:15:00.000+00:00"
      },
      "length": {
        "value": 25,
        "unit": "days"
      }
    },
    "request": {
      "method": "PUT",
      "url": "Encounter/62c79214-7847-4733-805b-14970487de15"
    }
  }, {
    "fullUrl": "https://madie.cms.gov/Coverage/9f6ef0ed-f714-4ad3-b144-bbb0f1e40b8a",
    "resource": {
      "resourceType": "Coverage",
      "id": "9f6ef0ed-f714-4ad3-b144-bbb0f1e40b8a",
      "status": "active",
      "beneficiary": {
        "reference": "Patient/33d162ce-3bc7-4b0a-8c04-fec0a42a6263"
      },
      "period": {
        "start": "1975-01-02T08:00:00.000+00:00"
      },
      "payor": [ {
        "reference": "Organization/f300c780-b01a-491d-b969-d14a156d8e79"
      } ]
    },
    "request": {
      "method": "PUT",
      "url": "Coverage/9f6ef0ed-f714-4ad3-b144-bbb0f1e40b8a"
    }
  }, {
    "fullUrl": "https://madie.cms.gov/Condition/ccc8444d-fef0-4001-854d-e00dfa3f73c4",
    "resource": {
      "resourceType": "Condition",
      "id": "ccc8444d-fef0-4001-854d-e00dfa3f73c4",
      "meta": {
        "profile": [ "http://hl7.org/fhir/us/qicore/StructureDefinition/qicore-condition-problems-health-concerns" ]
      },
      "clinicalStatus": {
        "coding": [ {
          "system": "http://terminology.hl7.org/CodeSystem/condition-clinical",
          "code": "inactive",
          "display": "inactive",
          "userSelected": true
        } ]
      },
      "verificationStatus": {
        "coding": [ {
          "system": "http://terminology.hl7.org/CodeSystem/condition-ver-status",
          "code": "confirmed",
          "display": "confirmed",
          "userSelected": true
        } ]
      },
      "category": [ {
        "coding": [ {
          "system": "http://terminology.hl7.org/CodeSystem/condition-category",
          "code": "problem-list-item",
          "display": "Problem List Item"
        } ]
      } ],
      "code": {
        "coding": [ {
          "system": "http://snomed.info/sct",
          "code": "1001000119102",
          "display": "Pulmonary embolism with pulmonary"
        } ]
      },
      "subject": {
        "reference": "Patient/33d162ce-3bc7-4b0a-8c04-fec0a42a6263"
      },
      "onsetPeriod": {
        "start": "2026-10-09T08:00:00.000+00:00",
        "end": "2026-10-09T08:15:00.000+00:00"
      }
    },
    "request": {
      "method": "PUT",
      "url": "Condition/ccc8444d-fef0-4001-854d-e00dfa3f73c4"
    }
  }, {
    "fullUrl": "https://madie.cms.gov/MedicationAdministration/dff146e5-9901-484a-90c5-43f6b12918a1",
    "resource": {
      "resourceType": "MedicationAdministration",
      "id": "dff146e5-9901-484a-90c5-43f6b12918a1",
      "meta": {
        "profile": [ "http://hl7.org/fhir/us/qicore/StructureDefinition/qicore-medicationadministration" ]
      },
      "status": "completed",
      "medicationCodeableConcept": {
        "coding": [ {
          "system": "http://www.nlm.nih.gov/research/umls/rxnorm",
          "code": "1599543",
          "display": "edoxaban 15 MG Oral Tablet"
        } ]
      },
      "subject": {
        "reference": "Patient/33d162ce-3bc7-4b0a-8c04-fec0a42a6263"
      },
      "effectivePeriod": {
        "start": "2026-11-01T11:00:00.000+00:00",
        "end": "2026-11-01T11:05:00.000+00:00"
      }
    },
    "request": {
      "method": "PUT",
      "url": "MedicationAdministration/dff146e5-9901-484a-90c5-43f6b12918a1"
    }
  }, {
    "fullUrl": "https://madie.cms.gov/Organization/f300c780-b01a-491d-b969-d14a156d8e79",
    "resource": {
      "resourceType": "Organization",
      "id": "f300c780-b01a-491d-b969-d14a156d8e79",
      "meta": {
        "profile": [ "http://hl7.org/fhir/us/qicore/StructureDefinition/qicore-organization" ]
      },
      "identifier": [ {
        "use": "temp",
        "system": "urn:oid:2.16.840.1.113883.4.4",
        "value": "21-3259825"
      } ],
      "active": true,
      "type": [ {
        "coding": [ {
          "system": "http://terminology.hl7.org/CodeSystem/organization-type",
          "code": "pay",
          "display": "Payer"
        } ]
      } ],
      "name": "Blue Cross Blue Shield of Texas",
      "telecom": [ {
        "system": "phone",
        "value": "(+1) 972-766-6900"
      } ],
      "address": [ {
        "use": "billing",
        "type": "postal",
        "line": [ "P.O. Box 660044" ],
        "city": "Dallas",
        "state": "TX",
        "postalCode": "75266-0044",
        "country": "USA"
      } ]
    },
    "request": {
      "method": "PUT",
      "url": "Organization/f300c780-b01a-491d-b969-d14a156d8e79"
    }
  }, {
    "fullUrl": "https://madie.cms.gov/MeasureReport/da823951-b92e-4ee9-904f-839f7e8db8df",
    "resource": {
      "resourceType": "MeasureReport",
      "id": "da823951-b92e-4ee9-904f-839f7e8db8df",
      "meta": {
        "profile": [ "http://hl7.org/fhir/us/cqfmeasures/StructureDefinition/test-case-cqfm" ]
      },
      "contained": [ {
        "resourceType": "Parameters",
        "id": "e5131aa6-c677-41cc-bb31-34da99a13531-parameters",
        "parameter": [ {
          "name": "subject",
          "valueString": "33d162ce-3bc7-4b0a-8c04-fec0a42a6263"
        } ]
      } ],
      "extension": [ {
        "url": "http://hl7.org/fhir/StructureDefinition/cqf-inputParameters",
        "valueReference": {
          "reference": "#e5131aa6-c677-41cc-bb31-34da99a13531-parameters"
        }
      }, {
        "url": "http://hl7.org/fhir/us/cqfmeasures/StructureDefinition/cqfm-testCaseDescription",
        "valueMarkdown": ">18, LOS<120 day. Medication, Administered: Oral Factor Xa Inhibitor for VTE Prophylaxis with diagnosis of  VTE starts before the encounter.\n"
      } ],
      "modifierExtension": [ {
        "url": "http://hl7.org/fhir/us/cqfmeasures/StructureDefinition/cqfm-isTestCase",
        "valueBoolean": true
      } ],
      "status": "complete",
      "type": "individual",
      "measure": "https://madie.cms.gov/Measure/CMS108FHIRVTEProphylaxis",
      "period": {
        "start": "2026-01-01",
        "end": "2026-12-31"
      },
      "group": [ {
        "id": "Group_1",
        "population": [ {
          "id": "InitialPopulation_1",
          "code": {
            "coding": [ {
              "system": "http://terminology.hl7.org/CodeSystem/measure-population",
              "code": "initial-population",
              "display": "Initial Population"
            } ]
          },
          "count": 1
        }, {
          "id": "Denominator_1",
          "code": {
            "coding": [ {
              "system": "http://terminology.hl7.org/CodeSystem/measure-population",
              "code": "denominator",
              "display": "Denominator"
            } ]
          },
          "count": 1
        }, {
          "id": "DenominatorExclusion_1",
          "code": {
            "coding": [ {
              "system": "http://terminology.hl7.org/CodeSystem/measure-population",
              "code": "denominator-exclusion",
              "display": "Denominator Exclusion"
            } ]
          },
          "count": 0
        }, {
          "id": "Numerator_1",
          "code": {
            "coding": [ {
              "system": "http://terminology.hl7.org/CodeSystem/measure-population",
              "code": "numerator",
              "display": "Numerator"
            } ]
          },
          "count": 1
        } ],
        "measureScore": {
          "value": 0.0
        }
      } ],
      "evaluatedResource": [ {
        "reference": "Patient/33d162ce-3bc7-4b0a-8c04-fec0a42a6263"
      }, {
        "reference": "Encounter/62c79214-7847-4733-805b-14970487de15"
      }, {
        "reference": "Coverage/9f6ef0ed-f714-4ad3-b144-bbb0f1e40b8a"
      }, {
        "reference": "Condition/ccc8444d-fef0-4001-854d-e00dfa3f73c4"
      }, {
        "reference": "MedicationAdministration/dff146e5-9901-484a-90c5-43f6b12918a1"
      }, {
        "reference": "Organization/f300c780-b01a-491d-b969-d14a156d8e79"
      } ]
    },
    "request": {
      "method": "PUT",
      "url": "MeasureReport/da823951-b92e-4ee9-904f-839f7e8db8df"
    }
  } ]
}