{
  "resourceType": "Bundle",
  "id": "641368304b11b147841ab8a5",
  "type": "transaction",
  "entry": [ {
    "fullUrl": "https://madie.cms.gov/Patient/55c5c208-190b-4f90-bdbb-0c02332df772",
    "resource": {
      "resourceType": "Patient",
      "id": "55c5c208-190b-4f90-bdbb-0c02332df772",
      "meta": {
        "profile": [ "http://hl7.org/fhir/us/qicore/StructureDefinition/qicore-patient" ]
      },
      "extension": [ {
        "url": "http://hl7.org/fhir/us/core/StructureDefinition/us-core-race",
        "extension": [ {
          "url": "ombCategory",
          "valueCoding": {
            "system": "urn:oid:2.16.840.1.113883.6.238",
            "code": "2106-3",
            "display": "White",
            "userSelected": true
          }
        }, {
          "url": "text",
          "valueString": "White"
        } ]
      }, {
        "url": "http://hl7.org/fhir/us/core/StructureDefinition/us-core-ethnicity",
        "extension": [ {
          "url": "ombCategory",
          "valueCoding": {
            "system": "urn:oid:2.16.840.1.113883.6.238",
            "code": "2135-2",
            "display": "Hispanic or Latino",
            "userSelected": true
          }
        }, {
          "url": "text",
          "valueString": "Hispanic or Latino"
        } ]
      } ],
      "identifier": [ {
        "type": {
          "coding": [ {
            "system": "http://terminology.hl7.org/CodeSystem/v2-0203",
            "code": "MR"
          } ]
        },
        "system": "https://bonnie-fhir.healthit.gov/",
        "value": "641368304b11b147841ab8a5"
      } ],
      "name": [ {
        "family": "DENEXPass",
        "given": [ "EncounterPerfHospCare" ]
      } ],
      "gender": "male",
      "birthDate": "1966-10-21"
    },
    "request": {
      "method": "PUT",
      "url": "Patient/55c5c208-190b-4f90-bdbb-0c02332df772"
    }
  }, {
    "fullUrl": "https://madie.cms.gov/Condition/9a9a8772-ee2f-4911-a643-79f01fd9b45a",
    "resource": {
      "resourceType": "Condition",
      "id": "9a9a8772-ee2f-4911-a643-79f01fd9b45a",
      "meta": {
        "profile": [ "http://hl7.org/fhir/us/qicore/StructureDefinition/qicore-condition-encounter-diagnosis" ]
      },
      "clinicalStatus": {
        "coding": [ {
          "system": "http://terminology.hl7.org/CodeSystem/condition-clinical",
          "code": "active",
          "display": "active",
          "userSelected": true
        } ]
      },
      "category": [ {
        "coding": [ {
          "system": "http://terminology.hl7.org/CodeSystem/condition-category",
          "code": "encounter-diagnosis",
          "display": "Encounter Diagnosis",
          "userSelected": true
        } ]
      } ],
      "code": {
        "coding": [ {
          "system": "http://snomed.info/sct",
          "version": "2021-09",
          "code": "102781000119107",
          "display": "Sensory neuropathy due to type 1 diabetes mellitus (disorder)",
          "userSelected": true
        } ]
      },
      "subject": {
        "reference": "Patient/55c5c208-190b-4f90-bdbb-0c02332df772"
      },
      "onsetDateTime": "2025-11-08T08:00:00.000+00:00"
    },
    "request": {
      "method": "PUT",
      "url": "Condition/9a9a8772-ee2f-4911-a643-79f01fd9b45a"
    }
  }, {
    "fullUrl": "https://madie.cms.gov/Encounter/3623779a-4417-40e9-8ad3-c81112d45995",
    "resource": {
      "resourceType": "Encounter",
      "id": "3623779a-4417-40e9-8ad3-c81112d45995",
      "meta": {
        "profile": [ "http://hl7.org/fhir/us/qicore/StructureDefinition/qicore-encounter" ]
      },
      "status": "finished",
      "class": {
        "system": "http://terminology.hl7.org/CodeSystem/v3-ActCode",
        "code": "AMB",
        "display": "ambulatory",
        "userSelected": true
      },
      "type": [ {
        "coding": [ {
          "system": "http://snomed.info/sct",
          "version": "2021-09",
          "code": "185463005",
          "display": "Visit out of hours (procedure)",
          "userSelected": true
        } ]
      } ],
      "subject": {
        "reference": "Patient/55c5c208-190b-4f90-bdbb-0c02332df772"
      },
      "period": {
        "start": "2026-03-06T08:00:00.000+00:00",
        "end": "2026-03-06T08:15:00.000+00:00"
      }
    },
    "request": {
      "method": "PUT",
      "url": "Encounter/3623779a-4417-40e9-8ad3-c81112d45995"
    }
  }, {
    "fullUrl": "https://madie.cms.gov/Encounter/7a41b21b-1d37-4abf-9821-4184aa1564da",
    "resource": {
      "resourceType": "Encounter",
      "id": "7a41b21b-1d37-4abf-9821-4184aa1564da",
      "meta": {
        "profile": [ "http://hl7.org/fhir/us/qicore/StructureDefinition/qicore-encounter" ]
      },
      "status": "finished",
      "class": {
        "system": "http://www.nlm.nih.gov/research/umls/hcpcs",
        "code": "G9473",
        "display": "Services performed by chaplain in the hospice setting, each 15 minutes",
        "userSelected": true
      },
      "type": [ {
        "coding": [ {
          "system": "http://snomed.info/sct",
          "version": "2021-09",
          "code": "183919006",
          "display": "Urgent admission to hospice (procedure)",
          "userSelected": true
        } ]
      } ],
      "subject": {
        "reference": "Patient/55c5c208-190b-4f90-bdbb-0c02332df772"
      },
      "period": {
        "start": "2026-03-07T08:00:00.000+00:00",
        "end": "2026-03-07T08:15:00.000+00:00"
      }
    },
    "request": {
      "method": "PUT",
      "url": "Encounter/7a41b21b-1d37-4abf-9821-4184aa1564da"
    }
  }, {
    "fullUrl": "https://madie.cms.gov/Observation/93bab3d4-c003-472c-bd88-0c92b4b29d6e",
    "resource": {
      "resourceType": "Observation",
      "id": "93bab3d4-c003-472c-bd88-0c92b4b29d6e",
      "meta": {
        "profile": [ "http://hl7.org/fhir/us/qicore/StructureDefinition/qicore-observation-lab" ]
      },
      "status": "final",
      "category": [ {
        "coding": [ {
          "system": "http://terminology.hl7.org/CodeSystem/observation-category",
          "code": "laboratory",
          "display": "Laboratory",
          "userSelected": true
        } ]
      } ],
      "code": {
        "coding": [ {
          "system": "http://loinc.org",
          "version": "2.71",
          "code": "48642-3",
          "display": "Glomerular filtration rate [Volume Rate/Area] in Serum, Plasma or Blood by Creatinine-based formula (MDRD)/1.73 sq M among non black population",
          "userSelected": true
        } ]
      },
      "subject": {
        "reference": "Patient/55c5c208-190b-4f90-bdbb-0c02332df772"
      },
      "effectiveDateTime": "2026-03-06T08:00:00.000+00:00",
      "issued": "2026-03-06T08:00:00.000+00:00",
      "valueBoolean": true
    },
    "request": {
      "method": "PUT",
      "url": "Observation/93bab3d4-c003-472c-bd88-0c92b4b29d6e"
    }
  }, {
    "fullUrl": "https://madie.cms.gov/Observation/f8a8d4ce-2143-48bd-b2e6-e9cb154705f9",
    "resource": {
      "resourceType": "Observation",
      "id": "f8a8d4ce-2143-48bd-b2e6-e9cb154705f9",
      "meta": {
        "profile": [ "http://hl7.org/fhir/us/qicore/StructureDefinition/qicore-observation-lab" ]
      },
      "status": "final",
      "category": [ {
        "coding": [ {
          "system": "http://terminology.hl7.org/CodeSystem/observation-category",
          "code": "laboratory",
          "display": "Laboratory",
          "userSelected": true
        } ]
      } ],
      "code": {
        "coding": [ {
          "system": "http://loinc.org",
          "version": "2.71",
          "code": "13705-9",
          "display": "Albumin/Creatinine [Mass Ratio] in 24 hour Urine",
          "userSelected": true
        } ]
      },
      "subject": {
        "reference": "Patient/55c5c208-190b-4f90-bdbb-0c02332df772"
      },
      "effectiveDateTime": "2026-03-06T08:00:00.000+00:00",
      "issued": "2026-03-06T08:00:00.000+00:00",
      "valueBoolean": true
    },
    "request": {
      "method": "PUT",
      "url": "Observation/f8a8d4ce-2143-48bd-b2e6-e9cb154705f9"
    }
  }, {
    "fullUrl": "https://madie.cms.gov/MeasureReport/f19c1357-6d1a-4f3a-95dc-3cf4355336aa",
    "resource": {
      "resourceType": "MeasureReport",
      "id": "f19c1357-6d1a-4f3a-95dc-3cf4355336aa",
      "meta": {
        "profile": [ "http://hl7.org/fhir/us/cqfmeasures/StructureDefinition/test-case-cqfm" ]
      },
      "contained": [ {
        "resourceType": "Parameters",
        "id": "ba1d4221-be01-4b0f-9f27-a2f845675691-parameters",
        "parameter": [ {
          "name": "subject",
          "valueString": "55c5c208-190b-4f90-bdbb-0c02332df772"
        } ]
      } ],
      "extension": [ {
        "url": "http://hl7.org/fhir/StructureDefinition/cqf-inputParameters",
        "valueReference": {
          "reference": "#ba1d4221-be01-4b0f-9f27-a2f845675691-parameters"
        }
      }, {
        "url": "http://hl7.org/fhir/us/cqfmeasures/StructureDefinition/cqfm-testCaseDescription",
        "valueMarkdown": "This patient is 70 years old with a qualifying encounter and active diabetes diagnosis, two qualifying lab tests, with Hospice Encounter in the measurement period. This case tests the denominator exclusion criteria."
      } ],
      "modifierExtension": [ {
        "url": "http://hl7.org/fhir/us/cqfmeasures/StructureDefinition/cqfm-isTestCase",
        "valueBoolean": true
      } ],
      "status": "complete",
      "type": "individual",
      "measure": "https://madie.cms.gov/Measure/CMS951FHIRKidneyHealthEval",
      "period": {
        "start": "2026-01-01",
        "end": "2026-12-31"
      },
      "group": [ {
        "id": "Group_1",
        "population": [ {
          "id": "InitialPopulation_1",
          "code": {
            "coding": [ {
              "system": "http://terminology.hl7.org/CodeSystem/measure-population",
              "code": "initial-population",
              "display": "Initial Population"
            } ]
          },
          "count": 1
        }, {
          "id": "Denominator_1",
          "code": {
            "coding": [ {
              "system": "http://terminology.hl7.org/CodeSystem/measure-population",
              "code": "denominator",
              "display": "Denominator"
            } ]
          },
          "count": 1
        }, {
          "id": "DenominatorExclusion_1",
          "code": {
            "coding": [ {
              "system": "http://terminology.hl7.org/CodeSystem/measure-population",
              "code": "denominator-exclusion",
              "display": "Denominator Exclusion"
            } ]
          },
          "count": 1
        }, {
          "id": "Numerator_1",
          "code": {
            "coding": [ {
              "system": "http://terminology.hl7.org/CodeSystem/measure-population",
              "code": "numerator",
              "display": "Numerator"
            } ]
          },
          "count": 0
        } ],
        "measureScore": {
          "value": 1.0
        }
      } ],
      "evaluatedResource": [ {
        "reference": "Patient/55c5c208-190b-4f90-bdbb-0c02332df772"
      }, {
        "reference": "Condition/9a9a8772-ee2f-4911-a643-79f01fd9b45a"
      }, {
        "reference": "Encounter/3623779a-4417-40e9-8ad3-c81112d45995"
      }, {
        "reference": "Encounter/7a41b21b-1d37-4abf-9821-4184aa1564da"
      }, {
        "reference": "Observation/93bab3d4-c003-472c-bd88-0c92b4b29d6e"
      }, {
        "reference": "Observation/f8a8d4ce-2143-48bd-b2e6-e9cb154705f9"
      } ]
    },
    "request": {
      "method": "PUT",
      "url": "MeasureReport/f19c1357-6d1a-4f3a-95dc-3cf4355336aa"
    }
  } ]
}