{
  "resourceType": "Bundle",
  "id": "2Encounters1FallWithInjury",
  "type": "transaction",
  "entry": [ {
    "fullUrl": "https://madie.cms.gov/Claim/e6ea819f-aa61-4fb8-9431-00bb9c242019",
    "resource": {
      "resourceType": "Claim",
      "id": "e6ea819f-aa61-4fb8-9431-00bb9c242019",
      "meta": {
        "profile": [ "http://hl7.org/fhir/us/qicore/StructureDefinition/qicore-claim" ]
      },
      "status": "active",
      "type": {
        "coding": [ {
          "system": "http://terminology.hl7.org/CodeSystem/claim-type",
          "code": "professional",
          "display": "Professional"
        } ]
      },
      "use": "claim",
      "patient": {
        "reference": "Patient/7c4f1e55-2462-45e5-9062-5cf8d04b40e2"
      },
      "created": "2026-12-12",
      "provider": {
        "reference": "Practitioner/adea6ffb-98b8-4162-a091-78b0f11bfc44"
      },
      "priority": {
        "coding": [ {
          "system": "http://terminology.hl7.org/CodeSystem/processpriority",
          "code": "normal"
        } ]
      },
      "diagnosis": [ {
        "sequence": 1,
        "diagnosisCodeableConcept": {
          "coding": [ {
            "system": "http://hl7.org/fhir/sid/icd-10-cm",
            "code": "W01.0XXA"
          } ]
        },
        "onAdmission": {
          "coding": [ {
            "system": "https://www.cms.gov/Medicare/Medicare-Fee-for-Service-Payment/HospitalAcqCond/Coding",
            "code": "N"
          } ]
        }
      } ],
      "insurance": [ {
        "sequence": 1,
        "focal": true,
        "coverage": {
          "reference": "Coverage/89cd7bb4-9667-4b17-a80d-fc85ddde0140"
        }
      } ],
      "item": [ {
        "sequence": 1,
        "diagnosisSequence": [ 1, 2 ],
        "productOrService": {
          "coding": [ {
            "system": "http://terminology.hl7.org/CodeSystem/ex-USCLS",
            "code": "1101"
          } ]
        },
        "encounter": [ {
          "reference": "Encounter/ca3d1b44-3e47-4d2f-abcf-fb177f0b5c32"
        } ]
      } ]
    },
    "request": {
      "method": "PUT",
      "url": "Claim/e6ea819f-aa61-4fb8-9431-00bb9c242019"
    }
  }, {
    "fullUrl": "https://madie.cms.gov/Claim/a5f8ff93-6f65-4f60-8497-0c12c1b0ad56",
    "resource": {
      "resourceType": "Claim",
      "id": "a5f8ff93-6f65-4f60-8497-0c12c1b0ad56",
      "meta": {
        "profile": [ "http://hl7.org/fhir/us/qicore/StructureDefinition/qicore-claim" ]
      },
      "status": "active",
      "type": {
        "coding": [ {
          "system": "http://terminology.hl7.org/CodeSystem/claim-type",
          "code": "professional",
          "display": "Professional"
        } ]
      },
      "use": "claim",
      "patient": {
        "reference": "Patient/7c4f1e55-2462-45e5-9062-5cf8d04b40e2"
      },
      "created": "2026-12-12",
      "provider": {
        "reference": "Practitioner/adea6ffb-98b8-4162-a091-78b0f11bfc44"
      },
      "priority": {
        "coding": [ {
          "system": "http://terminology.hl7.org/CodeSystem/processpriority",
          "code": "normal"
        } ]
      },
      "diagnosis": [ {
        "sequence": 2,
        "diagnosisCodeableConcept": {
          "coding": [ {
            "system": "http://hl7.org/fhir/sid/icd-10-cm",
            "code": "S01.309A"
          } ]
        },
        "onAdmission": {
          "coding": [ {
            "system": "https://www.cms.gov/Medicare/Medicare-Fee-for-Service-Payment/HospitalAcqCond/Coding",
            "code": "N"
          } ]
        }
      } ],
      "insurance": [ {
        "sequence": 1,
        "focal": true,
        "coverage": {
          "reference": "Coverage/89cd7bb4-9667-4b17-a80d-fc85ddde0140"
        }
      } ],
      "item": [ {
        "sequence": 1,
        "diagnosisSequence": [ 1, 2 ],
        "productOrService": {
          "coding": [ {
            "system": "http://terminology.hl7.org/CodeSystem/ex-USCLS",
            "code": "1101"
          } ]
        },
        "encounter": [ {
          "reference": "Encounter/ca3d1b44-3e47-4d2f-abcf-fb177f0b5c32"
        } ]
      } ]
    },
    "request": {
      "method": "PUT",
      "url": "Claim/a5f8ff93-6f65-4f60-8497-0c12c1b0ad56"
    }
  }, {
    "fullUrl": "https://madie.cms.gov/Claim/e596d4de-87d5-4d33-abf0-fa3c5211b17e",
    "resource": {
      "resourceType": "Claim",
      "id": "e596d4de-87d5-4d33-abf0-fa3c5211b17e",
      "meta": {
        "profile": [ "http://hl7.org/fhir/us/qicore/StructureDefinition/qicore-claim" ]
      },
      "status": "active",
      "type": {
        "coding": [ {
          "system": "http://terminology.hl7.org/CodeSystem/claim-type",
          "code": "professional",
          "display": "Professional"
        } ]
      },
      "use": "claim",
      "patient": {
        "reference": "Patient/7c4f1e55-2462-45e5-9062-5cf8d04b40e2"
      },
      "created": "2026-12-12",
      "provider": {
        "reference": "Practitioner/adea6ffb-98b8-4162-a091-78b0f11bfc44"
      },
      "priority": {
        "coding": [ {
          "system": "http://terminology.hl7.org/CodeSystem/processpriority",
          "code": "normal"
        } ]
      },
      "diagnosis": [ {
        "sequence": 1,
        "diagnosisCodeableConcept": {
          "coding": [ {
            "system": "http://snomed.info/sct",
            "code": "14047009"
          } ]
        },
        "onAdmission": {
          "coding": [ {
            "system": "https://www.cms.gov/Medicare/Medicare-Fee-for-Service-Payment/HospitalAcqCond/Coding",
            "code": "N"
          } ]
        }
      } ],
      "insurance": [ {
        "sequence": 1,
        "focal": true,
        "coverage": {
          "reference": "Coverage/89cd7bb4-9667-4b17-a80d-fc85ddde0140"
        }
      } ],
      "item": [ {
        "sequence": 1,
        "diagnosisSequence": [ 1, 2 ],
        "productOrService": {
          "coding": [ {
            "system": "http://terminology.hl7.org/CodeSystem/ex-USCLS",
            "code": "1101"
          } ]
        },
        "encounter": [ {
          "reference": "Encounter/c3b58cc4-0b60-4371-83b7-cac6d4702b5b"
        } ]
      } ]
    },
    "request": {
      "method": "PUT",
      "url": "Claim/e596d4de-87d5-4d33-abf0-fa3c5211b17e"
    }
  }, {
    "fullUrl": "https://madie.cms.gov/Claim/00c67d10-3802-4c36-af3d-26d95f4e6c4f",
    "resource": {
      "resourceType": "Claim",
      "id": "00c67d10-3802-4c36-af3d-26d95f4e6c4f",
      "meta": {
        "profile": [ "http://hl7.org/fhir/us/qicore/StructureDefinition/qicore-claim" ]
      },
      "status": "active",
      "type": {
        "coding": [ {
          "system": "http://terminology.hl7.org/CodeSystem/claim-type",
          "code": "professional",
          "display": "Professional"
        } ]
      },
      "use": "claim",
      "patient": {
        "reference": "Patient/7c4f1e55-2462-45e5-9062-5cf8d04b40e2"
      },
      "created": "2026-12-12",
      "provider": {
        "reference": "Practitioner/adea6ffb-98b8-4162-a091-78b0f11bfc44"
      },
      "priority": {
        "coding": [ {
          "system": "http://terminology.hl7.org/CodeSystem/processpriority",
          "code": "normal"
        } ]
      },
      "diagnosis": [ {
        "sequence": 2,
        "diagnosisCodeableConcept": {
          "coding": [ {
            "system": "http://hl7.org/fhir/sid/icd-10-cm",
            "code": "S13.29XA"
          } ]
        },
        "onAdmission": {
          "coding": [ {
            "system": "https://www.cms.gov/Medicare/Medicare-Fee-for-Service-Payment/HospitalAcqCond/Coding",
            "code": "Y"
          } ]
        }
      } ],
      "insurance": [ {
        "sequence": 1,
        "focal": true,
        "coverage": {
          "reference": "Coverage/89cd7bb4-9667-4b17-a80d-fc85ddde0140"
        }
      } ],
      "item": [ {
        "sequence": 1,
        "diagnosisSequence": [ 1, 2 ],
        "productOrService": {
          "coding": [ {
            "system": "http://terminology.hl7.org/CodeSystem/ex-USCLS",
            "code": "1101"
          } ]
        },
        "encounter": [ {
          "reference": "Encounter/c3b58cc4-0b60-4371-83b7-cac6d4702b5b"
        } ]
      } ]
    },
    "request": {
      "method": "PUT",
      "url": "Claim/00c67d10-3802-4c36-af3d-26d95f4e6c4f"
    }
  }, {
    "fullUrl": "https://madie.cms.gov/Encounter/c3b58cc4-0b60-4371-83b7-cac6d4702b5b",
    "resource": {
      "resourceType": "Encounter",
      "id": "c3b58cc4-0b60-4371-83b7-cac6d4702b5b",
      "meta": {
        "profile": [ "http://hl7.org/fhir/us/qicore/StructureDefinition/qicore-encounter" ]
      },
      "status": "finished",
      "class": {
        "system": "http://terminology.hl7.org/CodeSystem/v3-ActCode",
        "code": "IMP",
        "display": "inpatient encounter"
      },
      "type": [ {
        "coding": [ {
          "system": "http://snomed.info/sct",
          "code": "183452005"
        } ]
      } ],
      "subject": {
        "reference": "Patient/7c4f1e55-2462-45e5-9062-5cf8d04b40e2"
      },
      "period": {
        "start": "2026-12-08T08:00:00.000+00:00",
        "end": "2026-12-12T08:15:00.000+00:00"
      },
      "reasonCode": [ {
        "coding": [ {
          "system": "http://snomed.info/sct",
          "code": "14047009"
        } ]
      }, {
        "coding": [ {
          "system": "http://hl7.org/fhir/sid/icd-10-cm",
          "code": "S13.29XA"
        } ]
      } ]
    },
    "request": {
      "method": "PUT",
      "url": "Encounter/c3b58cc4-0b60-4371-83b7-cac6d4702b5b"
    }
  }, {
    "fullUrl": "https://madie.cms.gov/Encounter/ca3d1b44-3e47-4d2f-abcf-fb177f0b5c32",
    "resource": {
      "resourceType": "Encounter",
      "id": "ca3d1b44-3e47-4d2f-abcf-fb177f0b5c32",
      "meta": {
        "profile": [ "http://hl7.org/fhir/us/qicore/StructureDefinition/qicore-encounter" ]
      },
      "status": "finished",
      "class": {
        "system": "http://terminology.hl7.org/CodeSystem/v3-ActCode",
        "code": "IMP",
        "display": "inpatient encounter"
      },
      "type": [ {
        "coding": [ {
          "system": "http://snomed.info/sct",
          "code": "183452005"
        } ]
      } ],
      "subject": {
        "reference": "Patient/7c4f1e55-2462-45e5-9062-5cf8d04b40e2"
      },
      "period": {
        "start": "2026-11-09T11:00:00.000+00:00",
        "end": "2026-11-12T08:15:00.000+00:00"
      }
    },
    "request": {
      "method": "PUT",
      "url": "Encounter/ca3d1b44-3e47-4d2f-abcf-fb177f0b5c32"
    }
  }, {
    "fullUrl": "https://madie.cms.gov/Encounter/f055f7f5-bd8b-478b-9d44-d50b60ef52f3",
    "resource": {
      "resourceType": "Encounter",
      "id": "f055f7f5-bd8b-478b-9d44-d50b60ef52f3",
      "meta": {
        "profile": [ "http://hl7.org/fhir/us/qicore/StructureDefinition/qicore-encounter" ]
      },
      "status": "finished",
      "class": {
        "system": "http://terminology.hl7.org/CodeSystem/v3-ActCode",
        "code": "IMP",
        "display": "inpatient encounter"
      },
      "type": [ {
        "coding": [ {
          "system": "http://snomed.info/sct",
          "code": "4525004"
        } ]
      } ],
      "subject": {
        "reference": "Patient/7c4f1e55-2462-45e5-9062-5cf8d04b40e2"
      },
      "period": {
        "start": "2026-11-09T08:00:00.000+00:00",
        "end": "2026-11-09T10:15:00.000+00:00"
      },
      "reasonCode": [ {
        "coding": [ {
          "system": "http://hl7.org/fhir/sid/icd-10-cm",
          "code": "W01.0XXA"
        } ]
      }, {
        "coding": [ {
          "system": "http://hl7.org/fhir/sid/icd-10-cm",
          "code": "S01.309A"
        } ]
      } ]
    },
    "request": {
      "method": "PUT",
      "url": "Encounter/f055f7f5-bd8b-478b-9d44-d50b60ef52f3"
    }
  }, {
    "fullUrl": "https://madie.cms.gov/Patient/7c4f1e55-2462-45e5-9062-5cf8d04b40e2",
    "resource": {
      "resourceType": "Patient",
      "id": "7c4f1e55-2462-45e5-9062-5cf8d04b40e2",
      "meta": {
        "profile": [ "http://hl7.org/fhir/us/qicore/StructureDefinition/qicore-patient" ]
      },
      "extension": [ {
        "url": "http://hl7.org/fhir/us/core/StructureDefinition/us-core-race",
        "extension": [ {
          "url": "ombCategory",
          "valueCoding": {
            "system": "urn:oid:2.16.840.1.113883.6.238",
            "code": "2054-5",
            "display": "Black or African American",
            "userSelected": true
          }
        }, {
          "url": "text",
          "valueString": "Black or African American"
        } ]
      }, {
        "url": "http://hl7.org/fhir/us/core/StructureDefinition/us-core-ethnicity",
        "extension": [ {
          "url": "ombCategory",
          "valueCoding": {
            "system": "urn:oid:2.16.840.1.113883.6.238",
            "code": "2186-5",
            "display": "Not Hispanic or Latino",
            "userSelected": true
          }
        }, {
          "url": "text",
          "valueString": "Not Hispanic or Latino"
        } ]
      } ],
      "identifier": [ {
        "type": {
          "coding": [ {
            "system": "http://terminology.hl7.org/CodeSystem/v2-0203",
            "code": "MR"
          } ]
        },
        "system": "https://bonnie-fhir.healthit.gov/",
        "value": "61152a3b98086b7a79cbd7c1"
      } ],
      "active": true,
      "name": [ {
        "use": "usual",
        "family": "NUMERPass",
        "given": [ "2Encounters1FallWithInjury" ]
      } ],
      "gender": "male",
      "birthDate": "1964-12-11"
    },
    "request": {
      "method": "PUT",
      "url": "Patient/7c4f1e55-2462-45e5-9062-5cf8d04b40e2"
    }
  }, {
    "fullUrl": "https://madie.cms.gov/AdverseEvent/3cab13bc-ebc5-4c54-ba7a-db8e644caffc",
    "resource": {
      "resourceType": "AdverseEvent",
      "id": "3cab13bc-ebc5-4c54-ba7a-db8e644caffc",
      "meta": {
        "profile": [ "http://hl7.org/fhir/us/qicore/StructureDefinition/qicore-adverseevent" ]
      },
      "actuality": "actual",
      "event": {
        "coding": [ {
          "system": "http://hl7.org/fhir/sid/icd-10-cm",
          "code": "W01.0XXA"
        } ]
      },
      "subject": {
        "reference": "Patient/7c4f1e55-2462-45e5-9062-5cf8d04b40e2"
      },
      "date": "2026-12-09T08:00:00.000+00:00"
    },
    "request": {
      "method": "PUT",
      "url": "AdverseEvent/3cab13bc-ebc5-4c54-ba7a-db8e644caffc"
    }
  }, {
    "fullUrl": "https://madie.cms.gov/AdverseEvent/4105a615-d162-42b7-b827-3a345cd8b8b9",
    "resource": {
      "resourceType": "AdverseEvent",
      "id": "4105a615-d162-42b7-b827-3a345cd8b8b9",
      "meta": {
        "profile": [ "http://hl7.org/fhir/us/qicore/StructureDefinition/qicore-adverseevent" ]
      },
      "actuality": "actual",
      "event": {
        "coding": [ {
          "system": "http://snomed.info/sct",
          "code": "14047009"
        } ]
      },
      "subject": {
        "reference": "Patient/7c4f1e55-2462-45e5-9062-5cf8d04b40e2"
      },
      "date": "2026-11-10T08:00:00.000+00:00"
    },
    "request": {
      "method": "PUT",
      "url": "AdverseEvent/4105a615-d162-42b7-b827-3a345cd8b8b9"
    }
  }, {
    "fullUrl": "https://madie.cms.gov/Practitioner/adea6ffb-98b8-4162-a091-78b0f11bfc44",
    "resource": {
      "resourceType": "Practitioner",
      "id": "adea6ffb-98b8-4162-a091-78b0f11bfc44",
      "identifier": [ {
        "system": "http://www.cms.gov/identifiers/pracitioners",
        "value": "P12345"
      } ],
      "name": [ {
        "use": "official",
        "family": "Smith",
        "given": [ "John" ]
      } ],
      "qualification": [ {
        "identifier": [ {
          "system": "http://hl7.org/fhir/sid/us-npi",
          "value": "1234567890"
        } ],
        "code": {
          "coding": [ {
            "system": "http://terminology.hl7.org/CodeSystem/v2-0203",
            "code": "MD",
            "display": "Medical License number"
          } ]
        }
      } ]
    },
    "request": {
      "method": "PUT",
      "url": "Practitioner/adea6ffb-98b8-4162-a091-78b0f11bfc44"
    }
  }, {
    "fullUrl": "https://madie.cms.gov/Coverage/89cd7bb4-9667-4b17-a80d-fc85ddde0140",
    "resource": {
      "resourceType": "Coverage",
      "id": "89cd7bb4-9667-4b17-a80d-fc85ddde0140",
      "status": "active",
      "beneficiary": {
        "reference": "Patient/7c4f1e55-2462-45e5-9062-5cf8d04b40e2"
      },
      "payor": [ {
        "reference": "Organization/5b8cb0fa-18fa-481a-b392-6d9849161a6d"
      } ]
    },
    "request": {
      "method": "PUT",
      "url": "Coverage/89cd7bb4-9667-4b17-a80d-fc85ddde0140"
    }
  }, {
    "fullUrl": "https://madie.cms.gov/Organization/5b8cb0fa-18fa-481a-b392-6d9849161a6d",
    "resource": {
      "resourceType": "Organization",
      "id": "5b8cb0fa-18fa-481a-b392-6d9849161a6d",
      "identifier": [ {
        "system": "http://cms.gov/insurance-ids",
        "value": "AET12345"
      } ],
      "type": [ {
        "coding": [ {
          "system": "http://terminology.hl7.org/CodeSystem/organization-type",
          "code": "prov",
          "display": "Healthcare Provider"
        } ]
      } ],
      "name": "Aetna Insurance",
      "telecom": [ {
        "system": "phone",
        "value": "+1-800-123-4567"
      } ],
      "address": [ {
        "line": [ "123 Main Street" ],
        "city": "Cityville",
        "state": "CA",
        "postalCode": "12345",
        "country": "USA"
      } ]
    },
    "request": {
      "method": "PUT",
      "url": "Organization/5b8cb0fa-18fa-481a-b392-6d9849161a6d"
    }
  }, {
    "fullUrl": "https://madie.cms.gov/MeasureReport/417ae819-fffd-441f-b1a2-ab427e0d51af",
    "resource": {
      "resourceType": "MeasureReport",
      "id": "417ae819-fffd-441f-b1a2-ab427e0d51af",
      "meta": {
        "profile": [ "http://hl7.org/fhir/us/cqfmeasures/StructureDefinition/test-case-cqfm" ]
      },
      "contained": [ {
        "resourceType": "Parameters",
        "id": "948e409d-296f-4b70-9470-74928839e4ca-parameters",
        "parameter": [ {
          "name": "subject",
          "valueString": "7c4f1e55-2462-45e5-9062-5cf8d04b40e2"
        } ]
      } ],
      "extension": [ {
        "url": "http://hl7.org/fhir/StructureDefinition/cqf-inputParameters",
        "valueReference": {
          "reference": "#948e409d-296f-4b70-9470-74928839e4ca-parameters"
        }
      }, {
        "url": "http://hl7.org/fhir/us/cqfmeasures/StructureDefinition/cqfm-testCaseDescription",
        "valueMarkdown": "First Encounter has Adverse Event Fall + Mod injury diag NPOA. \nSecond encounter has Adverse Event Fall + Mod injury diag POA so does not meet num. Injury diag must be NPOA."
      } ],
      "modifierExtension": [ {
        "url": "http://hl7.org/fhir/us/cqfmeasures/StructureDefinition/cqfm-isTestCase",
        "valueBoolean": true
      } ],
      "status": "complete",
      "type": "individual",
      "measure": "https://madie.cms.gov/Measure/CMS1017FHIRHHFI",
      "period": {
        "start": "2026-01-01",
        "end": "2026-12-31"
      },
      "group": [ {
        "id": "Group_1",
        "population": [ {
          "id": "InitialPopulation_1",
          "code": {
            "coding": [ {
              "system": "http://terminology.hl7.org/CodeSystem/measure-population",
              "code": "initial-population",
              "display": "Initial Population"
            } ]
          },
          "count": 2
        }, {
          "id": "Denominator_1",
          "code": {
            "coding": [ {
              "system": "http://terminology.hl7.org/CodeSystem/measure-population",
              "code": "denominator",
              "display": "Denominator"
            } ]
          },
          "count": 2
        }, {
          "id": "DenominatorExclusion_1",
          "code": {
            "coding": [ {
              "system": "http://terminology.hl7.org/CodeSystem/measure-population",
              "code": "denominator-exclusion",
              "display": "Denominator Exclusion"
            } ]
          },
          "count": 0
        }, {
          "id": "Numerator_1",
          "code": {
            "coding": [ {
              "system": "http://terminology.hl7.org/CodeSystem/measure-population",
              "code": "numerator",
              "display": "Numerator"
            } ]
          },
          "count": 1
        }, {
          "id": "NumeratorExclusion_1",
          "code": {
            "coding": [ {
              "system": "http://terminology.hl7.org/CodeSystem/measure-population",
              "code": "numerator-exclusion",
              "display": "Numerator Exclusion"
            } ]
          },
          "count": 0
        }, {
          "id": "MeasureObservation_1_1_1",
          "code": {
            "coding": [ {
              "system": "http://terminology.hl7.org/CodeSystem/measure-population",
              "code": "measure-observation",
              "display": "Measure Observation"
            } ]
          },
          "count": 4
        }, {
          "id": "MeasureObservation_1_1_2",
          "code": {
            "coding": [ {
              "system": "http://terminology.hl7.org/CodeSystem/measure-population",
              "code": "measure-observation",
              "display": "Measure Observation"
            } ]
          },
          "count": 3
        }, {
          "id": "MeasureObservation_1_2_1",
          "code": {
            "coding": [ {
              "system": "http://terminology.hl7.org/CodeSystem/measure-population",
              "code": "measure-observation",
              "display": "Measure Observation"
            } ]
          },
          "count": 1
        } ],
        "measureScore": {
          "value": 0.0
        }
      } ],
      "evaluatedResource": [ {
        "reference": "Claim/e6ea819f-aa61-4fb8-9431-00bb9c242019"
      }, {
        "reference": "Claim/a5f8ff93-6f65-4f60-8497-0c12c1b0ad56"
      }, {
        "reference": "Claim/e596d4de-87d5-4d33-abf0-fa3c5211b17e"
      }, {
        "reference": "Claim/00c67d10-3802-4c36-af3d-26d95f4e6c4f"
      }, {
        "reference": "Encounter/c3b58cc4-0b60-4371-83b7-cac6d4702b5b"
      }, {
        "reference": "Encounter/ca3d1b44-3e47-4d2f-abcf-fb177f0b5c32"
      }, {
        "reference": "Encounter/f055f7f5-bd8b-478b-9d44-d50b60ef52f3"
      }, {
        "reference": "Patient/7c4f1e55-2462-45e5-9062-5cf8d04b40e2"
      }, {
        "reference": "AdverseEvent/3cab13bc-ebc5-4c54-ba7a-db8e644caffc"
      }, {
        "reference": "AdverseEvent/4105a615-d162-42b7-b827-3a345cd8b8b9"
      }, {
        "reference": "Practitioner/adea6ffb-98b8-4162-a091-78b0f11bfc44"
      }, {
        "reference": "Coverage/89cd7bb4-9667-4b17-a80d-fc85ddde0140"
      }, {
        "reference": "Organization/5b8cb0fa-18fa-481a-b392-6d9849161a6d"
      } ]
    },
    "request": {
      "method": "PUT",
      "url": "MeasureReport/417ae819-fffd-441f-b1a2-ab427e0d51af"
    }
  } ]
}