{
  "resourceType": "Bundle",
  "id": "3546131211",
  "type": "collection",
  "entry": [ {
    "fullUrl": "https://madie.cms.gov/Patient/8b5ba7de-6762-4bf2-a2b3-fba46594f026",
    "resource": {
      "resourceType": "Patient",
      "id": "8b5ba7de-6762-4bf2-a2b3-fba46594f026",
      "meta": {
        "profile": [ "http://hl7.org/fhir/us/qicore/StructureDefinition/qicore-patient" ]
      },
      "extension": [ {
        "url": "http://hl7.org/fhir/us/core/StructureDefinition/us-core-race",
        "extension": [ {
          "url": "ombCategory",
          "valueCoding": {
            "system": "urn:oid:2.16.840.1.113883.6.238",
            "code": "2076-8",
            "display": "Native Hawaiian or Other Pacific Islander"
          }
        }, {
          "url": "text",
          "valueString": "Native Hawaiian or Other Pacific Islander"
        } ]
      }, {
        "url": "http://hl7.org/fhir/us/core/StructureDefinition/us-core-ethnicity",
        "extension": [ {
          "url": "ombCategory",
          "valueCoding": {
            "system": "urn:oid:2.16.840.1.113883.6.238",
            "code": "2186-5",
            "display": "Not Hispanic or Latino"
          }
        }, {
          "url": "text",
          "valueString": "Not Hispanic or Latino"
        } ]
      } ],
      "identifier": [ {
        "type": {
          "coding": [ {
            "system": "http://terminology.hl7.org/CodeSystem/v2-0203",
            "code": "MR"
          } ]
        },
        "system": "https://bonnie-fhir.healthit.gov/",
        "value": "6351g5asg32135135102101"
      } ],
      "name": [ {
        "family": "IPFail",
        "given": [ "DiagnosisUnconfirmed" ]
      } ],
      "gender": "female",
      "birthDate": "1951-12-25"
    }
  }, {
    "fullUrl": "https://madie.cms.gov/Encounter/7bcb5a84-b6fa-4136-b1f7-c0ebe2aa8715",
    "resource": {
      "resourceType": "Encounter",
      "id": "7bcb5a84-b6fa-4136-b1f7-c0ebe2aa8715",
      "meta": {
        "profile": [ "http://hl7.org/fhir/us/qicore/StructureDefinition/qicore-encounter" ]
      },
      "status": "finished",
      "class": {
        "system": "http://terminology.hl7.org/CodeSystem/v3-ActCode",
        "code": "VR",
        "display": "virtual"
      },
      "type": [ {
        "coding": [ {
          "system": "http://snomed.info/sct",
          "version": "http://snomed.info/sct/731000124108/version/20240301",
          "code": "185463005",
          "display": "Visit out of hours (procedure)"
        } ]
      } ],
      "subject": {
        "reference": "Patient/8b5ba7de-6762-4bf2-a2b3-fba46594f026"
      },
      "period": {
        "start": "2026-02-02T08:00:00.000+00:00",
        "end": "2026-02-02T09:15:00.000+00:00"
      }
    }
  }, {
    "fullUrl": "https://madie.cms.gov/Condition/b8cf3065-6186-4ad6-ab9b-0e11da6f8f37",
    "resource": {
      "resourceType": "Condition",
      "id": "b8cf3065-6186-4ad6-ab9b-0e11da6f8f37",
      "meta": {
        "profile": [ "http://hl7.org/fhir/us/qicore/StructureDefinition/qicore-condition-problems-health-concerns" ]
      },
      "clinicalStatus": {
        "coding": [ {
          "system": "http://terminology.hl7.org/CodeSystem/condition-clinical",
          "code": "active",
          "display": "Active"
        } ]
      },
      "verificationStatus": {
        "coding": [ {
          "system": "http://terminology.hl7.org/CodeSystem/condition-ver-status",
          "code": "unconfirmed",
          "display": "Unconfirmed"
        } ]
      },
      "category": [ {
        "coding": [ {
          "system": "http://terminology.hl7.org/CodeSystem/condition-category",
          "code": "problem-list-item",
          "display": "Problem List Item"
        } ]
      } ],
      "code": {
        "coding": [ {
          "system": "http://hl7.org/fhir/sid/icd-10-cm",
          "version": "2024",
          "code": "C67.1",
          "display": "Malignant neoplasm of dome of bladder"
        } ]
      },
      "subject": {
        "reference": "Patient/8b5ba7de-6762-4bf2-a2b3-fba46594f026"
      },
      "onsetPeriod": {
        "start": "2026-02-02T08:00:00.000+00:00"
      }
    }
  }, {
    "fullUrl": "https://madie.cms.gov/Procedure/4cd47039-7a3a-4488-b4fa-e12f2dd55cc5",
    "resource": {
      "resourceType": "Procedure",
      "id": "4cd47039-7a3a-4488-b4fa-e12f2dd55cc5",
      "meta": {
        "profile": [ "http://hl7.org/fhir/us/qicore/StructureDefinition/qicore-procedure" ]
      },
      "extension": [ {
        "url": "http://hl7.org/fhir/us/qicore/StructureDefinition/qicore-recorded",
        "valueDateTime": "2025-02-01T08:00:00.000+00:00"
      } ],
      "status": "completed",
      "code": {
        "coding": [ {
          "system": "http://snomed.info/sct",
          "version": "http://snomed.info/sct/731000124108/version/20250301",
          "code": "254292007",
          "display": "Tumor staging"
        } ]
      },
      "subject": {
        "reference": "Patient/8b5ba7de-6762-4bf2-a2b3-fba46594f026"
      },
      "performedPeriod": {
        "start": "2026-04-01T08:00:00.000+00:00",
        "end": "2026-04-01T08:15:00.000+00:00"
      }
    }
  }, {
    "fullUrl": "https://madie.cms.gov/Observation/c10a0e38-cb7a-491b-9304-0cced4ac18df",
    "resource": {
      "resourceType": "Observation",
      "id": "c10a0e38-cb7a-491b-9304-0cced4ac18df",
      "meta": {
        "profile": [ "http://hl7.org/fhir/us/qicore/StructureDefinition/qicore-observation-lab" ]
      },
      "partOf": [ {
        "reference": "Procedure/4cd47039-7a3a-4488-b4fa-e12f2dd55cc5"
      } ],
      "status": "final",
      "category": [ {
        "coding": [ {
          "system": "http://terminology.hl7.org/CodeSystem/observation-category",
          "code": "procedure",
          "display": "Procedure"
        } ]
      }, {
        "coding": [ {
          "system": "http://terminology.hl7.org/CodeSystem/observation-category",
          "code": "laboratory",
          "display": "Laboratory"
        } ]
      } ],
      "code": {
        "coding": [ {
          "system": "http://loinc.org",
          "version": "2.76",
          "code": "21902-2",
          "display": "Stage group.pathology Cancer"
        } ]
      },
      "subject": {
        "reference": "Patient/8b5ba7de-6762-4bf2-a2b3-fba46594f026"
      },
      "effectivePeriod": {
        "start": "2026-04-01T08:00:00.000+00:00",
        "end": "2026-04-01T08:15:00.000+00:00"
      },
      "issued": "2026-04-01T08:15:00.000+00:00",
      "valueCodeableConcept": {
        "coding": [ {
          "system": "http://snomed.info/sct",
          "version": "http://snomed.info/sct/731000124108/version/20240301",
          "code": "369949005",
          "display": "Ta: Noninvasive papillary carcinoma (urinary tract) (finding)"
        } ]
      }
    }
  }, {
    "fullUrl": "https://madie.cms.gov/MeasureReport/18249994-2a02-4edb-a4ce-730684723a33",
    "resource": {
      "resourceType": "MeasureReport",
      "id": "18249994-2a02-4edb-a4ce-730684723a33",
      "meta": {
        "profile": [ "http://hl7.org/fhir/us/cqfmeasures/StructureDefinition/test-case-cqfm" ]
      },
      "contained": [ {
        "resourceType": "Parameters",
        "id": "b1c6ce44-84d3-46a3-9784-7d780fb14ad7-parameters",
        "parameter": [ {
          "name": "subject",
          "valueString": "8b5ba7de-6762-4bf2-a2b3-fba46594f026"
        } ]
      } ],
      "extension": [ {
        "url": "http://hl7.org/fhir/StructureDefinition/cqf-inputParameters",
        "valueReference": {
          "reference": "#b1c6ce44-84d3-46a3-9784-7d780fb14ad7-parameters"
        }
      }, {
        "url": "http://hl7.org/fhir/us/cqfmeasures/StructureDefinition/cqfm-testCaseDescription",
        "valueMarkdown": "OV in MP with staging but bladder cancer dx unconfirmed. "
      } ],
      "modifierExtension": [ {
        "url": "http://hl7.org/fhir/us/cqfmeasures/StructureDefinition/cqfm-isTestCase",
        "valueBoolean": true
      } ],
      "status": "complete",
      "type": "individual",
      "measure": "https://madie.cms.gov/Measure/CMS646FHIRIntravesicalBCGTherapy",
      "period": {
        "start": "2026-01-01",
        "end": "2026-12-31"
      },
      "group": [ {
        "id": "Group_1",
        "population": [ {
          "id": "InitialPopulation_1",
          "code": {
            "coding": [ {
              "system": "http://terminology.hl7.org/CodeSystem/measure-population",
              "code": "initial-population",
              "display": "Initial Population"
            } ]
          },
          "count": 0
        }, {
          "id": "Denominator_1",
          "code": {
            "coding": [ {
              "system": "http://terminology.hl7.org/CodeSystem/measure-population",
              "code": "denominator",
              "display": "Denominator"
            } ]
          },
          "count": 0
        }, {
          "id": "DenominatorExclusion_1",
          "code": {
            "coding": [ {
              "system": "http://terminology.hl7.org/CodeSystem/measure-population",
              "code": "denominator-exclusion",
              "display": "Denominator Exclusion"
            } ]
          },
          "count": 0
        }, {
          "id": "Numerator_1",
          "code": {
            "coding": [ {
              "system": "http://terminology.hl7.org/CodeSystem/measure-population",
              "code": "numerator",
              "display": "Numerator"
            } ]
          },
          "count": 0
        }, {
          "id": "DenominatorException_1",
          "code": {
            "coding": [ {
              "system": "http://terminology.hl7.org/CodeSystem/measure-population",
              "code": "denominator-exception",
              "display": "Denominator Exception"
            } ]
          },
          "count": 0
        } ],
        "measureScore": {
          "value": 1.0
        }
      } ],
      "evaluatedResource": [ {
        "reference": "Patient/8b5ba7de-6762-4bf2-a2b3-fba46594f026"
      }, {
        "reference": "Encounter/7bcb5a84-b6fa-4136-b1f7-c0ebe2aa8715"
      }, {
        "reference": "Condition/b8cf3065-6186-4ad6-ab9b-0e11da6f8f37"
      }, {
        "reference": "Procedure/4cd47039-7a3a-4488-b4fa-e12f2dd55cc5"
      }, {
        "reference": "Observation/c10a0e38-cb7a-491b-9304-0cced4ac18df"
      } ]
    }
  } ]
}