{
  "resourceType": "Bundle",
  "id": "62c880ed0111a60120dc2215",
  "type": "transaction",
  "entry": [ {
    "fullUrl": "https://madie.cms.gov/Patient/e085c0d1-a736-4596-a5cd-7de785d0d144",
    "resource": {
      "resourceType": "Patient",
      "id": "e085c0d1-a736-4596-a5cd-7de785d0d144",
      "meta": {
        "profile": [ "http://hl7.org/fhir/us/qicore/StructureDefinition/qicore-patient" ]
      },
      "extension": [ {
        "url": "http://hl7.org/fhir/us/core/StructureDefinition/us-core-race",
        "extension": [ {
          "url": "ombCategory",
          "valueCoding": {
            "system": "urn:oid:2.16.840.1.113883.6.238",
            "code": "1002-5",
            "display": "American Indian or Alaska Native",
            "userSelected": true
          }
        }, {
          "url": "text",
          "valueString": "American Indian or Alaska Native"
        } ]
      }, {
        "url": "http://hl7.org/fhir/us/core/StructureDefinition/us-core-ethnicity",
        "extension": [ {
          "url": "ombCategory",
          "valueCoding": {
            "system": "urn:oid:2.16.840.1.113883.6.238",
            "code": "2135-2",
            "display": "Hispanic or Latino",
            "userSelected": true
          }
        }, {
          "url": "text",
          "valueString": "Hispanic or Latino"
        } ]
      } ],
      "identifier": [ {
        "type": {
          "coding": [ {
            "system": "http://terminology.hl7.org/CodeSystem/v2-0203",
            "code": "MR"
          } ]
        },
        "system": "https://bonnie-fhir.healthit.gov/",
        "value": "62c880ed0111a60120dc2215"
      } ],
      "active": true,
      "name": [ {
        "use": "usual",
        "family": "NUMERPassPop2",
        "given": [ "PainAssessStartsSameTimeAsRadTx" ]
      } ],
      "gender": "male",
      "birthDate": "1976-04-25"
    },
    "request": {
      "method": "PUT",
      "url": "Patient/e085c0d1-a736-4596-a5cd-7de785d0d144"
    }
  }, {
    "fullUrl": "https://madie.cms.gov/Observation/7a01de26-d508-4e9e-aa28-dd4fadbc1b3f",
    "resource": {
      "resourceType": "Observation",
      "id": "7a01de26-d508-4e9e-aa28-dd4fadbc1b3f",
      "meta": {
        "profile": [ "http://hl7.org/fhir/us/qicore/StructureDefinition/qicore-observation-screening-assessment" ]
      },
      "status": "final",
      "category": [ {
        "coding": [ {
          "system": "http://terminology.hl7.org/CodeSystem/observation-category",
          "code": "survey",
          "display": "Survey"
        } ],
        "text": "Survey"
      } ],
      "code": {
        "coding": [ {
          "system": "http://loinc.org",
          "code": "38208-5"
        } ]
      },
      "subject": {
        "reference": "Patient/e085c0d1-a736-4596-a5cd-7de785d0d144"
      },
      "effectiveDateTime": "2026-05-06T12:45:00.000+00:00",
      "valueInteger": 9
    },
    "request": {
      "method": "PUT",
      "url": "Observation/7a01de26-d508-4e9e-aa28-dd4fadbc1b3f"
    }
  }, {
    "fullUrl": "https://madie.cms.gov/Condition/bd3b549f-d69a-4174-bafa-8eb1ad791013",
    "resource": {
      "resourceType": "Condition",
      "id": "bd3b549f-d69a-4174-bafa-8eb1ad791013",
      "meta": {
        "profile": [ "http://hl7.org/fhir/us/qicore/StructureDefinition/qicore-condition-problems-health-concerns" ]
      },
      "clinicalStatus": {
        "coding": [ {
          "system": "http://terminology.hl7.org/CodeSystem/condition-clinical",
          "code": "active",
          "display": "active",
          "userSelected": true
        } ]
      },
      "verificationStatus": {
        "coding": [ {
          "system": "http://terminology.hl7.org/CodeSystem/condition-ver-status",
          "code": "confirmed",
          "display": "Confirmed"
        } ]
      },
      "category": [ {
        "coding": [ {
          "system": "http://terminology.hl7.org/CodeSystem/condition-category",
          "code": "problem-list-item",
          "display": "Problem List Item"
        } ]
      } ],
      "code": {
        "coding": [ {
          "system": "http://hl7.org/fhir/sid/icd-10-cm",
          "code": "C22.0"
        } ]
      },
      "subject": {
        "reference": "Patient/e085c0d1-a736-4596-a5cd-7de785d0d144"
      },
      "onsetDateTime": "2022-05-06T12:45:00.000+00:00"
    },
    "request": {
      "method": "PUT",
      "url": "Condition/bd3b549f-d69a-4174-bafa-8eb1ad791013"
    }
  }, {
    "fullUrl": "https://madie.cms.gov/Coverage/680a07cb-666e-4869-9954-8ff306acf7cb",
    "resource": {
      "resourceType": "Coverage",
      "id": "680a07cb-666e-4869-9954-8ff306acf7cb",
      "meta": {
        "profile": [ "http://hl7.org/fhir/us/qicore/StructureDefinition/qicore-coverage" ]
      },
      "status": "active",
      "beneficiary": {
        "reference": "Patient/e085c0d1-a736-4596-a5cd-7de785d0d144"
      },
      "period": {
        "start": "1976-04-25T08:00:00.000+00:00"
      },
      "payor": [ {
        "reference": "Organization/d2520f17-2e17-4b35-99f3-71f0015f94ae"
      } ]
    },
    "request": {
      "method": "PUT",
      "url": "Coverage/680a07cb-666e-4869-9954-8ff306acf7cb"
    }
  }, {
    "fullUrl": "https://madie.cms.gov/Encounter/006bfb56-ec22-46bf-806c-0aa8b758ac48",
    "resource": {
      "resourceType": "Encounter",
      "id": "006bfb56-ec22-46bf-806c-0aa8b758ac48",
      "meta": {
        "profile": [ "http://hl7.org/fhir/us/qicore/StructureDefinition/qicore-encounter" ]
      },
      "status": "finished",
      "class": {
        "system": "http://terminology.hl7.org/CodeSystem/v3-ActCode",
        "code": "AMB",
        "display": "ambulatory",
        "userSelected": true
      },
      "type": [ {
        "coding": [ {
          "system": "http://www.ama-assn.org/go/cpt",
          "version": "2023",
          "code": "77427",
          "display": "Radiation treatment management, 5 treatments",
          "userSelected": true
        } ]
      } ],
      "subject": {
        "reference": "Patient/e085c0d1-a736-4596-a5cd-7de785d0d144"
      },
      "period": {
        "start": "2026-05-06T12:45:00.000+00:00",
        "end": "2026-05-06T13:00:00.000+00:00"
      }
    },
    "request": {
      "method": "PUT",
      "url": "Encounter/006bfb56-ec22-46bf-806c-0aa8b758ac48"
    }
  }, {
    "fullUrl": "https://madie.cms.gov/Organization/d2520f17-2e17-4b35-99f3-71f0015f94ae",
    "resource": {
      "resourceType": "Organization",
      "id": "d2520f17-2e17-4b35-99f3-71f0015f94ae",
      "meta": {
        "profile": [ "http://hl7.org/fhir/us/qicore/StructureDefinition/qicore-organization" ]
      },
      "identifier": [ {
        "use": "temp",
        "system": "urn:oid:2.16.840.1.113883.4.4",
        "value": "21-3259825"
      } ],
      "active": true,
      "type": [ {
        "coding": [ {
          "system": "http://terminology.hl7.org/CodeSystem/organization-type",
          "code": "pay",
          "display": "Payer"
        } ]
      } ],
      "name": "Blue Cross Blue Shield of Texas",
      "telecom": [ {
        "system": "phone",
        "value": "(+1) 972-766-6900"
      } ],
      "address": [ {
        "use": "billing",
        "type": "postal",
        "line": [ "P.O. Box 660044" ],
        "city": "Dallas",
        "state": "TX",
        "postalCode": "75266-0044",
        "country": "USA"
      } ]
    },
    "request": {
      "method": "PUT",
      "url": "Organization/d2520f17-2e17-4b35-99f3-71f0015f94ae"
    }
  }, {
    "fullUrl": "https://madie.cms.gov/Practitioner/3b0c44a7-97f0-4bb8-8889-0387e137b40f",
    "resource": {
      "resourceType": "Practitioner",
      "id": "3b0c44a7-97f0-4bb8-8889-0387e137b40f",
      "meta": {
        "profile": [ "http://hl7.org/fhir/us/qicore/StructureDefinition/qicore-practitioner" ]
      },
      "identifier": [ {
        "system": "http://hl7.org/fhir/sid/us-npi",
        "value": "1234567890"
      } ],
      "name": [ {
        "family": "Evil",
        "prefix": [ "Dr" ]
      } ]
    },
    "request": {
      "method": "PUT",
      "url": "Practitioner/3b0c44a7-97f0-4bb8-8889-0387e137b40f"
    }
  }, {
    "fullUrl": "https://madie.cms.gov/MeasureReport/dfa6cb5c-77dd-47e1-968c-8b280300f2d0",
    "resource": {
      "resourceType": "MeasureReport",
      "id": "dfa6cb5c-77dd-47e1-968c-8b280300f2d0",
      "meta": {
        "profile": [ "http://hl7.org/fhir/us/cqfmeasures/StructureDefinition/test-case-cqfm" ]
      },
      "contained": [ {
        "resourceType": "Parameters",
        "id": "190ef4b7-fa80-44fc-a3fc-3ce048920fb2-parameters",
        "parameter": [ {
          "name": "subject",
          "valueString": "e085c0d1-a736-4596-a5cd-7de785d0d144"
        } ]
      } ],
      "extension": [ {
        "url": "http://hl7.org/fhir/StructureDefinition/cqf-inputParameters",
        "valueReference": {
          "reference": "#190ef4b7-fa80-44fc-a3fc-3ce048920fb2-parameters"
        }
      }, {
        "url": "http://hl7.org/fhir/us/cqfmeasures/StructureDefinition/cqfm-testCaseDescription",
        "valueMarkdown": "Patient with cancer diagnosis that overlaps radiation treatment management during measurement period. Pain intensity assessment was performed same date and time as the start of radiation treatment management encounter. "
      } ],
      "modifierExtension": [ {
        "url": "http://hl7.org/fhir/us/cqfmeasures/StructureDefinition/cqfm-isTestCase",
        "valueBoolean": true
      } ],
      "status": "complete",
      "type": "individual",
      "measure": "https://madie.cms.gov/Measure/CMS157FHIRPainIntensityQuantified",
      "period": {
        "start": "2026-01-01",
        "end": "2026-12-31"
      },
      "group": [ {
        "id": "Group_1",
        "population": [ {
          "id": "InitialPopulation_1",
          "code": {
            "coding": [ {
              "system": "http://terminology.hl7.org/CodeSystem/measure-population",
              "code": "initial-population",
              "display": "Initial Population"
            } ]
          },
          "count": 0
        }, {
          "id": "Denominator_1",
          "code": {
            "coding": [ {
              "system": "http://terminology.hl7.org/CodeSystem/measure-population",
              "code": "denominator",
              "display": "Denominator"
            } ]
          },
          "count": 0
        }, {
          "id": "Numerator_1",
          "code": {
            "coding": [ {
              "system": "http://terminology.hl7.org/CodeSystem/measure-population",
              "code": "numerator",
              "display": "Numerator"
            } ]
          },
          "count": 0
        } ],
        "measureScore": {
          "value": 0.0
        }
      }, {
        "id": "Group_2",
        "population": [ {
          "id": "InitialPopulation_2",
          "code": {
            "coding": [ {
              "system": "http://terminology.hl7.org/CodeSystem/measure-population",
              "code": "initial-population",
              "display": "Initial Population"
            } ]
          },
          "count": 1
        }, {
          "id": "Denominator_2",
          "code": {
            "coding": [ {
              "system": "http://terminology.hl7.org/CodeSystem/measure-population",
              "code": "denominator",
              "display": "Denominator"
            } ]
          },
          "count": 1
        }, {
          "id": "Numerator_2",
          "code": {
            "coding": [ {
              "system": "http://terminology.hl7.org/CodeSystem/measure-population",
              "code": "numerator",
              "display": "Numerator"
            } ]
          },
          "count": 1
        } ],
        "measureScore": {
          "value": 0.0
        }
      } ],
      "evaluatedResource": [ {
        "reference": "Patient/e085c0d1-a736-4596-a5cd-7de785d0d144"
      }, {
        "reference": "Observation/7a01de26-d508-4e9e-aa28-dd4fadbc1b3f"
      }, {
        "reference": "Condition/bd3b549f-d69a-4174-bafa-8eb1ad791013"
      }, {
        "reference": "Coverage/680a07cb-666e-4869-9954-8ff306acf7cb"
      }, {
        "reference": "Encounter/006bfb56-ec22-46bf-806c-0aa8b758ac48"
      }, {
        "reference": "Organization/d2520f17-2e17-4b35-99f3-71f0015f94ae"
      }, {
        "reference": "Practitioner/3b0c44a7-97f0-4bb8-8889-0387e137b40f"
      } ]
    },
    "request": {
      "method": "PUT",
      "url": "MeasureReport/dfa6cb5c-77dd-47e1-968c-8b280300f2d0"
    }
  } ]
}