{
  "resourceType": "Bundle",
  "id": "661476b015ed5841a5547ebf",
  "type": "transaction",
  "entry": [ {
    "fullUrl": "https://madie.cms.gov/Patient/8e43bc64-4242-494d-b47f-fdbbd3372bbe",
    "resource": {
      "resourceType": "Patient",
      "id": "8e43bc64-4242-494d-b47f-fdbbd3372bbe",
      "meta": {
        "profile": [ "http://hl7.org/fhir/us/qicore/StructureDefinition/qicore-patient" ]
      },
      "extension": [ {
        "url": "http://hl7.org/fhir/us/core/StructureDefinition/us-core-race",
        "extension": [ {
          "url": "ombCategory",
          "valueCoding": {
            "system": "urn:oid:2.16.840.1.113883.6.238",
            "code": "1002-5",
            "display": "American Indian or Alaska Native",
            "userSelected": true
          }
        }, {
          "url": "text",
          "valueString": "American Indian or Alaska Native"
        } ]
      }, {
        "url": "http://hl7.org/fhir/us/core/StructureDefinition/us-core-ethnicity",
        "extension": [ {
          "url": "ombCategory",
          "valueCoding": {
            "system": "urn:oid:2.16.840.1.113883.6.238",
            "code": "2135-2",
            "display": "Hispanic or Latino",
            "userSelected": true
          }
        }, {
          "url": "text",
          "valueString": "Hispanic or Latino"
        } ]
      }, {
        "url": "http://hl7.org/fhir/us/core/StructureDefinition/us-core-sex",
        "valueCode": "248153007"
      } ],
      "identifier": [ {
        "type": {
          "coding": [ {
            "system": "http://terminology.hl7.org/CodeSystem/v2-0203",
            "code": "MR"
          } ]
        },
        "system": "https://bonnie-fhir.healthit.gov/",
        "value": "661476b015ed5841a5547ebf"
      } ],
      "name": [ {
        "family": "NUMERStrat3Pass",
        "given": [ "Boarded241MinOrderAdmit" ]
      } ],
      "gender": "male",
      "birthDate": "2011-01-01"
    },
    "request": {
      "method": "PUT",
      "url": "Patient/8e43bc64-4242-494d-b47f-fdbbd3372bbe"
    }
  }, {
    "fullUrl": "https://madie.cms.gov/Encounter/5b1da4b7-a0df-4659-8a06-7d9e1c955195",
    "resource": {
      "resourceType": "Encounter",
      "id": "5b1da4b7-a0df-4659-8a06-7d9e1c955195",
      "meta": {
        "profile": [ "http://hl7.org/fhir/us/qicore/StructureDefinition/qicore-encounter" ]
      },
      "status": "finished",
      "class": {
        "system": "http://terminology.hl7.org/CodeSystem/v3-ActCode",
        "code": "EMER",
        "display": "emergency department"
      },
      "type": [ {
        "coding": [ {
          "system": "http://snomed.info/sct",
          "version": "2023-09",
          "code": "4525004",
          "display": "Emergency department patient visit (procedure)",
          "userSelected": true
        } ]
      } ],
      "subject": {
        "reference": "Patient/8e43bc64-4242-494d-b47f-fdbbd3372bbe"
      },
      "period": {
        "start": "2027-05-01T19:58:00.000+00:00",
        "end": "2027-05-01T23:59:00.000+00:00"
      },
      "diagnosis": [ {
        "condition": {
          "reference": "Condition/0788b221-afb6-49d1-b9bd-e1d9822d5ee4"
        },
        "use": {
          "coding": [ {
            "system": "http://terminology.hl7.org/CodeSystem/diagnosis-role",
            "code": "billing"
          } ]
        },
        "rank": 1
      } ],
      "location": [ {
        "location": {
          "reference": "Location/cea5e7fa-9c2f-4f1e-ae1c-321cd7fbdc2a"
        },
        "period": {
          "start": "2027-05-01T19:58:00.000+00:00",
          "end": "2027-05-01T23:59:00.000+00:00"
        }
      } ]
    },
    "request": {
      "method": "PUT",
      "url": "Encounter/5b1da4b7-a0df-4659-8a06-7d9e1c955195"
    }
  }, {
    "fullUrl": "https://madie.cms.gov/ServiceRequest/9becb67e-00fc-4b84-b35b-8f6153344731",
    "resource": {
      "resourceType": "ServiceRequest",
      "id": "9becb67e-00fc-4b84-b35b-8f6153344731",
      "meta": {
        "profile": [ "http://hl7.org/fhir/us/qicore/StructureDefinition/qicore-servicerequest" ]
      },
      "status": "active",
      "intent": "order",
      "code": {
        "coding": [ {
          "system": "http://snomed.info/sct",
          "version": "2023-09",
          "code": "19951005",
          "display": "Hospital admission, emergency, from emergency room, medical nature (procedure)",
          "userSelected": true
        } ]
      },
      "subject": {
        "reference": "Patient/8e43bc64-4242-494d-b47f-fdbbd3372bbe"
      },
      "authoredOn": "2027-05-01T19:58:00.000+00:00"
    },
    "request": {
      "method": "PUT",
      "url": "ServiceRequest/9becb67e-00fc-4b84-b35b-8f6153344731"
    }
  }, {
    "fullUrl": "https://madie.cms.gov/Location/cea5e7fa-9c2f-4f1e-ae1c-321cd7fbdc2a",
    "resource": {
      "resourceType": "Location",
      "id": "cea5e7fa-9c2f-4f1e-ae1c-321cd7fbdc2a",
      "meta": {
        "profile": [ "http://hl7.org/fhir/us/qicore/StructureDefinition/qicore-location" ]
      },
      "identifier": [ {
        "use": "usual",
        "system": "http://exampleoflocation.com",
        "value": "B1-S.F2"
      } ],
      "name": "Medical Surgical East, first floor",
      "type": [ {
        "coding": [ {
          "system": "https://www.cdc.gov/nhsn/cdaportal/terminology/codesystem/hsloc.html",
          "version": "2022",
          "code": "1108-0",
          "display": "Emergency Department",
          "userSelected": true
        } ]
      } ]
    },
    "request": {
      "method": "PUT",
      "url": "Location/cea5e7fa-9c2f-4f1e-ae1c-321cd7fbdc2a"
    }
  }, {
    "fullUrl": "https://madie.cms.gov/claim/ClaimBehavior-NotSubsAbuse",
    "resource": {
      "resourceType": "Claim",
      "id": "ClaimBehavior-NotSubsAbuse",
      "meta": {
        "profile": [ "http://hl7.org/fhir/us/qicore/StructureDefinition/qicore-claim" ]
      },
      "status": "active",
      "type": {
        "coding": [ {
          "system": "http://terminology.hl7.org/CodeSystem/claim-type",
          "code": "institutional"
        } ]
      },
      "use": "claim",
      "patient": {
        "reference": "Patient/8e43bc64-4242-494d-b47f-fdbbd3372bbe"
      },
      "created": "2027-05-01",
      "provider": {
        "reference": "Practitioner/1f9e6fe3-8dd1-402f-89ba-db543a2f8c01"
      },
      "priority": {
        "coding": [ {
          "system": "http://terminology.hl7.org/CodeSystem/processpriority",
          "code": "normal"
        } ]
      },
      "diagnosis": [ {
        "sequence": 1,
        "diagnosisReference": {
          "reference": "Condition/0788b221-afb6-49d1-b9bd-e1d9822d5ee4"
        },
        "type": [ {
          "coding": [ {
            "system": "http://terminology.hl7.org/CodeSystem/ex-diagnosistype",
            "code": "principal"
          } ]
        } ]
      } ],
      "insurance": [ {
        "sequence": 1,
        "focal": true,
        "coverage": {
          "reference": "Coverage/d367902a-f6a9-4ea1-9261-c1c3e4584346"
        }
      } ],
      "item": [ {
        "sequence": 1,
        "diagnosisSequence": [ 1 ],
        "productOrService": {
          "coding": [ {
            "system": "http://terminology.hl7.org/CodeSystem/ex-USCLS",
            "code": "99555"
          } ]
        },
        "encounter": [ {
          "reference": "Encounter/5b1da4b7-a0df-4659-8a06-7d9e1c955195"
        } ]
      } ]
    },
    "request": {
      "method": "PUT",
      "url": "Claim/ClaimBehavior-NotSubsAbuse"
    }
  }, {
    "fullUrl": "https://madie.cms.gov/Coverage/d367902a-f6a9-4ea1-9261-c1c3e4584346",
    "resource": {
      "resourceType": "Coverage",
      "id": "d367902a-f6a9-4ea1-9261-c1c3e4584346",
      "meta": {
        "profile": [ "http://hl7.org/fhir/us/qicore/StructureDefinition/qicore-coverage" ]
      },
      "identifier": [ {
        "type": {
          "coding": [ {
            "system": "http://terminology.hl7.org/CodeSystem/v2-0203",
            "code": "MB"
          } ]
        }
      } ],
      "status": "active",
      "beneficiary": {
        "reference": "Patient/8e43bc64-4242-494d-b47f-fdbbd3372bbe"
      },
      "relationship": {
        "coding": [ {
          "system": "http://terminology.hl7.org/CodeSystem/subscriber-relationship",
          "code": "self"
        } ]
      },
      "payor": [ {
        "reference": "Organization/dfb216ac-807b-409c-ab45-9be4daf22b0f"
      } ]
    },
    "request": {
      "method": "PUT",
      "url": "Coverage/d367902a-f6a9-4ea1-9261-c1c3e4584346"
    }
  }, {
    "fullUrl": "https://madie.cms.gov/Condition/0788b221-afb6-49d1-b9bd-e1d9822d5ee4",
    "resource": {
      "resourceType": "Condition",
      "id": "0788b221-afb6-49d1-b9bd-e1d9822d5ee4",
      "meta": {
        "profile": [ "http://hl7.org/fhir/us/qicore/StructureDefinition/qicore-condition-encounter-diagnosis" ]
      },
      "category": [ {
        "coding": [ {
          "system": "http://terminology.hl7.org/CodeSystem/condition-category",
          "code": "encounter-diagnosis",
          "display": "Encounter Diagnosis"
        } ]
      } ],
      "code": {
        "coding": [ {
          "system": "http://snomed.info/sct",
          "version": "2023-09",
          "code": "10349009",
          "display": "Multi-infarct dementia with delirium (disorder)",
          "userSelected": true
        } ]
      },
      "subject": {
        "reference": "Patient/8e43bc64-4242-494d-b47f-fdbbd3372bbe"
      },
      "recordedDate": "2027-04-09T08:00:00.000+00:00"
    },
    "request": {
      "method": "PUT",
      "url": "Condition/0788b221-afb6-49d1-b9bd-e1d9822d5ee4"
    }
  }, {
    "fullUrl": "https://madie.cms.gov/Encounter/d2da2071-64ad-4bde-a652-4e6465a15baa",
    "resource": {
      "resourceType": "Encounter",
      "id": "d2da2071-64ad-4bde-a652-4e6465a15baa",
      "meta": {
        "profile": [ "http://hl7.org/fhir/us/qicore/StructureDefinition/qicore-encounter" ]
      },
      "status": "finished",
      "class": {
        "system": "http://terminology.hl7.org/CodeSystem/v3-ActCode",
        "code": "IMP",
        "display": "inpatient"
      },
      "type": [ {
        "coding": [ {
          "system": "http://snomed.info/sct",
          "version": "2023-09",
          "code": "8715000",
          "display": "Hospital admission, elective (procedure)",
          "userSelected": true
        } ]
      } ],
      "subject": {
        "reference": "Patient/8e43bc64-4242-494d-b47f-fdbbd3372bbe"
      },
      "period": {
        "start": "2027-05-01T23:59:00.000+00:00",
        "end": "2027-05-03T08:00:00.000+00:00"
      }
    },
    "request": {
      "method": "PUT",
      "url": "Encounter/d2da2071-64ad-4bde-a652-4e6465a15baa"
    }
  }, {
    "fullUrl": "https://madie.cms.gov/Organization/dfb216ac-807b-409c-ab45-9be4daf22b0f",
    "resource": {
      "resourceType": "Organization",
      "id": "dfb216ac-807b-409c-ab45-9be4daf22b0f",
      "meta": {
        "profile": [ "http://hl7.org/fhir/us/qicore/StructureDefinition/qicore-organization" ]
      },
      "identifier": [ {
        "use": "temp",
        "system": "urn:oid:2.16.840.1.113883.4.4",
        "value": "21-3259825"
      } ],
      "active": true,
      "type": [ {
        "coding": [ {
          "system": "http://terminology.hl7.org/CodeSystem/organization-type",
          "code": "pay",
          "display": "Payer"
        } ]
      } ],
      "name": "Blue Cross Blue Shield of Texas",
      "telecom": [ {
        "system": "phone",
        "value": "(+1) 972-766-6900"
      } ],
      "address": [ {
        "use": "billing",
        "type": "postal",
        "line": [ "P.O. Box 660044" ],
        "city": "Dallas",
        "state": "TX",
        "postalCode": "75266-0044",
        "country": "USA"
      } ]
    },
    "request": {
      "method": "PUT",
      "url": "Organization/dfb216ac-807b-409c-ab45-9be4daf22b0f"
    }
  }, {
    "fullUrl": "https://madie.cms.gov/Practitioner/1f9e6fe3-8dd1-402f-89ba-db543a2f8c01",
    "resource": {
      "resourceType": "Practitioner",
      "id": "1f9e6fe3-8dd1-402f-89ba-db543a2f8c01",
      "meta": {
        "profile": [ "http://hl7.org/fhir/us/qicore/StructureDefinition/qicore-practitioner" ]
      },
      "identifier": [ {
        "system": "http://hl7.org/fhir/sid/us-npi",
        "value": "9999999896"
      } ],
      "name": [ {
        "family": "Evil",
        "prefix": [ "Dr" ]
      } ]
    },
    "request": {
      "method": "PUT",
      "url": "Practitioner/1f9e6fe3-8dd1-402f-89ba-db543a2f8c01"
    }
  }, {
    "fullUrl": "https://madie.cms.gov/MeasureReport/c2d38900-c2ca-40ff-9a6d-4f3bf2f7a50a",
    "resource": {
      "resourceType": "MeasureReport",
      "id": "c2d38900-c2ca-40ff-9a6d-4f3bf2f7a50a",
      "meta": {
        "profile": [ "http://hl7.org/fhir/us/cqfmeasures/StructureDefinition/test-case-cqfm" ]
      },
      "contained": [ {
        "resourceType": "Parameters",
        "id": "d2e4cb34-b71d-420b-8d78-828ca3a6021f-parameters",
        "parameter": [ {
          "name": "subject",
          "valueString": "8e43bc64-4242-494d-b47f-fdbbd3372bbe"
        } ]
      } ],
      "extension": [ {
        "url": "http://hl7.org/fhir/StructureDefinition/cqf-inputParameters",
        "valueReference": {
          "reference": "#d2e4cb34-b71d-420b-8d78-828ca3a6021f-parameters"
        }
      }, {
        "url": "http://hl7.org/fhir/us/cqfmeasures/StructureDefinition/cqfm-testCaseDescription",
        "valueMarkdown": "Child, age 17, ED enc, inpatient admit order same time as start of ED, boarded 241 minutes (time from decision to admit to departure)  boarded until last minute of day, mental illness"
      } ],
      "modifierExtension": [ {
        "url": "http://hl7.org/fhir/us/cqfmeasures/StructureDefinition/cqfm-isTestCase",
        "valueBoolean": true
      } ],
      "status": "complete",
      "type": "individual",
      "measure": "https://madie.cms.gov/Measure/CMS1244FHIRECATHOQR",
      "period": {
        "start": "2027-01-01",
        "end": "2027-12-31"
      },
      "group": [ {
        "id": "Group_1",
        "population": [ {
          "id": "InitialPopulation_1",
          "code": {
            "coding": [ {
              "system": "http://terminology.hl7.org/CodeSystem/measure-population",
              "code": "initial-population",
              "display": "Initial Population"
            } ]
          },
          "count": 1
        }, {
          "id": "Denominator_1",
          "code": {
            "coding": [ {
              "system": "http://terminology.hl7.org/CodeSystem/measure-population",
              "code": "denominator",
              "display": "Denominator"
            } ]
          },
          "count": 1
        }, {
          "id": "Numerator_1",
          "code": {
            "coding": [ {
              "system": "http://terminology.hl7.org/CodeSystem/measure-population",
              "code": "numerator",
              "display": "Numerator"
            } ]
          },
          "count": 1
        } ],
        "measureScore": {
          "value": 0.0
        },
        "stratifier": [ {
          "id": "Stratification_1_1",
          "code": [ {
            "text": "Strata-1"
          } ],
          "stratum": [ {
            "value": {
              "text": "Strata-1"
            },
            "population": [ {
              "id": "InitialPopulation_1",
              "code": {
                "coding": [ {
                  "system": "http://terminology.hl7.org/CodeSystem/measure-population",
                  "code": "initial-population",
                  "display": "Initial Population"
                } ]
              },
              "count": 0
            }, {
              "id": "Denominator_1",
              "code": {
                "coding": [ {
                  "system": "http://terminology.hl7.org/CodeSystem/measure-population",
                  "code": "denominator",
                  "display": "Denominator"
                } ]
              },
              "count": 0
            }, {
              "id": "Numerator_1",
              "code": {
                "coding": [ {
                  "system": "http://terminology.hl7.org/CodeSystem/measure-population",
                  "code": "numerator",
                  "display": "Numerator"
                } ]
              },
              "count": 0
            } ]
          } ]
        }, {
          "id": "Stratification_1_2",
          "code": [ {
            "text": "Strata-2"
          } ],
          "stratum": [ {
            "value": {
              "text": "Strata-2"
            },
            "population": [ {
              "id": "InitialPopulation_1",
              "code": {
                "coding": [ {
                  "system": "http://terminology.hl7.org/CodeSystem/measure-population",
                  "code": "initial-population",
                  "display": "Initial Population"
                } ]
              },
              "count": 0
            }, {
              "id": "Denominator_1",
              "code": {
                "coding": [ {
                  "system": "http://terminology.hl7.org/CodeSystem/measure-population",
                  "code": "denominator",
                  "display": "Denominator"
                } ]
              },
              "count": 0
            }, {
              "id": "Numerator_1",
              "code": {
                "coding": [ {
                  "system": "http://terminology.hl7.org/CodeSystem/measure-population",
                  "code": "numerator",
                  "display": "Numerator"
                } ]
              },
              "count": 0
            } ]
          } ]
        }, {
          "id": "Stratification_1_3",
          "code": [ {
            "text": "Strata-3"
          } ],
          "stratum": [ {
            "value": {
              "text": "Strata-3"
            },
            "population": [ {
              "id": "InitialPopulation_1",
              "code": {
                "coding": [ {
                  "system": "http://terminology.hl7.org/CodeSystem/measure-population",
                  "code": "initial-population",
                  "display": "Initial Population"
                } ]
              },
              "count": 1
            }, {
              "id": "Denominator_1",
              "code": {
                "coding": [ {
                  "system": "http://terminology.hl7.org/CodeSystem/measure-population",
                  "code": "denominator",
                  "display": "Denominator"
                } ]
              },
              "count": 1
            }, {
              "id": "Numerator_1",
              "code": {
                "coding": [ {
                  "system": "http://terminology.hl7.org/CodeSystem/measure-population",
                  "code": "numerator",
                  "display": "Numerator"
                } ]
              },
              "count": 1
            } ]
          } ]
        }, {
          "id": "Stratification_1_4",
          "code": [ {
            "text": "Strata-4"
          } ],
          "stratum": [ {
            "value": {
              "text": "Strata-4"
            },
            "population": [ {
              "id": "InitialPopulation_1",
              "code": {
                "coding": [ {
                  "system": "http://terminology.hl7.org/CodeSystem/measure-population",
                  "code": "initial-population",
                  "display": "Initial Population"
                } ]
              },
              "count": 0
            }, {
              "id": "Denominator_1",
              "code": {
                "coding": [ {
                  "system": "http://terminology.hl7.org/CodeSystem/measure-population",
                  "code": "denominator",
                  "display": "Denominator"
                } ]
              },
              "count": 0
            }, {
              "id": "Numerator_1",
              "code": {
                "coding": [ {
                  "system": "http://terminology.hl7.org/CodeSystem/measure-population",
                  "code": "numerator",
                  "display": "Numerator"
                } ]
              },
              "count": 0
            } ]
          } ]
        } ]
      } ],
      "evaluatedResource": [ {
        "reference": "Patient/8e43bc64-4242-494d-b47f-fdbbd3372bbe"
      }, {
        "reference": "Encounter/5b1da4b7-a0df-4659-8a06-7d9e1c955195"
      }, {
        "reference": "ServiceRequest/9becb67e-00fc-4b84-b35b-8f6153344731"
      }, {
        "reference": "Location/cea5e7fa-9c2f-4f1e-ae1c-321cd7fbdc2a"
      }, {
        "reference": "Claim/ClaimBehavior-NotSubsAbuse"
      }, {
        "reference": "Coverage/d367902a-f6a9-4ea1-9261-c1c3e4584346"
      }, {
        "reference": "Condition/0788b221-afb6-49d1-b9bd-e1d9822d5ee4"
      }, {
        "reference": "Encounter/d2da2071-64ad-4bde-a652-4e6465a15baa"
      }, {
        "reference": "Organization/dfb216ac-807b-409c-ab45-9be4daf22b0f"
      }, {
        "reference": "Practitioner/1f9e6fe3-8dd1-402f-89ba-db543a2f8c01"
      } ]
    },
    "request": {
      "method": "PUT",
      "url": "MeasureReport/c2d38900-c2ca-40ff-9a6d-4f3bf2f7a50a"
    }
  } ]
}