{
  "resourceType": "Bundle",
  "id": "627a80a15a0d870123c7253e",
  "type": "transaction",
  "entry": [ {
    "fullUrl": "https://madie.cms.gov/Patient/73b0c1fe-874b-4982-8cb2-3c30520441de",
    "resource": {
      "resourceType": "Patient",
      "id": "73b0c1fe-874b-4982-8cb2-3c30520441de",
      "meta": {
        "profile": [ "http://hl7.org/fhir/us/qicore/StructureDefinition/qicore-patient" ]
      },
      "text": {
        "status": "generated",
        "div": "<div xmlns=\"http://www.w3.org/1999/xhtml\"><div class=\"hapiHeaderText\">Opioid exactly 12 hrs before Naloxone <b>NUMERPASS </b></div><table class=\"hapiPropertyTable\"><tbody><tr><td>Date of birth</td><td><span>14 November 1980</span></td></tr></tbody></table></div>"
      },
      "identifier": [ {
        "type": {
          "coding": [ {
            "system": "http://terminology.hl7.org/CodeSystem/v2-0203",
            "code": "MR"
          } ]
        },
        "system": "https://bonnie-fhir.healthit.gov/",
        "value": "627a80a15a0d870123c7253e"
      } ],
      "active": true,
      "name": [ {
        "use": "usual",
        "family": "NUMERPass",
        "given": [ "OpioidAndAntagInOROpioidAndAntagOutsideOR" ]
      } ],
      "gender": "female",
      "birthDate": "1981-11-14"
    },
    "request": {
      "method": "PUT",
      "url": "Patient/73b0c1fe-874b-4982-8cb2-3c30520441de"
    }
  }, {
    "fullUrl": "https://madie.cms.gov/Encounter/52b6c77f-e3c5-4b4d-9c8f-3978280959b2",
    "resource": {
      "resourceType": "Encounter",
      "id": "52b6c77f-e3c5-4b4d-9c8f-3978280959b2",
      "meta": {
        "profile": [ "http://hl7.org/fhir/us/qicore/StructureDefinition/qicore-encounter" ]
      },
      "status": "finished",
      "class": {
        "system": "http://terminology.hl7.org/CodeSystem/v3-ActCode",
        "code": "IMP",
        "display": "inpatient encounter"
      },
      "type": [ {
        "coding": [ {
          "system": "http://snomed.info/sct",
          "code": "183452005",
          "display": "Inpatient encounter"
        } ]
      } ],
      "subject": {
        "reference": "Patient/73b0c1fe-874b-4982-8cb2-3c30520441de"
      },
      "period": {
        "start": "2026-01-08T08:00:00.000+00:00",
        "end": "2026-02-08T08:15:00.000+00:00"
      },
      "location": [ {
        "location": {
          "reference": "Location/HSLOC-1096-7"
        },
        "period": {
          "start": "2026-02-01T08:00:00.000+00:00",
          "end": "2026-02-01T10:15:00.000+00:00"
        }
      } ]
    },
    "request": {
      "method": "PUT",
      "url": "Encounter/52b6c77f-e3c5-4b4d-9c8f-3978280959b2"
    }
  }, {
    "fullUrl": "https://madie.cms.gov/MedicationAdministration/6d2c5396-4a63-4d50-988f-ba5baf73fcfa",
    "resource": {
      "resourceType": "MedicationAdministration",
      "id": "6d2c5396-4a63-4d50-988f-ba5baf73fcfa",
      "meta": {
        "profile": [ "http://hl7.org/fhir/us/qicore/StructureDefinition/qicore-medicationadministration" ]
      },
      "status": "completed",
      "medicationCodeableConcept": {
        "coding": [ {
          "system": "http://www.nlm.nih.gov/research/umls/rxnorm",
          "code": "1010600",
          "display": "Opioid"
        } ]
      },
      "subject": {
        "reference": "Patient/73b0c1fe-874b-4982-8cb2-3c30520441de"
      },
      "effectivePeriod": {
        "start": "2026-02-01T09:00:00.000+00:00",
        "end": "2026-02-01T09:00:00.000+00:00"
      }
    },
    "request": {
      "method": "PUT",
      "url": "MedicationAdministration/6d2c5396-4a63-4d50-988f-ba5baf73fcfa"
    }
  }, {
    "fullUrl": "https://madie.cms.gov/MedicationAdministration/6a7ab547-7f79-4bd1-a4c9-269dca8fd8e3",
    "resource": {
      "resourceType": "MedicationAdministration",
      "id": "6a7ab547-7f79-4bd1-a4c9-269dca8fd8e3",
      "meta": {
        "profile": [ "http://hl7.org/fhir/us/qicore/StructureDefinition/qicore-medicationadministration" ]
      },
      "status": "completed",
      "medicationCodeableConcept": {
        "coding": [ {
          "system": "http://www.nlm.nih.gov/research/umls/rxnorm",
          "code": "1659929",
          "display": "Naloxone"
        } ]
      },
      "subject": {
        "reference": "Patient/73b0c1fe-874b-4982-8cb2-3c30520441de"
      },
      "effectivePeriod": {
        "start": "2026-02-01T10:00:00.000+00:00"
      },
      "dosage": {
        "route": {
          "coding": [ {
            "system": "http://snomed.info/sct",
            "code": "34206005",
            "display": "Subcutaneous route (qualifier value)"
          } ]
        }
      }
    },
    "request": {
      "method": "PUT",
      "url": "MedicationAdministration/6a7ab547-7f79-4bd1-a4c9-269dca8fd8e3"
    }
  }, {
    "fullUrl": "https://madie.cms.gov/MedicationAdministration/6a7ab547-7f79-4bd1-a4c9-269dca8fd8e3",
    "resource": {
      "resourceType": "MedicationAdministration",
      "id": "6a7ab547-7f79-4bd1-a4c9-269dca8fd8e3",
      "meta": {
        "profile": [ "http://hl7.org/fhir/us/qicore/StructureDefinition/qicore-medicationadministration" ]
      },
      "status": "completed",
      "medicationCodeableConcept": {
        "coding": [ {
          "system": "http://www.nlm.nih.gov/research/umls/rxnorm",
          "code": "1010600",
          "display": "Opioid"
        } ]
      },
      "subject": {
        "reference": "Patient/73b0c1fe-874b-4982-8cb2-3c30520441de"
      },
      "effectivePeriod": {
        "start": "2026-02-07T08:00:00.000+00:00",
        "end": "2026-02-07T08:15:00.000+00:00"
      }
    },
    "request": {
      "method": "PUT",
      "url": "MedicationAdministration/6a7ab547-7f79-4bd1-a4c9-269dca8fd8e3"
    }
  }, {
    "fullUrl": "https://madie.cms.gov/MedicationAdministration/6a7ab547-7f79-4bd1-a4c9-269dca8fd8e3",
    "resource": {
      "resourceType": "MedicationAdministration",
      "id": "6a7ab547-7f79-4bd1-a4c9-269dca8fd8e3",
      "meta": {
        "profile": [ "http://hl7.org/fhir/us/qicore/StructureDefinition/qicore-medicationadministration" ]
      },
      "status": "completed",
      "medicationCodeableConcept": {
        "coding": [ {
          "system": "http://www.nlm.nih.gov/research/umls/rxnorm",
          "code": "1870933",
          "display": "Naloxone"
        } ]
      },
      "subject": {
        "reference": "Patient/73b0c1fe-874b-4982-8cb2-3c30520441de"
      },
      "effectivePeriod": {
        "start": "2026-02-07T20:00:00.000+00:00"
      },
      "dosage": {
        "route": {
          "coding": [ {
            "system": "http://snomed.info/sct",
            "code": "34206005",
            "display": "Subcutaneous route (qualifier value)"
          } ]
        }
      }
    },
    "request": {
      "method": "PUT",
      "url": "MedicationAdministration/6a7ab547-7f79-4bd1-a4c9-269dca8fd8e3"
    }
  }, {
    "fullUrl": "https://madie.cms.gov/MeasureReport/15d9e04f-4116-4856-b61a-f7c7b38e3325",
    "resource": {
      "resourceType": "MeasureReport",
      "id": "15d9e04f-4116-4856-b61a-f7c7b38e3325",
      "meta": {
        "profile": [ "http://hl7.org/fhir/us/cqfmeasures/StructureDefinition/test-case-cqfm" ]
      },
      "contained": [ {
        "resourceType": "Parameters",
        "id": "fa2c0139-b321-420f-ae44-a4a7a522cecd-parameters",
        "parameter": [ {
          "name": "subject",
          "valueString": "73b0c1fe-874b-4982-8cb2-3c30520441de"
        } ]
      } ],
      "extension": [ {
        "url": "http://hl7.org/fhir/StructureDefinition/cqf-inputParameters",
        "valueReference": {
          "reference": "#fa2c0139-b321-420f-ae44-a4a7a522cecd-parameters"
        }
      }, {
        "url": "http://hl7.org/fhir/us/cqfmeasures/StructureDefinition/cqfm-testCaseDescription",
        "valueMarkdown": "IP encounter w/ opioid given in OR. Antag also given in OR. Does not meet numerator. But later given Opioid outside OR, followed by nonoral Antag outside OR and within 12 hrs. Meets Numerator"
      } ],
      "modifierExtension": [ {
        "url": "http://hl7.org/fhir/us/cqfmeasures/StructureDefinition/cqfm-isTestCase",
        "valueBoolean": true
      } ],
      "status": "complete",
      "type": "individual",
      "measure": "https://madie.cms.gov/Measure/CMS819FHIRHHORAE",
      "period": {
        "start": "2026-01-01",
        "end": "2026-12-31"
      },
      "group": [ {
        "id": "Group_1",
        "population": [ {
          "id": "InitialPopulation_1",
          "code": {
            "coding": [ {
              "system": "http://terminology.hl7.org/CodeSystem/measure-population",
              "code": "initial-population",
              "display": "Initial Population"
            } ]
          },
          "count": 1
        }, {
          "id": "Denominator_1",
          "code": {
            "coding": [ {
              "system": "http://terminology.hl7.org/CodeSystem/measure-population",
              "code": "denominator",
              "display": "Denominator"
            } ]
          },
          "count": 1
        }, {
          "id": "Numerator_1",
          "code": {
            "coding": [ {
              "system": "http://terminology.hl7.org/CodeSystem/measure-population",
              "code": "numerator",
              "display": "Numerator"
            } ]
          },
          "count": 1
        } ],
        "measureScore": {
          "value": 0.0
        }
      } ],
      "evaluatedResource": [ {
        "reference": "Patient/73b0c1fe-874b-4982-8cb2-3c30520441de"
      }, {
        "reference": "Encounter/52b6c77f-e3c5-4b4d-9c8f-3978280959b2"
      }, {
        "reference": "MedicationAdministration/6d2c5396-4a63-4d50-988f-ba5baf73fcfa"
      }, {
        "reference": "MedicationAdministration/6a7ab547-7f79-4bd1-a4c9-269dca8fd8e3"
      }, {
        "reference": "MedicationAdministration/6a7ab547-7f79-4bd1-a4c9-269dca8fd8e3"
      }, {
        "reference": "MedicationAdministration/6a7ab547-7f79-4bd1-a4c9-269dca8fd8e3"
      } ]
    },
    "request": {
      "method": "PUT",
      "url": "MeasureReport/15d9e04f-4116-4856-b61a-f7c7b38e3325"
    }
  } ]
}