{
  "resourceType": "Bundle",
  "id": "657cbdc9b4f1f0343662347a",
  "type": "transaction",
  "entry": [ {
    "fullUrl": "https://madie.cms.gov/Patient/4d3218d8-7fc5-4d7f-a1f8-93a3324a18fd",
    "resource": {
      "resourceType": "Patient",
      "id": "4d3218d8-7fc5-4d7f-a1f8-93a3324a18fd",
      "meta": {
        "profile": [ "http://hl7.org/fhir/us/qicore/StructureDefinition/qicore-patient" ]
      },
      "extension": [ {
        "url": "http://hl7.org/fhir/us/core/StructureDefinition/us-core-race",
        "extension": [ {
          "url": "ombCategory",
          "valueCoding": {
            "system": "urn:oid:2.16.840.1.113883.6.238",
            "code": "2106-3",
            "display": "White",
            "userSelected": true
          }
        }, {
          "url": "text",
          "valueString": "White"
        } ]
      }, {
        "url": "http://hl7.org/fhir/us/core/StructureDefinition/us-core-ethnicity",
        "extension": [ {
          "url": "ombCategory",
          "valueCoding": {
            "system": "urn:oid:2.16.840.1.113883.6.238",
            "code": "2186-5",
            "display": "Not Hispanic or Latino",
            "userSelected": true
          }
        }, {
          "url": "text",
          "valueString": "Not Hispanic or Latino"
        } ]
      } ],
      "identifier": [ {
        "type": {
          "coding": [ {
            "system": "http://terminology.hl7.org/CodeSystem/v2-0203",
            "code": "MR"
          } ]
        },
        "system": "https://bonnie-fhir.healthit.gov/",
        "value": "657cbdc9b4f1f0343662347a"
      } ],
      "name": [ {
        "family": "BloodGlucosePass",
        "given": [ "BloodGlucoseAttributes" ]
      } ],
      "gender": "female",
      "birthDate": "2008-01-01"
    },
    "request": {
      "method": "PUT",
      "url": "Patient/4d3218d8-7fc5-4d7f-a1f8-93a3324a18fd"
    }
  }, {
    "fullUrl": "https://madie.cms.gov/Encounter/5ac5a7f8-1561-4191-858c-5b1d4fb8e54a",
    "resource": {
      "resourceType": "Encounter",
      "id": "5ac5a7f8-1561-4191-858c-5b1d4fb8e54a",
      "meta": {
        "profile": [ "http://hl7.org/fhir/us/qicore/StructureDefinition/qicore-encounter" ]
      },
      "status": "finished",
      "class": {
        "system": "http://terminology.hl7.org/CodeSystem/v3-ActCode",
        "code": "ACUTE",
        "display": "inpatient acute"
      },
      "type": [ {
        "coding": [ {
          "system": "http://snomed.info/sct",
          "version": "2024",
          "code": "32485007",
          "display": "Hospital admission (procedure)",
          "userSelected": true
        } ]
      } ],
      "subject": {
        "reference": "Patient/4d3218d8-7fc5-4d7f-a1f8-93a3324a18fd"
      },
      "period": {
        "start": "2026-01-01T08:00:00.000+00:00",
        "end": "2026-01-02T09:15:00.000+00:00"
      }
    },
    "request": {
      "method": "PUT",
      "url": "Encounter/5ac5a7f8-1561-4191-858c-5b1d4fb8e54a"
    }
  }, {
    "fullUrl": "https://madie.cms.gov/Location/5d458efe-700c-4f50-8471-6dcc87fd1745",
    "resource": {
      "resourceType": "Location",
      "id": "5d458efe-700c-4f50-8471-6dcc87fd1745",
      "meta": {
        "profile": [ "http://hl7.org/fhir/us/qicore/StructureDefinition/qicore-location" ]
      },
      "identifier": [ {
        "use": "usual",
        "system": "http://exampleoflocation.com",
        "value": "B1-S.F2"
      } ],
      "name": "Medical Surgical East, first floor",
      "type": [ {
        "coding": [ {
          "system": "https://www.cdc.gov/nhsn/cdaportal/terminology/codesystem/hsloc.html",
          "code": "1028-0",
          "display": "Medical Cardiac Critical Care",
          "userSelected": true
        } ]
      } ]
    },
    "request": {
      "method": "PUT",
      "url": "Location/5d458efe-700c-4f50-8471-6dcc87fd1745"
    }
  }, {
    "fullUrl": "https://madie.cms.gov/MedicationRequest/52afd4fe-09b7-4f0e-ad34-f8390d8682e8",
    "resource": {
      "resourceType": "MedicationRequest",
      "id": "52afd4fe-09b7-4f0e-ad34-f8390d8682e8",
      "meta": {
        "profile": [ "http://hl7.org/fhir/us/qicore/StructureDefinition/qicore-medicationrequest" ]
      },
      "status": "completed",
      "intent": "order",
      "medicationCodeableConcept": {
        "coding": [ {
          "system": "http://www.nlm.nih.gov/research/umls/rxnorm",
          "version": "06052023",
          "code": "1007184"
        } ]
      },
      "subject": {
        "reference": "Patient/4d3218d8-7fc5-4d7f-a1f8-93a3324a18fd"
      },
      "authoredOn": "2026-01-01T08:15:00.000+00:00",
      "requester": {
        "reference": "Practitioner/33d87640-6b2a-40b0-ab11-542478a88d5a"
      },
      "dosageInstruction": [ {
        "timing": {
          "repeat": {
            "boundsPeriod": {
              "start": "2025-01-01T08:15:00.000+00:00"
            }
          }
        }
      } ]
    },
    "request": {
      "method": "PUT",
      "url": "MedicationRequest/52afd4fe-09b7-4f0e-ad34-f8390d8682e8"
    }
  }, {
    "fullUrl": "https://madie.cms.gov/Observation/af1d9f40-69fd-412e-8419-d6d9c4ea3483",
    "resource": {
      "resourceType": "Observation",
      "id": "af1d9f40-69fd-412e-8419-d6d9c4ea3483",
      "meta": {
        "profile": [ "http://hl7.org/fhir/us/qicore/StructureDefinition/qicore-observation-lab" ]
      },
      "text": {
        "status": "generated",
        "div": "<div xmlns=\"http://www.w3.org/1999/xhtml\">text</div>"
      },
      "extension": [ {
        "url": "http://hl7.org/fhir/StructureDefinition/observation-bodyPosition",
        "valueCodeableConcept": {
          "coding": [ {
            "system": "http://snomed.info/sct",
            "code": "33586001",
            "display": "Sitting position (finding)"
          } ]
        }
      } ],
      "basedOn": [ {
        "identifier": {
          "system": "https://acme.org/identifiers",
          "value": "1234"
        }
      } ],
      "partOf": [ {
        "identifier": {
          "system": "https://acme.org/identifiers",
          "value": "1234"
        }
      } ],
      "status": "final",
      "category": [ {
        "coding": [ {
          "system": "http://terminology.hl7.org/CodeSystem/observation-category",
          "code": "laboratory",
          "display": "Laboratory"
        } ],
        "text": "Laboratory"
      } ],
      "code": {
        "coding": [ {
          "system": "http://loinc.org",
          "version": "2.72",
          "code": "2339-0",
          "display": "Glucose [Mass/volume] in Blood",
          "userSelected": true
        } ]
      },
      "subject": {
        "reference": "Patient/4d3218d8-7fc5-4d7f-a1f8-93a3324a18fd",
        "display": "Dr. Good"
      },
      "focus": [ {
        "reference": "Patient/4d3218d8-7fc5-4d7f-a1f8-93a3324a18fd"
      } ],
      "encounter": {
        "reference": "Encounter/5ac5a7f8-1561-4191-858c-5b1d4fb8e54a"
      },
      "effectiveDateTime": "2026-01-01T08:10:00.000+00:00",
      "issued": "2026-01-01T08:10:00.000+00:00",
      "performer": [ {
        "reference": "Organization/622b1723-a0ff-4a44-a4a1-16fb45ae4b08",
        "display": "Hendricks Country Hospital"
      } ],
      "valueQuantity": {
        "value": 179,
        "unit": "mg/dL",
        "system": "http://unitsofmeasure.org",
        "code": "mg/dL"
      },
      "interpretation": [ {
        "coding": [ {
          "system": "http://terminology.hl7.org/CodeSystem/v3-ObservationInterpretation",
          "code": "H",
          "display": "High"
        } ]
      } ],
      "note": [ {
        "text": "Compliants of lighheadedness"
      } ],
      "bodySite": {
        "coding": [ {
          "system": "http://snomed.info/sct",
          "code": "1003698006",
          "display": "Entire finger of left hand (body structure)"
        } ]
      },
      "method": {
        "coding": [ {
          "system": "http://snomed.info/sct",
          "code": "702668005",
          "display": "MDRD"
        } ]
      },
      "specimen": {
        "reference": "Specimen/sst",
        "display": "Serum sample"
      },
      "device": {
        "display": "12 lead EKG Device Metric"
      },
      "referenceRange": [ {
        "text": ">40"
      } ],
      "hasMember": [ {
        "reference": "Observation/85316bbe-6bb6-45bf-a535-2c8c15727555"
      }, {
        "reference": "Observation/85316bbe-6bb6-45bf-a535-2c8c15727555"
      } ],
      "derivedFrom": [ {
        "reference": "QuestionnaireResponse/gcs",
        "display": "GCS form results"
      } ],
      "component": [ {
        "code": {
          "coding": [ {
            "system": "urn:oid:2.16.840.1.113883.6.24",
            "code": "131329",
            "display": "MDC_ECG_ELEC_POTL_I"
          } ]
        }
      } ]
    },
    "request": {
      "method": "PUT",
      "url": "Observation/af1d9f40-69fd-412e-8419-d6d9c4ea3483"
    }
  }, {
    "fullUrl": "https://madie.cms.gov/Observation/85316bbe-6bb6-45bf-a535-2c8c15727555",
    "resource": {
      "resourceType": "Observation",
      "id": "85316bbe-6bb6-45bf-a535-2c8c15727555",
      "meta": {
        "profile": [ "http://hl7.org/fhir/us/qicore/StructureDefinition/qicore-observation-lab" ]
      },
      "status": "final",
      "category": [ {
        "coding": [ {
          "system": "http://terminology.hl7.org/CodeSystem/observation-category",
          "code": "laboratory",
          "display": "Laboratory"
        } ],
        "text": "Laboratory"
      } ],
      "code": {
        "coding": [ {
          "system": "http://loinc.org",
          "version": "2.80",
          "code": "13875-0",
          "display": "Alkaline phosphatase.liver 2 [Enzymatic activity/volume] in Serum or Plasma",
          "userSelected": true
        } ]
      },
      "subject": {
        "reference": "Patient/4d3218d8-7fc5-4d7f-a1f8-93a3324a18fd"
      },
      "effectiveDateTime": "2026-01-01T08:10:00.000+00:00",
      "performer": [ {
        "reference": "Organization/Organization-1"
      } ],
      "valueQuantity": {
        "value": 179,
        "unit": "mg/dL",
        "system": "http://unitsofmeasure.org",
        "code": "mg/dL"
      }
    },
    "request": {
      "method": "PUT",
      "url": "Observation/85316bbe-6bb6-45bf-a535-2c8c15727555"
    }
  }, {
    "fullUrl": "https://madie.cms.gov/Coverage/1005e0ff-066b-41cb-8fbc-2f3495a004eb",
    "resource": {
      "resourceType": "Coverage",
      "id": "1005e0ff-066b-41cb-8fbc-2f3495a004eb",
      "meta": {
        "profile": [ "http://hl7.org/fhir/us/qicore/StructureDefinition/qicore-coverage" ]
      },
      "identifier": [ {
        "system": "http://benefitsinc.com/certificate",
        "value": "12345"
      } ],
      "status": "active",
      "type": {
        "coding": [ {
          "system": "https://nahdo.org/sopt",
          "version": "1.0.1",
          "code": "1",
          "display": "MEDICARE",
          "userSelected": true
        } ]
      },
      "subscriberId": "AB9876",
      "beneficiary": {
        "reference": "Patient/4d3218d8-7fc5-4d7f-a1f8-93a3324a18fd"
      },
      "relationship": {
        "coding": [ {
          "system": "http://terminology.hl7.org/CodeSystem/subscriber-relationship",
          "code": "self"
        } ]
      },
      "payor": [ {
        "reference": "Organization/622b1723-a0ff-4a44-a4a1-16fb45ae4b08"
      } ]
    },
    "request": {
      "method": "PUT",
      "url": "Coverage/1005e0ff-066b-41cb-8fbc-2f3495a004eb"
    }
  }, {
    "fullUrl": "https://madie.cms.gov/Organization/622b1723-a0ff-4a44-a4a1-16fb45ae4b08",
    "resource": {
      "resourceType": "Organization",
      "id": "622b1723-a0ff-4a44-a4a1-16fb45ae4b08",
      "meta": {
        "profile": [ "http://hl7.org/fhir/us/qicore/StructureDefinition/qicore-organization" ]
      },
      "identifier": [ {
        "use": "temp",
        "system": "urn:oid:2.16.840.1.113883.4.4",
        "value": "21-3259825"
      } ],
      "active": true,
      "type": [ {
        "coding": [ {
          "system": "http://terminology.hl7.org/CodeSystem/organization-type",
          "code": "pay",
          "display": "Payer"
        } ]
      } ],
      "name": "Blue Cross Blue Shield of Texas",
      "telecom": [ {
        "system": "phone",
        "value": "(+1) 972-766-6900"
      } ],
      "address": [ {
        "use": "billing",
        "type": "postal",
        "line": [ "P.O. Box 660044" ],
        "city": "Dallas",
        "state": "TX",
        "postalCode": "75266-0044",
        "country": "USA"
      } ]
    },
    "request": {
      "method": "PUT",
      "url": "Organization/622b1723-a0ff-4a44-a4a1-16fb45ae4b08"
    }
  }, {
    "fullUrl": "https://madie.cms.gov/Practitioner/a6ce1f07-e407-4042-b930-bee0b7554a64",
    "resource": {
      "resourceType": "Practitioner",
      "id": "a6ce1f07-e407-4042-b930-bee0b7554a64",
      "meta": {
        "profile": [ "http://hl7.org/fhir/us/qicore/StructureDefinition/qicore-practitioner" ]
      },
      "identifier": [ {
        "system": "http://hl7.org/fhir/sid/us-npi",
        "value": "0723660813"
      } ],
      "name": [ {
        "family": "Good",
        "prefix": [ "Dr" ]
      } ]
    },
    "request": {
      "method": "PUT",
      "url": "Practitioner/a6ce1f07-e407-4042-b930-bee0b7554a64"
    }
  }, {
    "fullUrl": "https://madie.cms.gov/MeasureReport/0e24ad5a-0476-43cd-b180-cb266c9ee4cb",
    "resource": {
      "resourceType": "MeasureReport",
      "id": "0e24ad5a-0476-43cd-b180-cb266c9ee4cb",
      "meta": {
        "profile": [ "http://hl7.org/fhir/us/cqfmeasures/StructureDefinition/test-case-cqfm" ]
      },
      "contained": [ {
        "resourceType": "Parameters",
        "id": "fa38d9f8-1001-4e55-90e1-cc50108ec7da-parameters",
        "parameter": [ {
          "name": "subject",
          "valueString": "4d3218d8-7fc5-4d7f-a1f8-93a3324a18fd"
        } ]
      } ],
      "extension": [ {
        "url": "http://hl7.org/fhir/StructureDefinition/cqf-inputParameters",
        "valueReference": {
          "reference": "#fa38d9f8-1001-4e55-90e1-cc50108ec7da-parameters"
        }
      }, {
        "url": "http://hl7.org/fhir/us/cqfmeasures/StructureDefinition/cqfm-testCaseDescription",
        "valueMarkdown": "Testing blood glucose attributes "
      } ],
      "modifierExtension": [ {
        "url": "http://hl7.org/fhir/us/cqfmeasures/StructureDefinition/cqfm-isTestCase",
        "valueBoolean": true
      } ],
      "status": "complete",
      "type": "individual",
      "measure": "https://madie.cms.gov/Measure/NHSNGlycemicControlHypoglycemiaInitialPopulation",
      "period": {
        "start": "2026-01-01",
        "end": "2026-12-31"
      },
      "group": [ {
        "id": "Group_1",
        "population": [ {
          "id": "InitialPopulation_1",
          "code": {
            "coding": [ {
              "system": "http://terminology.hl7.org/CodeSystem/measure-population",
              "code": "initial-population",
              "display": "Initial Population"
            } ]
          },
          "count": 1
        } ],
        "measureScore": {
          "value": 0.0
        }
      } ],
      "evaluatedResource": [ {
        "reference": "Patient/4d3218d8-7fc5-4d7f-a1f8-93a3324a18fd"
      }, {
        "reference": "Encounter/5ac5a7f8-1561-4191-858c-5b1d4fb8e54a"
      }, {
        "reference": "Location/5d458efe-700c-4f50-8471-6dcc87fd1745"
      }, {
        "reference": "MedicationRequest/52afd4fe-09b7-4f0e-ad34-f8390d8682e8"
      }, {
        "reference": "Observation/af1d9f40-69fd-412e-8419-d6d9c4ea3483"
      }, {
        "reference": "Observation/85316bbe-6bb6-45bf-a535-2c8c15727555"
      }, {
        "reference": "Coverage/1005e0ff-066b-41cb-8fbc-2f3495a004eb"
      }, {
        "reference": "Organization/622b1723-a0ff-4a44-a4a1-16fb45ae4b08"
      }, {
        "reference": "Practitioner/a6ce1f07-e407-4042-b930-bee0b7554a64"
      } ]
    },
    "request": {
      "method": "PUT",
      "url": "MeasureReport/0e24ad5a-0476-43cd-b180-cb266c9ee4cb"
    }
  } ]
}