{
  "resourceType": "Bundle",
  "id": "612e6b5702c62a011f2ed65d",
  "type": "transaction",
  "entry": [ {
    "fullUrl": "https://madie.cms.gov/Patient/d9b7ffa9-ed78-484c-8880-b4cbf2b4b6a1",
    "resource": {
      "resourceType": "Patient",
      "id": "d9b7ffa9-ed78-484c-8880-b4cbf2b4b6a1",
      "meta": {
        "profile": [ "http://hl7.org/fhir/us/qicore/StructureDefinition/qicore-patient" ]
      },
      "text": {
        "status": "generated",
        "div": "<div xmlns=\"http://www.w3.org/1999/xhtml\"><div class=\"hapiHeaderText\">DxVTEClinicalStatusResolved<b>NUMERPASS </b></div><table class=\"hapiPropertyTable\"><tbody><tr><td>Identifier</td><td>53ba7bfa81859444ffcb221a690f5daf</td></tr><tr><td>Date of birth</td><td><span>02 January 1974</span></td></tr></tbody></table></div>"
      },
      "extension": [ {
        "url": "http://hl7.org/fhir/us/core/StructureDefinition/us-core-race",
        "extension": [ {
          "url": "ombCategory",
          "valueCoding": {
            "system": "urn:oid:2.16.840.1.113883.6.238",
            "code": "1002-5",
            "display": "American Indian or Alaska Native",
            "userSelected": true
          }
        }, {
          "url": "text",
          "valueString": "American Indian or Alaska Native"
        } ]
      }, {
        "url": "http://hl7.org/fhir/us/core/StructureDefinition/us-core-ethnicity",
        "extension": [ {
          "url": "ombCategory",
          "valueCoding": {
            "system": "urn:oid:2.16.840.1.113883.6.238",
            "code": "2135-2",
            "display": "Hispanic or Latino",
            "userSelected": true
          }
        }, {
          "url": "text",
          "valueString": "Hispanic or Latino"
        } ]
      } ],
      "identifier": [ {
        "type": {
          "coding": [ {
            "system": "http://terminology.hl7.org/CodeSystem/v2-0203",
            "code": "MR"
          } ]
        },
        "system": "https://bonnie-fhir.healthit.gov/",
        "value": "612e6b5702c62a011f2ed65d"
      } ],
      "active": true,
      "name": [ {
        "use": "usual",
        "family": "NUMERPass",
        "given": [ "DxVTEClinicalStatusResolved" ]
      } ],
      "gender": "male",
      "birthDate": "1975-01-02"
    },
    "request": {
      "method": "PUT",
      "url": "Patient/d9b7ffa9-ed78-484c-8880-b4cbf2b4b6a1"
    }
  }, {
    "fullUrl": "https://madie.cms.gov/Encounter/b13cda57-5927-4cb9-8983-0d6089cdd358",
    "resource": {
      "resourceType": "Encounter",
      "id": "b13cda57-5927-4cb9-8983-0d6089cdd358",
      "meta": {
        "profile": [ "http://hl7.org/fhir/us/qicore/StructureDefinition/qicore-encounter" ]
      },
      "status": "finished",
      "class": {
        "system": "http://terminology.hl7.org/CodeSystem/v3-ActCode",
        "code": "IMP",
        "display": "inpatient encounter"
      },
      "type": [ {
        "coding": [ {
          "system": "http://snomed.info/sct",
          "code": "8715000"
        } ]
      } ],
      "subject": {
        "reference": "Patient/d9b7ffa9-ed78-484c-8880-b4cbf2b4b6a1"
      },
      "period": {
        "start": "2026-11-01T08:00:00.000+00:00",
        "end": "2026-11-26T08:15:00.000+00:00"
      },
      "length": {
        "value": 25,
        "unit": "days"
      }
    },
    "request": {
      "method": "PUT",
      "url": "Encounter/b13cda57-5927-4cb9-8983-0d6089cdd358"
    }
  }, {
    "fullUrl": "https://madie.cms.gov/Coverage/c7f04422-f3f2-43e9-93ba-9ef10608bcac",
    "resource": {
      "resourceType": "Coverage",
      "id": "c7f04422-f3f2-43e9-93ba-9ef10608bcac",
      "status": "active",
      "beneficiary": {
        "reference": "Patient/d9b7ffa9-ed78-484c-8880-b4cbf2b4b6a1"
      },
      "period": {
        "start": "1975-01-02T08:00:00.000+00:00"
      },
      "payor": [ {
        "reference": "Organization/c4fde0ce-f15f-4905-80d1-58c17cba2b39"
      } ]
    },
    "request": {
      "method": "PUT",
      "url": "Coverage/c7f04422-f3f2-43e9-93ba-9ef10608bcac"
    }
  }, {
    "fullUrl": "https://madie.cms.gov/Condition/516891c8-47b6-4e51-82df-54e1aa9a0c6e",
    "resource": {
      "resourceType": "Condition",
      "id": "516891c8-47b6-4e51-82df-54e1aa9a0c6e",
      "meta": {
        "profile": [ "http://hl7.org/fhir/us/qicore/StructureDefinition/qicore-condition-problems-health-concerns" ]
      },
      "clinicalStatus": {
        "coding": [ {
          "system": "http://terminology.hl7.org/CodeSystem/condition-clinical",
          "code": "resolved",
          "display": "resolved",
          "userSelected": true
        } ]
      },
      "verificationStatus": {
        "coding": [ {
          "system": "http://terminology.hl7.org/CodeSystem/condition-ver-status",
          "code": "confirmed",
          "display": "confirmed",
          "userSelected": true
        } ]
      },
      "category": [ {
        "coding": [ {
          "system": "http://terminology.hl7.org/CodeSystem/condition-category",
          "code": "problem-list-item",
          "display": "Problem List Item"
        } ]
      } ],
      "code": {
        "coding": [ {
          "system": "http://snomed.info/sct",
          "code": "1001000119102",
          "display": "Pulmonary embolism with pulmonary"
        } ]
      },
      "subject": {
        "reference": "Patient/d9b7ffa9-ed78-484c-8880-b4cbf2b4b6a1"
      },
      "onsetPeriod": {
        "start": "2026-10-09T08:00:00.000+00:00",
        "end": "2026-10-09T08:15:00.000+00:00"
      }
    },
    "request": {
      "method": "PUT",
      "url": "Condition/516891c8-47b6-4e51-82df-54e1aa9a0c6e"
    }
  }, {
    "fullUrl": "https://madie.cms.gov/MedicationAdministration/4cc7f838-1808-4b4e-b9ac-cf3d85c64ed9",
    "resource": {
      "resourceType": "MedicationAdministration",
      "id": "4cc7f838-1808-4b4e-b9ac-cf3d85c64ed9",
      "meta": {
        "profile": [ "http://hl7.org/fhir/us/qicore/StructureDefinition/qicore-medicationadministration" ]
      },
      "status": "completed",
      "medicationCodeableConcept": {
        "coding": [ {
          "system": "http://www.nlm.nih.gov/research/umls/rxnorm",
          "code": "1599543",
          "display": "edoxaban 15 MG Oral Tablet"
        } ]
      },
      "subject": {
        "reference": "Patient/d9b7ffa9-ed78-484c-8880-b4cbf2b4b6a1"
      },
      "effectivePeriod": {
        "start": "2026-11-01T11:00:00.000+00:00",
        "end": "2026-11-01T11:05:00.000+00:00"
      }
    },
    "request": {
      "method": "PUT",
      "url": "MedicationAdministration/4cc7f838-1808-4b4e-b9ac-cf3d85c64ed9"
    }
  }, {
    "fullUrl": "https://madie.cms.gov/Organization/c4fde0ce-f15f-4905-80d1-58c17cba2b39",
    "resource": {
      "resourceType": "Organization",
      "id": "c4fde0ce-f15f-4905-80d1-58c17cba2b39",
      "meta": {
        "profile": [ "http://hl7.org/fhir/us/qicore/StructureDefinition/qicore-organization" ]
      },
      "identifier": [ {
        "use": "temp",
        "system": "urn:oid:2.16.840.1.113883.4.4",
        "value": "21-3259825"
      } ],
      "active": true,
      "type": [ {
        "coding": [ {
          "system": "http://terminology.hl7.org/CodeSystem/organization-type",
          "code": "pay",
          "display": "Payer"
        } ]
      } ],
      "name": "Blue Cross Blue Shield of Texas",
      "telecom": [ {
        "system": "phone",
        "value": "(+1) 972-766-6900"
      } ],
      "address": [ {
        "use": "billing",
        "type": "postal",
        "line": [ "P.O. Box 660044" ],
        "city": "Dallas",
        "state": "TX",
        "postalCode": "75266-0044",
        "country": "USA"
      } ]
    },
    "request": {
      "method": "PUT",
      "url": "Organization/c4fde0ce-f15f-4905-80d1-58c17cba2b39"
    }
  }, {
    "fullUrl": "https://madie.cms.gov/MeasureReport/43331d8f-cf2d-4a0c-a3a2-e4b8e060a7eb",
    "resource": {
      "resourceType": "MeasureReport",
      "id": "43331d8f-cf2d-4a0c-a3a2-e4b8e060a7eb",
      "meta": {
        "profile": [ "http://hl7.org/fhir/us/cqfmeasures/StructureDefinition/test-case-cqfm" ]
      },
      "contained": [ {
        "resourceType": "Parameters",
        "id": "382eb2d3-523b-4640-93c3-e0d16b810830-parameters",
        "parameter": [ {
          "name": "subject",
          "valueString": "d9b7ffa9-ed78-484c-8880-b4cbf2b4b6a1"
        } ]
      } ],
      "extension": [ {
        "url": "http://hl7.org/fhir/StructureDefinition/cqf-inputParameters",
        "valueReference": {
          "reference": "#382eb2d3-523b-4640-93c3-e0d16b810830-parameters"
        }
      }, {
        "url": "http://hl7.org/fhir/us/cqfmeasures/StructureDefinition/cqfm-testCaseDescription",
        "valueMarkdown": "To test and cover Condition. clinicalStatus  in resolved >18, LOS<120 day. Medication, Administered: Oral Factor Xa Inhibitor for VTE Prophylaxis with diagnosis of  VTE starts before the encounter."
      } ],
      "modifierExtension": [ {
        "url": "http://hl7.org/fhir/us/cqfmeasures/StructureDefinition/cqfm-isTestCase",
        "valueBoolean": true
      } ],
      "status": "complete",
      "type": "individual",
      "measure": "https://madie.cms.gov/Measure/CMS108FHIRVTEProphylaxis",
      "period": {
        "start": "2026-01-01",
        "end": "2026-12-31"
      },
      "group": [ {
        "id": "Group_1",
        "population": [ {
          "id": "InitialPopulation_1",
          "code": {
            "coding": [ {
              "system": "http://terminology.hl7.org/CodeSystem/measure-population",
              "code": "initial-population",
              "display": "Initial Population"
            } ]
          },
          "count": 1
        }, {
          "id": "Denominator_1",
          "code": {
            "coding": [ {
              "system": "http://terminology.hl7.org/CodeSystem/measure-population",
              "code": "denominator",
              "display": "Denominator"
            } ]
          },
          "count": 1
        }, {
          "id": "DenominatorExclusion_1",
          "code": {
            "coding": [ {
              "system": "http://terminology.hl7.org/CodeSystem/measure-population",
              "code": "denominator-exclusion",
              "display": "Denominator Exclusion"
            } ]
          },
          "count": 0
        }, {
          "id": "Numerator_1",
          "code": {
            "coding": [ {
              "system": "http://terminology.hl7.org/CodeSystem/measure-population",
              "code": "numerator",
              "display": "Numerator"
            } ]
          },
          "count": 1
        } ],
        "measureScore": {
          "value": 0.0
        }
      } ],
      "evaluatedResource": [ {
        "reference": "Patient/d9b7ffa9-ed78-484c-8880-b4cbf2b4b6a1"
      }, {
        "reference": "Encounter/b13cda57-5927-4cb9-8983-0d6089cdd358"
      }, {
        "reference": "Coverage/c7f04422-f3f2-43e9-93ba-9ef10608bcac"
      }, {
        "reference": "Condition/516891c8-47b6-4e51-82df-54e1aa9a0c6e"
      }, {
        "reference": "MedicationAdministration/4cc7f838-1808-4b4e-b9ac-cf3d85c64ed9"
      }, {
        "reference": "Organization/c4fde0ce-f15f-4905-80d1-58c17cba2b39"
      } ]
    },
    "request": {
      "method": "PUT",
      "url": "MeasureReport/43331d8f-cf2d-4a0c-a3a2-e4b8e060a7eb"
    }
  } ]
}