{
  "resourceType": "Bundle",
  "id": "612e6a5902c62a011f2e9c30",
  "type": "transaction",
  "entry": [ {
    "fullUrl": "https://madie.cms.gov/Patient/5da7c3c7-9663-47f5-90b8-b1e754127a6f",
    "resource": {
      "resourceType": "Patient",
      "id": "5da7c3c7-9663-47f5-90b8-b1e754127a6f",
      "meta": {
        "profile": [ "http://hl7.org/fhir/us/qicore/StructureDefinition/qicore-patient" ]
      },
      "text": {
        "status": "generated",
        "div": "<div xmlns=\"http://www.w3.org/1999/xhtml\"><div class=\"hapiHeaderText\">DA_IPC_DayOfAnes_ProcRvltDT <b>NUMERPASS </b></div><table class=\"hapiPropertyTable\"><tbody><tr><td>Identifier</td><td>1961fbe2390b043fd8bdab11cc421834</td></tr><tr><td>Date of birth</td><td><span>02 January 1974</span></td></tr></tbody></table></div>"
      },
      "extension": [ {
        "url": "http://hl7.org/fhir/us/core/StructureDefinition/us-core-race",
        "extension": [ {
          "url": "ombCategory",
          "valueCoding": {
            "system": "urn:oid:2.16.840.1.113883.6.238",
            "code": "1002-5",
            "display": "American Indian or Alaska Native",
            "userSelected": true
          }
        }, {
          "url": "text",
          "valueString": "American Indian or Alaska Native"
        } ]
      }, {
        "url": "http://hl7.org/fhir/us/core/StructureDefinition/us-core-ethnicity",
        "extension": [ {
          "url": "ombCategory",
          "valueCoding": {
            "system": "urn:oid:2.16.840.1.113883.6.238",
            "code": "2135-2",
            "display": "Hispanic or Latino",
            "userSelected": true
          }
        }, {
          "url": "text",
          "valueString": "Hispanic or Latino"
        } ]
      } ],
      "identifier": [ {
        "type": {
          "coding": [ {
            "system": "http://terminology.hl7.org/CodeSystem/v2-0203",
            "code": "MR"
          } ]
        },
        "system": "https://bonnie-fhir.healthit.gov/",
        "value": "612e6a5902c62a011f2e9c30"
      } ],
      "active": true,
      "name": [ {
        "use": "usual",
        "family": "NUMERPass",
        "given": [ "DAIPCDayOfAnesProcRvltDT" ]
      } ],
      "gender": "male",
      "birthDate": "1975-01-02"
    },
    "request": {
      "method": "PUT",
      "url": "Patient/5da7c3c7-9663-47f5-90b8-b1e754127a6f"
    }
  }, {
    "fullUrl": "https://madie.cms.gov/Encounter/9a841c89-dfb8-4f26-b316-691ab5a7dcc9",
    "resource": {
      "resourceType": "Encounter",
      "id": "9a841c89-dfb8-4f26-b316-691ab5a7dcc9",
      "meta": {
        "profile": [ "http://hl7.org/fhir/us/qicore/StructureDefinition/qicore-encounter" ]
      },
      "status": "finished",
      "class": {
        "system": "http://terminology.hl7.org/CodeSystem/v3-ActCode",
        "code": "IMP",
        "display": "inpatient encounter"
      },
      "type": [ {
        "coding": [ {
          "system": "http://snomed.info/sct",
          "code": "8715000"
        } ]
      } ],
      "subject": {
        "reference": "Patient/5da7c3c7-9663-47f5-90b8-b1e754127a6f"
      },
      "period": {
        "start": "2026-11-01T08:00:00.000+00:00",
        "end": "2026-11-26T08:15:00.000+00:00"
      },
      "length": {
        "value": 25,
        "unit": "days"
      }
    },
    "request": {
      "method": "PUT",
      "url": "Encounter/9a841c89-dfb8-4f26-b316-691ab5a7dcc9"
    }
  }, {
    "fullUrl": "https://madie.cms.gov/Coverage/33ff9397-7446-4289-8e62-58f38f4de1ad",
    "resource": {
      "resourceType": "Coverage",
      "id": "33ff9397-7446-4289-8e62-58f38f4de1ad",
      "status": "active",
      "beneficiary": {
        "reference": "Patient/5da7c3c7-9663-47f5-90b8-b1e754127a6f"
      },
      "period": {
        "start": "1975-01-02T08:00:00.000+00:00"
      },
      "payor": [ {
        "reference": "Organization/82a3aa2e-43b7-487f-a09f-4e51bb176251"
      } ]
    },
    "request": {
      "method": "PUT",
      "url": "Coverage/33ff9397-7446-4289-8e62-58f38f4de1ad"
    }
  }, {
    "fullUrl": "https://madie.cms.gov/Procedure/5d2a9f0d-8715-4e89-a64d-d94d90172ad8",
    "resource": {
      "resourceType": "Procedure",
      "id": "5d2a9f0d-8715-4e89-a64d-d94d90172ad8",
      "meta": {
        "profile": [ "http://hl7.org/fhir/us/qicore/StructureDefinition/qicore-procedure" ]
      },
      "extension": [ {
        "url": "http://hl7.org/fhir/us/qicore/StructureDefinition/qicore-recorded",
        "valueDateTime": "2013-11-02T13:35:00.000+00:00"
      } ],
      "status": "completed",
      "code": {
        "coding": [ {
          "system": "http://snomed.info/sct",
          "code": "443448006",
          "display": "Application of intermittent pneumatic compression device (procedure)"
        } ]
      },
      "subject": {
        "reference": "Patient/5da7c3c7-9663-47f5-90b8-b1e754127a6f"
      },
      "performedDateTime": "2026-11-01T11:00:00.000+00:00"
    },
    "request": {
      "method": "PUT",
      "url": "Procedure/5d2a9f0d-8715-4e89-a64d-d94d90172ad8"
    }
  }, {
    "fullUrl": "https://madie.cms.gov/Procedure/19255840-fa2c-4f96-8679-87c7a8657f74",
    "resource": {
      "resourceType": "Procedure",
      "id": "19255840-fa2c-4f96-8679-87c7a8657f74",
      "meta": {
        "profile": [ "http://hl7.org/fhir/us/qicore/StructureDefinition/qicore-procedure" ]
      },
      "extension": [ {
        "url": "http://hl7.org/fhir/us/qicore/StructureDefinition/qicore-recorded",
        "valueDateTime": "2013-11-02T13:35:00.000+00:00"
      } ],
      "status": "completed",
      "code": {
        "coding": [ {
          "system": "http://snomed.info/sct",
          "code": "18946005"
        } ]
      },
      "subject": {
        "reference": "Patient/5da7c3c7-9663-47f5-90b8-b1e754127a6f"
      },
      "performedPeriod": {
        "start": "2026-11-01T09:00:00.000+00:00",
        "end": "2026-11-01T09:15:00.000+00:00"
      }
    },
    "request": {
      "method": "PUT",
      "url": "Procedure/19255840-fa2c-4f96-8679-87c7a8657f74"
    }
  }, {
    "fullUrl": "https://madie.cms.gov/Procedure/e2736e30-61d9-42af-9262-336dec90199e",
    "resource": {
      "resourceType": "Procedure",
      "id": "e2736e30-61d9-42af-9262-336dec90199e",
      "status": "completed",
      "code": {
        "coding": [ {
          "system": "http://snomed.info/sct",
          "version": "2025-03",
          "code": "360030002",
          "display": "Application of device (procedure)",
          "userSelected": true
        } ]
      },
      "subject": {
        "reference": "Patient/5da7c3c7-9663-47f5-90b8-b1e754127a6f"
      },
      "performedDateTime": "2026-11-01T11:00:00.000+00:00",
      "usedCode": [ {
        "coding": [ {
          "system": "http://snomed.info/sct",
          "code": "428411000124104",
          "display": "Intermittent pneumatic compression boot (physical object)",
          "userSelected": true
        } ]
      } ]
    },
    "request": {
      "method": "PUT",
      "url": "Procedure/e2736e30-61d9-42af-9262-336dec90199e"
    }
  }, {
    "fullUrl": "https://madie.cms.gov/Organization/82a3aa2e-43b7-487f-a09f-4e51bb176251",
    "resource": {
      "resourceType": "Organization",
      "id": "82a3aa2e-43b7-487f-a09f-4e51bb176251",
      "meta": {
        "profile": [ "http://hl7.org/fhir/us/qicore/StructureDefinition/qicore-organization" ]
      },
      "identifier": [ {
        "use": "temp",
        "system": "urn:oid:2.16.840.1.113883.4.4",
        "value": "21-3259825"
      } ],
      "active": true,
      "type": [ {
        "coding": [ {
          "system": "http://terminology.hl7.org/CodeSystem/organization-type",
          "code": "pay",
          "display": "Payer"
        } ]
      } ],
      "name": "Blue Cross Blue Shield of Texas",
      "telecom": [ {
        "system": "phone",
        "value": "(+1) 972-766-6900"
      } ],
      "address": [ {
        "use": "billing",
        "type": "postal",
        "line": [ "P.O. Box 660044" ],
        "city": "Dallas",
        "state": "TX",
        "postalCode": "75266-0044",
        "country": "USA"
      } ]
    },
    "request": {
      "method": "PUT",
      "url": "Organization/82a3aa2e-43b7-487f-a09f-4e51bb176251"
    }
  }, {
    "fullUrl": "https://madie.cms.gov/Practitioner/311d5d11-7530-41f4-8e78-447bbbf64869",
    "resource": {
      "resourceType": "Practitioner",
      "id": "311d5d11-7530-41f4-8e78-447bbbf64869",
      "identifier": [ {
        "system": "http://hl7.org/fhir/sid/us-npi",
        "value": "123456"
      } ],
      "name": [ {
        "family": "Evil",
        "prefix": [ "Dr" ]
      } ]
    },
    "request": {
      "method": "PUT",
      "url": "Practitioner/311d5d11-7530-41f4-8e78-447bbbf64869"
    }
  }, {
    "fullUrl": "https://madie.cms.gov/MeasureReport/0deb9982-fecb-45b3-bb77-2d44d4d9b3bc",
    "resource": {
      "resourceType": "MeasureReport",
      "id": "0deb9982-fecb-45b3-bb77-2d44d4d9b3bc",
      "meta": {
        "profile": [ "http://hl7.org/fhir/us/cqfmeasures/StructureDefinition/test-case-cqfm" ]
      },
      "contained": [ {
        "resourceType": "Parameters",
        "id": "9de51fe2-8722-47ae-b9ba-82bdb2b05830-parameters",
        "parameter": [ {
          "name": "subject",
          "valueString": "5da7c3c7-9663-47f5-90b8-b1e754127a6f"
        } ]
      } ],
      "extension": [ {
        "url": "http://hl7.org/fhir/StructureDefinition/cqf-inputParameters",
        "valueReference": {
          "reference": "#9de51fe2-8722-47ae-b9ba-82bdb2b05830-parameters"
        }
      }, {
        "url": "http://hl7.org/fhir/us/cqfmeasures/StructureDefinition/cqfm-testCaseDescription",
        "valueMarkdown": "IPC =0 day after end of anesthesia\n"
      } ],
      "modifierExtension": [ {
        "url": "http://hl7.org/fhir/us/cqfmeasures/StructureDefinition/cqfm-isTestCase",
        "valueBoolean": true
      } ],
      "status": "complete",
      "type": "individual",
      "measure": "https://madie.cms.gov/Measure/CMS108FHIRVTEProphylaxis",
      "period": {
        "start": "2026-01-01",
        "end": "2026-12-31"
      },
      "group": [ {
        "id": "Group_1",
        "population": [ {
          "id": "InitialPopulation_1",
          "code": {
            "coding": [ {
              "system": "http://terminology.hl7.org/CodeSystem/measure-population",
              "code": "initial-population",
              "display": "Initial Population"
            } ]
          },
          "count": 1
        }, {
          "id": "Denominator_1",
          "code": {
            "coding": [ {
              "system": "http://terminology.hl7.org/CodeSystem/measure-population",
              "code": "denominator",
              "display": "Denominator"
            } ]
          },
          "count": 1
        }, {
          "id": "DenominatorExclusion_1",
          "code": {
            "coding": [ {
              "system": "http://terminology.hl7.org/CodeSystem/measure-population",
              "code": "denominator-exclusion",
              "display": "Denominator Exclusion"
            } ]
          },
          "count": 0
        }, {
          "id": "Numerator_1",
          "code": {
            "coding": [ {
              "system": "http://terminology.hl7.org/CodeSystem/measure-population",
              "code": "numerator",
              "display": "Numerator"
            } ]
          },
          "count": 1
        } ],
        "measureScore": {
          "value": 0.0
        }
      } ],
      "evaluatedResource": [ {
        "reference": "Patient/5da7c3c7-9663-47f5-90b8-b1e754127a6f"
      }, {
        "reference": "Encounter/9a841c89-dfb8-4f26-b316-691ab5a7dcc9"
      }, {
        "reference": "Coverage/33ff9397-7446-4289-8e62-58f38f4de1ad"
      }, {
        "reference": "Procedure/5d2a9f0d-8715-4e89-a64d-d94d90172ad8"
      }, {
        "reference": "Procedure/19255840-fa2c-4f96-8679-87c7a8657f74"
      }, {
        "reference": "Procedure/e2736e30-61d9-42af-9262-336dec90199e"
      }, {
        "reference": "Organization/82a3aa2e-43b7-487f-a09f-4e51bb176251"
      }, {
        "reference": "Practitioner/311d5d11-7530-41f4-8e78-447bbbf64869"
      } ]
    },
    "request": {
      "method": "PUT",
      "url": "MeasureReport/0deb9982-fecb-45b3-bb77-2d44d4d9b3bc"
    }
  } ]
}