{
  "resourceType": "Bundle",
  "id": "63487c300968f801225401c4",
  "type": "transaction",
  "entry": [ {
    "fullUrl": "https://madie.cms.gov/Patient/a3cccc2f-32e4-4f57-8a87-de26273ae162",
    "resource": {
      "resourceType": "Patient",
      "id": "a3cccc2f-32e4-4f57-8a87-de26273ae162",
      "meta": {
        "profile": [ "http://hl7.org/fhir/us/qicore/StructureDefinition/qicore-patient" ]
      },
      "text": {
        "status": "generated",
        "div": "<div xmlns=\"http://www.w3.org/1999/xhtml\"><div class=\"hapiHeaderText\">AssessTimeOfDelivResultEQDelivEncStart <b>DENPASS </b></div><table class=\"hapiPropertyTable\"><tbody><tr><td>Identifier</td><td>71189d70ba3427612f2a418107466ed1652ec9a0e76c1b9c30a1691a1d91b34c</td></tr><tr><td>Date of birth</td><td><span>14 February 1985</span></td></tr></tbody></table></div>"
      },
      "extension": [ {
        "url": "http://hl7.org/fhir/us/core/StructureDefinition/us-core-race",
        "extension": [ {
          "url": "ombCategory",
          "valueCoding": {
            "system": "urn:oid:2.16.840.1.113883.6.238",
            "code": "1002-5",
            "display": "American Indian or Alaska Native",
            "userSelected": true
          }
        }, {
          "url": "text",
          "valueString": "American Indian or Alaska Native"
        } ]
      }, {
        "url": "http://hl7.org/fhir/us/core/StructureDefinition/us-core-ethnicity",
        "extension": [ {
          "url": "ombCategory",
          "valueCoding": {
            "system": "urn:oid:2.16.840.1.113883.6.238",
            "code": "2135-2",
            "display": "Hispanic or Latino",
            "userSelected": true
          }
        }, {
          "url": "text",
          "valueString": "Hispanic or Latino"
        } ]
      } ],
      "identifier": [ {
        "type": {
          "coding": [ {
            "system": "http://terminology.hl7.org/CodeSystem/v2-0203",
            "code": "MR"
          } ]
        },
        "system": "https://bonnie-fhir.healthit.gov/",
        "value": "63487c300968f801225401c4"
      } ],
      "active": true,
      "name": [ {
        "use": "usual",
        "family": "DENPass",
        "given": [ "AssessTimeOfDelivResultEQDelivEncStart " ]
      } ],
      "gender": "female",
      "birthDate": "1998-02-14"
    },
    "request": {
      "method": "PUT",
      "url": "Patient/a3cccc2f-32e4-4f57-8a87-de26273ae162"
    }
  }, {
    "fullUrl": "https://madie.cms.gov/Observation/587def67-861d-4dea-8225-eff120aeb3b4",
    "resource": {
      "resourceType": "Observation",
      "id": "587def67-861d-4dea-8225-eff120aeb3b4",
      "meta": {
        "profile": [ "http://hl7.org/fhir/us/qicore/StructureDefinition/qicore-simple-observation" ]
      },
      "status": "final",
      "category": [ {
        "coding": [ {
          "system": "http://terminology.hl7.org/CodeSystem/observation-category",
          "code": "exam",
          "display": "exam",
          "userSelected": true
        } ]
      } ],
      "code": {
        "coding": [ {
          "system": "http://loinc.org",
          "code": "11996-6"
        } ]
      },
      "subject": {
        "reference": "Patient/a3cccc2f-32e4-4f57-8a87-de26273ae162"
      },
      "effectiveDateTime": "2026-02-09T08:00:00.000+00:00",
      "valueInteger": 1
    },
    "request": {
      "method": "PUT",
      "url": "Observation/587def67-861d-4dea-8225-eff120aeb3b4"
    }
  }, {
    "fullUrl": "https://madie.cms.gov/Observation/9650c650-6f35-4968-bd9d-4325eb88fa69",
    "resource": {
      "resourceType": "Observation",
      "id": "9650c650-6f35-4968-bd9d-4325eb88fa69",
      "meta": {
        "profile": [ "http://hl7.org/fhir/us/qicore/StructureDefinition/qicore-simple-observation" ]
      },
      "status": "final",
      "category": [ {
        "coding": [ {
          "system": "http://terminology.hl7.org/CodeSystem/observation-category",
          "code": "exam",
          "display": "exam",
          "userSelected": true
        } ]
      } ],
      "code": {
        "coding": [ {
          "system": "http://loinc.org",
          "code": "11884-4"
        } ]
      },
      "subject": {
        "reference": "Patient/a3cccc2f-32e4-4f57-8a87-de26273ae162"
      },
      "effectiveDateTime": "2026-11-28T08:00:00.000+00:00",
      "valueQuantity": {
        "value": 40,
        "system": "http://unitsofmeasure.org",
        "code": "wk"
      }
    },
    "request": {
      "method": "PUT",
      "url": "Observation/9650c650-6f35-4968-bd9d-4325eb88fa69"
    }
  }, {
    "fullUrl": "https://madie.cms.gov/Observation/b7abb1b6-b8a9-4c88-98fc-0cf17ca1ba75",
    "resource": {
      "resourceType": "Observation",
      "id": "b7abb1b6-b8a9-4c88-98fc-0cf17ca1ba75",
      "meta": {
        "profile": [ "http://hl7.org/fhir/us/qicore/StructureDefinition/qicore-simple-observation" ]
      },
      "status": "final",
      "category": [ {
        "coding": [ {
          "system": "http://terminology.hl7.org/CodeSystem/observation-category",
          "code": "exam",
          "display": "exam",
          "userSelected": true
        } ]
      } ],
      "code": {
        "coding": [ {
          "system": "http://loinc.org",
          "code": "93857-1"
        } ]
      },
      "subject": {
        "reference": "Patient/a3cccc2f-32e4-4f57-8a87-de26273ae162"
      },
      "effectiveDateTime": "2026-11-28T21:30:00.000+00:00",
      "valueDateTime": "2026-11-28T08:00:00.000+00:00"
    },
    "request": {
      "method": "PUT",
      "url": "Observation/b7abb1b6-b8a9-4c88-98fc-0cf17ca1ba75"
    }
  }, {
    "fullUrl": "https://madie.cms.gov/Encounter/a4464bbb-a9a9-4654-aa40-8dacd3534cee",
    "resource": {
      "resourceType": "Encounter",
      "id": "a4464bbb-a9a9-4654-aa40-8dacd3534cee",
      "meta": {
        "profile": [ "http://hl7.org/fhir/us/qicore/StructureDefinition/qicore-encounter" ]
      },
      "status": "finished",
      "class": {
        "system": "http://terminology.hl7.org/CodeSystem/v3-ActCode",
        "code": "IMP",
        "display": "inpatient encounter"
      },
      "type": [ {
        "coding": [ {
          "system": "http://snomed.info/sct",
          "code": "8715000"
        } ]
      } ],
      "subject": {
        "reference": "Patient/a3cccc2f-32e4-4f57-8a87-de26273ae162"
      },
      "period": {
        "start": "2026-11-28T08:00:00.000+00:00",
        "end": "2026-11-30T08:15:00.000+00:00"
      },
      "length": {
        "value": 2,
        "unit": "days"
      },
      "reasonReference": [ {
        "reference": "Condition/20b6f49a-883d-413f-9265-ca37323b6f67"
      } ]
    },
    "request": {
      "method": "PUT",
      "url": "Encounter/a4464bbb-a9a9-4654-aa40-8dacd3534cee"
    }
  }, {
    "fullUrl": "https://madie.cms.gov/Coverage/5f5f9e551c76ba674bb033ee",
    "resource": {
      "resourceType": "Coverage",
      "id": "5f5f9e551c76ba674bb033ee",
      "meta": {
        "profile": [ "http://hl7.org/fhir/us/qicore/StructureDefinition/qicore-coverage" ]
      },
      "status": "active",
      "subscriberId": "523435",
      "beneficiary": {
        "reference": "Patient/a3cccc2f-32e4-4f57-8a87-de26273ae162"
      },
      "relationship": {
        "coding": [ {
          "system": "http://terminology.hl7.org/CodeSystem/subscriber-relationship",
          "code": "self"
        } ]
      },
      "period": {
        "start": "1986-02-14T08:00:00.000+00:00"
      },
      "payor": [ {
        "reference": "Organization/93a37cc8-0929-4829-9fb2-299dd9db772b"
      } ]
    },
    "request": {
      "method": "PUT",
      "url": "Coverage/5f5f9e551c76ba674bb033ee"
    }
  }, {
    "fullUrl": "https://madie.cms.gov/Procedure/10415082-d2d6-4b93-9115-8abaa2b0fb8b",
    "resource": {
      "resourceType": "Procedure",
      "id": "10415082-d2d6-4b93-9115-8abaa2b0fb8b",
      "meta": {
        "profile": [ "http://hl7.org/fhir/us/qicore/StructureDefinition/qicore-procedure" ]
      },
      "extension": [ {
        "url": "http://hl7.org/fhir/us/qicore/StructureDefinition/qicore-recorded",
        "valueDateTime": "2014-04-05T13:35:00.000+00:00"
      } ],
      "status": "completed",
      "code": {
        "coding": [ {
          "system": "http://snomed.info/sct",
          "code": "22633006"
        } ]
      },
      "subject": {
        "reference": "Patient/a3cccc2f-32e4-4f57-8a87-de26273ae162"
      },
      "performedPeriod": {
        "start": "2026-11-28T20:00:00.000+00:00",
        "end": "2026-11-28T20:15:00.000+00:00"
      }
    },
    "request": {
      "method": "PUT",
      "url": "Procedure/10415082-d2d6-4b93-9115-8abaa2b0fb8b"
    }
  }, {
    "fullUrl": "https://madie.cms.gov/Condition/20b6f49a-883d-413f-9265-ca37323b6f67",
    "resource": {
      "resourceType": "Condition",
      "id": "20b6f49a-883d-413f-9265-ca37323b6f67",
      "meta": {
        "profile": [ "http://hl7.org/fhir/us/qicore/StructureDefinition/qicore-condition-encounter-diagnosis" ]
      },
      "category": [ {
        "coding": [ {
          "system": "http://terminology.hl7.org/CodeSystem/condition-category",
          "code": "encounter-diagnosis",
          "display": "Encounter Diagnosis"
        } ]
      } ],
      "code": {
        "coding": [ {
          "system": "http://snomed.info/sct",
          "version": "2022-09",
          "code": "169826009",
          "display": "Single live birth from singleton pregnancy (finding)",
          "userSelected": true
        } ]
      },
      "subject": {
        "reference": "Patient/a3cccc2f-32e4-4f57-8a87-de26273ae162"
      },
      "encounter": {
        "reference": "Encounter/a4464bbb-a9a9-4654-aa40-8dacd3534cee"
      },
      "recordedDate": "2026-10-20T08:00:00.000+00:00"
    },
    "request": {
      "method": "PUT",
      "url": "Condition/20b6f49a-883d-413f-9265-ca37323b6f67"
    }
  }, {
    "fullUrl": "https://madie.cms.gov/Organization/93a37cc8-0929-4829-9fb2-299dd9db772b",
    "resource": {
      "resourceType": "Organization",
      "id": "93a37cc8-0929-4829-9fb2-299dd9db772b",
      "meta": {
        "profile": [ "http://hl7.org/fhir/us/qicore/StructureDefinition/qicore-organization" ]
      },
      "identifier": [ {
        "use": "temp",
        "system": "urn:oid:2.16.840.1.113883.4.4",
        "value": "21-3259825"
      } ],
      "active": true,
      "type": [ {
        "coding": [ {
          "system": "http://terminology.hl7.org/CodeSystem/organization-type",
          "code": "pay",
          "display": "Payer"
        } ]
      } ],
      "name": "Blue Cross Blue Shield of Texas",
      "telecom": [ {
        "system": "phone",
        "value": "(+1) 972-766-6900"
      } ],
      "address": [ {
        "use": "billing",
        "type": "postal",
        "line": [ "P.O. Box 660044" ],
        "city": "Dallas",
        "state": "TX",
        "postalCode": "75266-0044",
        "country": "USA"
      } ]
    },
    "request": {
      "method": "PUT",
      "url": "Organization/93a37cc8-0929-4829-9fb2-299dd9db772b"
    }
  }, {
    "fullUrl": "https://madie.cms.gov/Practitioner/9d787f84-5723-4203-856c-ca1d20b4fd5c",
    "resource": {
      "resourceType": "Practitioner",
      "id": "9d787f84-5723-4203-856c-ca1d20b4fd5c",
      "meta": {
        "profile": [ "http://hl7.org/fhir/us/qicore/StructureDefinition/qicore-practitioner" ]
      },
      "identifier": [ {
        "system": "http://hl7.org/fhir/sid/us-npi",
        "value": "1234567890"
      } ],
      "name": [ {
        "family": "Evil",
        "prefix": [ "Dr" ]
      } ]
    },
    "request": {
      "method": "PUT",
      "url": "Practitioner/9d787f84-5723-4203-856c-ca1d20b4fd5c"
    }
  }, {
    "fullUrl": "https://madie.cms.gov/MeasureReport/80bbd0b9-1964-4459-96b2-3e96725e5196",
    "resource": {
      "resourceType": "MeasureReport",
      "id": "80bbd0b9-1964-4459-96b2-3e96725e5196",
      "meta": {
        "profile": [ "http://hl7.org/fhir/us/cqfmeasures/StructureDefinition/test-case-cqfm" ]
      },
      "contained": [ {
        "resourceType": "Parameters",
        "id": "72c6d315-118e-438d-8645-7f7c8fe18838-parameters",
        "parameter": [ {
          "name": "subject",
          "valueString": "a3cccc2f-32e4-4f57-8a87-de26273ae162"
        } ]
      } ],
      "extension": [ {
        "url": "http://hl7.org/fhir/StructureDefinition/cqf-inputParameters",
        "valueReference": {
          "reference": "#72c6d315-118e-438d-8645-7f7c8fe18838-parameters"
        }
      }, {
        "url": "http://hl7.org/fhir/us/cqfmeasures/StructureDefinition/cqfm-testCaseDescription",
        "valueMarkdown": "Passes IP, Passes DENOM but fails NUM; Gravida 1(auth 42 weeks)  and EGA 40 weeks;  Proc is not Cesarean Birth. LastTimeOfDelivery result equals Delivery Encounter Start Time.   \n"
      } ],
      "modifierExtension": [ {
        "url": "http://hl7.org/fhir/us/cqfmeasures/StructureDefinition/cqfm-isTestCase",
        "valueBoolean": true
      } ],
      "status": "complete",
      "type": "individual",
      "measure": "https://madie.cms.gov/Measure/CMS0334FHIRPCCesareanBirth",
      "period": {
        "start": "2026-01-01",
        "end": "2026-12-31"
      },
      "group": [ {
        "id": "Group_1",
        "population": [ {
          "id": "InitialPopulation_1",
          "code": {
            "coding": [ {
              "system": "http://terminology.hl7.org/CodeSystem/measure-population",
              "code": "initial-population",
              "display": "Initial Population"
            } ]
          },
          "count": 1
        }, {
          "id": "Denominator_1",
          "code": {
            "coding": [ {
              "system": "http://terminology.hl7.org/CodeSystem/measure-population",
              "code": "denominator",
              "display": "Denominator"
            } ]
          },
          "count": 1
        }, {
          "id": "DenominatorExclusion_1",
          "code": {
            "coding": [ {
              "system": "http://terminology.hl7.org/CodeSystem/measure-population",
              "code": "denominator-exclusion",
              "display": "Denominator Exclusion"
            } ]
          },
          "count": 0
        }, {
          "id": "Numerator_1",
          "code": {
            "coding": [ {
              "system": "http://terminology.hl7.org/CodeSystem/measure-population",
              "code": "numerator",
              "display": "Numerator"
            } ]
          },
          "count": 0
        } ],
        "measureScore": {
          "value": 0.0
        }
      } ],
      "evaluatedResource": [ {
        "reference": "Patient/a3cccc2f-32e4-4f57-8a87-de26273ae162"
      }, {
        "reference": "Observation/587def67-861d-4dea-8225-eff120aeb3b4"
      }, {
        "reference": "Observation/9650c650-6f35-4968-bd9d-4325eb88fa69"
      }, {
        "reference": "Observation/b7abb1b6-b8a9-4c88-98fc-0cf17ca1ba75"
      }, {
        "reference": "Encounter/a4464bbb-a9a9-4654-aa40-8dacd3534cee"
      }, {
        "reference": "Coverage/5f5f9e551c76ba674bb033ee"
      }, {
        "reference": "Procedure/10415082-d2d6-4b93-9115-8abaa2b0fb8b"
      }, {
        "reference": "Condition/20b6f49a-883d-413f-9265-ca37323b6f67"
      }, {
        "reference": "Organization/93a37cc8-0929-4829-9fb2-299dd9db772b"
      }, {
        "reference": "Practitioner/9d787f84-5723-4203-856c-ca1d20b4fd5c"
      } ]
    },
    "request": {
      "method": "PUT",
      "url": "MeasureReport/80bbd0b9-1964-4459-96b2-3e96725e5196"
    }
  } ]
}