{
  "resourceType": "Bundle",
  "id": "63233350414ba67d4e1d1c2f",
  "type": "transaction",
  "entry": [ {
    "fullUrl": "https://madie.cms.gov/Patient/59c3a231-ef45-424a-89f7-8e9e8b037633",
    "resource": {
      "resourceType": "Patient",
      "id": "59c3a231-ef45-424a-89f7-8e9e8b037633",
      "meta": {
        "profile": [ "http://hl7.org/fhir/us/qicore/StructureDefinition/qicore-patient" ]
      },
      "extension": [ {
        "url": "http://hl7.org/fhir/us/core/StructureDefinition/us-core-race",
        "extension": [ {
          "url": "ombCategory",
          "valueCoding": {
            "system": "urn:oid:2.16.840.1.113883.6.238",
            "code": "2028-9",
            "display": "Asian",
            "userSelected": true
          }
        }, {
          "url": "text",
          "valueString": "Asian"
        } ]
      }, {
        "url": "http://hl7.org/fhir/us/core/StructureDefinition/us-core-ethnicity",
        "extension": [ {
          "url": "ombCategory",
          "valueCoding": {
            "system": "urn:oid:2.16.840.1.113883.6.238",
            "code": "2186-5",
            "display": "Not Hispanic or Latino",
            "userSelected": true
          }
        }, {
          "url": "text",
          "valueString": "Not Hispanic or Latino"
        } ]
      } ],
      "identifier": [ {
        "system": "http://hospital.smarthealthit.org",
        "value": "999999999"
      } ],
      "name": [ {
        "family": "DENEXPass",
        "given": [ "CancerEncounterDx" ]
      } ],
      "gender": "female",
      "birthDate": "1944-02-01"
    },
    "request": {
      "method": "PUT",
      "url": "Patient/59c3a231-ef45-424a-89f7-8e9e8b037633"
    }
  }, {
    "fullUrl": "https://madie.cms.gov/Encounter/fbda5d35-4837-4c0c-a990-ddc8d7bbdc4e",
    "resource": {
      "resourceType": "Encounter",
      "id": "fbda5d35-4837-4c0c-a990-ddc8d7bbdc4e",
      "meta": {
        "profile": [ "http://hl7.org/fhir/us/qicore/StructureDefinition/qicore-encounter" ]
      },
      "status": "finished",
      "class": {
        "system": "http://terminology.hl7.org/CodeSystem/v3-ActCode",
        "code": "IMP",
        "display": "inpatient encounter"
      },
      "type": [ {
        "coding": [ {
          "system": "http://snomed.info/sct",
          "code": "183452005",
          "display": "Emergency hospital admission (procedure)",
          "userSelected": true
        } ]
      } ],
      "subject": {
        "reference": "Patient/59c3a231-ef45-424a-89f7-8e9e8b037633"
      },
      "period": {
        "start": "2026-01-01T23:59:00.000+00:00",
        "end": "2026-01-03T23:59:00.000+00:00"
      },
      "reasonCode": [ {
        "coding": [ {
          "system": "http://snomed.info/sct",
          "code": "735935009",
          "display": "Chronic pain due to malignant neoplastic disease (finding)"
        } ]
      } ]
    },
    "request": {
      "method": "PUT",
      "url": "Encounter/fbda5d35-4837-4c0c-a990-ddc8d7bbdc4e"
    }
  }, {
    "fullUrl": "https://madie.cms.gov/MedicationRequest/ef0f13d9-3085-4186-b97c-6055b455e77b",
    "resource": {
      "resourceType": "MedicationRequest",
      "id": "ef0f13d9-3085-4186-b97c-6055b455e77b",
      "meta": {
        "profile": [ "http://hl7.org/fhir/us/qicore/StructureDefinition/qicore-medicationrequest" ]
      },
      "status": "active",
      "intent": "order",
      "category": [ {
        "coding": [ {
          "system": "http://terminology.hl7.org/CodeSystem/medicationrequest-category",
          "code": "discharge",
          "display": "Discharge",
          "userSelected": true
        } ]
      } ],
      "doNotPerform": false,
      "medicationCodeableConcept": {
        "coding": [ {
          "system": "http://www.nlm.nih.gov/research/umls/rxnorm",
          "code": "2103192",
          "display": "sufentanil 0.03 MG Sublingual Tablet",
          "userSelected": true
        } ]
      },
      "subject": {
        "reference": "Patient/59c3a231-ef45-424a-89f7-8e9e8b037633"
      },
      "authoredOn": "2026-01-03T23:59:00.000+00:00",
      "requester": {
        "reference": "Practitioner/e36f22a8-a4f8-4b24-9420-e763350727c2"
      }
    },
    "request": {
      "method": "PUT",
      "url": "MedicationRequest/ef0f13d9-3085-4186-b97c-6055b455e77b"
    }
  }, {
    "fullUrl": "https://madie.cms.gov/Practitioner/e36f22a8-a4f8-4b24-9420-e763350727c2",
    "resource": {
      "resourceType": "Practitioner",
      "id": "e36f22a8-a4f8-4b24-9420-e763350727c2",
      "meta": {
        "profile": [ "http://hl7.org/fhir/us/qicore/StructureDefinition/qicore-practitioner" ]
      },
      "identifier": [ {
        "system": "http://hl7.org/fhir/sid/us-npi",
        "value": "9999999896"
      } ],
      "active": true,
      "name": [ {
        "family": "Ramires",
        "given": [ "Alma" ],
        "prefix": [ "Dr" ]
      } ],
      "address": [ {
        "use": "home",
        "line": [ "534 Erewhon St" ],
        "city": "Netherville",
        "state": "IN",
        "postalCode": "46131"
      } ],
      "qualification": [ {
        "identifier": [ {
          "system": "http://goodhealth.org/prIdentifier",
          "value": "12345"
        } ],
        "code": {
          "coding": [ {
            "system": "http://terminology.hl7.org/CodeSystem/v2-0360|2.7",
            "code": "BS",
            "display": "Bachelor of Science"
          } ],
          "text": "Bachelor of Science"
        },
        "period": {
          "start": "1995"
        },
        "issuer": {
          "display": "Example University"
        }
      } ]
    },
    "request": {
      "method": "PUT",
      "url": "Practitioner/e36f22a8-a4f8-4b24-9420-e763350727c2"
    }
  }, {
    "fullUrl": "https://madie.cms.gov/Condition/243cf65a-99b6-481b-8be4-24578ba64456",
    "resource": {
      "resourceType": "Condition",
      "id": "243cf65a-99b6-481b-8be4-24578ba64456",
      "meta": {
        "profile": [ "http://hl7.org/fhir/us/qicore/StructureDefinition/qicore-condition" ]
      },
      "clinicalStatus": {
        "coding": [ {
          "system": "http://terminology.hl7.org/CodeSystem/condition-clinical",
          "code": "active",
          "display": "active",
          "userSelected": true
        } ]
      },
      "category": [ {
        "coding": [ {
          "system": "http://terminology.hl7.org/CodeSystem/condition-category",
          "code": "encounter-diagnosis",
          "display": "Encounter Diagnosis"
        }, {
          "system": "http://snomed.info/sct",
          "code": "439401001",
          "display": "Diagnosis"
        } ]
      } ],
      "code": {
        "coding": [ {
          "system": "http://snomed.info/sct",
          "version": "2022-03",
          "code": "735935009",
          "display": "Chronic pain due to malignant neoplastic disease (finding)",
          "userSelected": true
        } ]
      },
      "subject": {
        "reference": "Patient/59c3a231-ef45-424a-89f7-8e9e8b037633"
      },
      "onsetPeriod": {
        "start": "2025-12-31T08:00:00.000+00:00"
      }
    },
    "request": {
      "method": "PUT",
      "url": "Condition/243cf65a-99b6-481b-8be4-24578ba64456"
    }
  }, {
    "fullUrl": "https://madie.cms.gov/Coverage/d788baac-e373-4352-87c1-b3466fb5c61d",
    "resource": {
      "resourceType": "Coverage",
      "id": "d788baac-e373-4352-87c1-b3466fb5c61d",
      "meta": {
        "profile": [ "http://hl7.org/fhir/us/qicore/StructureDefinition/qicore-coverage" ]
      },
      "status": "active",
      "subscriberId": "523435",
      "beneficiary": {
        "reference": "Patient/59c3a231-ef45-424a-89f7-8e9e8b037633"
      },
      "relationship": {
        "coding": [ {
          "system": "http://terminology.hl7.org/CodeSystem/subscriber-relationship",
          "code": "self"
        } ]
      },
      "payor": [ {
        "reference": "Organization/eb9be87c-2fba-4c21-89a9-0040a2a92030"
      } ]
    },
    "request": {
      "method": "PUT",
      "url": "Coverage/d788baac-e373-4352-87c1-b3466fb5c61d"
    }
  }, {
    "fullUrl": "https://madie.cms.gov/Organization/eb9be87c-2fba-4c21-89a9-0040a2a92030",
    "resource": {
      "resourceType": "Organization",
      "id": "eb9be87c-2fba-4c21-89a9-0040a2a92030",
      "meta": {
        "profile": [ "http://hl7.org/fhir/us/qicore/StructureDefinition/qicore-organization" ]
      },
      "identifier": [ {
        "use": "temp",
        "system": "urn:oid:2.16.840.1.113883.4.4",
        "value": "21-3259825"
      } ],
      "active": true,
      "type": [ {
        "coding": [ {
          "system": "http://terminology.hl7.org/CodeSystem/organization-type",
          "code": "pay",
          "display": "Payer"
        } ]
      } ],
      "name": "Blue Cross Blue Shield of Texas",
      "telecom": [ {
        "system": "phone",
        "value": "(+1) 972-766-6900"
      } ],
      "address": [ {
        "use": "billing",
        "type": "postal",
        "line": [ "P.O. Box 660044" ],
        "city": "Dallas",
        "state": "TX",
        "postalCode": "75266-0044",
        "country": "USA"
      } ]
    },
    "request": {
      "method": "PUT",
      "url": "Organization/eb9be87c-2fba-4c21-89a9-0040a2a92030"
    }
  }, {
    "fullUrl": "https://madie.cms.gov/MeasureReport/defbd53d-e5be-4715-bd6c-bc5154724a1e",
    "resource": {
      "resourceType": "MeasureReport",
      "id": "defbd53d-e5be-4715-bd6c-bc5154724a1e",
      "meta": {
        "profile": [ "http://hl7.org/fhir/us/cqfmeasures/StructureDefinition/test-case-cqfm" ]
      },
      "contained": [ {
        "resourceType": "Parameters",
        "id": "df68c2be-21f1-4e25-ac84-e8f881c9ea71-parameters",
        "parameter": [ {
          "name": "subject",
          "valueString": "59c3a231-ef45-424a-89f7-8e9e8b037633"
        } ]
      } ],
      "extension": [ {
        "url": "http://hl7.org/fhir/StructureDefinition/cqf-inputParameters",
        "valueReference": {
          "reference": "#df68c2be-21f1-4e25-ac84-e8f881c9ea71-parameters"
        }
      }, {
        "url": "http://hl7.org/fhir/us/cqfmeasures/StructureDefinition/cqfm-testCaseDescription",
        "valueMarkdown": "Enc 1/1  at 2359 - 1/3 at 2359; encounter dx cancer pain using reasonCode, diagnosed last day of prior year, opioid at 2359 on discharge date"
      } ],
      "modifierExtension": [ {
        "url": "http://hl7.org/fhir/us/cqfmeasures/StructureDefinition/cqfm-isTestCase",
        "valueBoolean": true
      } ],
      "status": "complete",
      "type": "individual",
      "measure": "https://madie.cms.gov/Measure/CMS506FHIRSafeUseofOpioids",
      "period": {
        "start": "2026-01-01",
        "end": "2026-12-31"
      },
      "group": [ {
        "id": "Group_1",
        "population": [ {
          "id": "InitialPopulation_1",
          "code": {
            "coding": [ {
              "system": "http://terminology.hl7.org/CodeSystem/measure-population",
              "code": "initial-population",
              "display": "Initial Population"
            } ]
          },
          "count": 1
        }, {
          "id": "Denominator_1",
          "code": {
            "coding": [ {
              "system": "http://terminology.hl7.org/CodeSystem/measure-population",
              "code": "denominator",
              "display": "Denominator"
            } ]
          },
          "count": 1
        }, {
          "id": "DenominatorExclusion_1",
          "code": {
            "coding": [ {
              "system": "http://terminology.hl7.org/CodeSystem/measure-population",
              "code": "denominator-exclusion",
              "display": "Denominator Exclusion"
            } ]
          },
          "count": 1
        }, {
          "id": "Numerator_1",
          "code": {
            "coding": [ {
              "system": "http://terminology.hl7.org/CodeSystem/measure-population",
              "code": "numerator",
              "display": "Numerator"
            } ]
          },
          "count": 0
        } ],
        "measureScore": {
          "value": 0.0
        }
      } ],
      "evaluatedResource": [ {
        "reference": "Patient/59c3a231-ef45-424a-89f7-8e9e8b037633"
      }, {
        "reference": "Encounter/fbda5d35-4837-4c0c-a990-ddc8d7bbdc4e"
      }, {
        "reference": "MedicationRequest/ef0f13d9-3085-4186-b97c-6055b455e77b"
      }, {
        "reference": "Practitioner/e36f22a8-a4f8-4b24-9420-e763350727c2"
      }, {
        "reference": "Condition/243cf65a-99b6-481b-8be4-24578ba64456"
      }, {
        "reference": "Coverage/d788baac-e373-4352-87c1-b3466fb5c61d"
      }, {
        "reference": "Organization/eb9be87c-2fba-4c21-89a9-0040a2a92030"
      } ]
    },
    "request": {
      "method": "PUT",
      "url": "MeasureReport/defbd53d-e5be-4715-bd6c-bc5154724a1e"
    }
  } ]
}