{
  "resourceType": "Bundle",
  "id": "6413828e4b11b147841ab91b",
  "type": "transaction",
  "entry": [ {
    "fullUrl": "https://madie.cms.gov/Patient/9821f4e3-39db-4f45-8da3-eed161841bd2",
    "resource": {
      "resourceType": "Patient",
      "id": "9821f4e3-39db-4f45-8da3-eed161841bd2",
      "meta": {
        "profile": [ "http://hl7.org/fhir/us/qicore/StructureDefinition/qicore-patient" ]
      },
      "extension": [ {
        "url": "http://hl7.org/fhir/us/core/StructureDefinition/us-core-race",
        "extension": [ {
          "url": "ombCategory",
          "valueCoding": {
            "system": "urn:oid:2.16.840.1.113883.6.238",
            "code": "2076-8",
            "display": "Native Hawaiian or Other Pacific Islander",
            "userSelected": true
          }
        }, {
          "url": "text",
          "valueString": "Native Hawaiian or Other Pacific Islander"
        } ]
      }, {
        "url": "http://hl7.org/fhir/us/core/StructureDefinition/us-core-ethnicity",
        "extension": [ {
          "url": "ombCategory",
          "valueCoding": {
            "system": "urn:oid:2.16.840.1.113883.6.238",
            "code": "2186-5",
            "display": "Not Hispanic or Latino",
            "userSelected": true
          }
        }, {
          "url": "text",
          "valueString": "Not Hispanic or Latino"
        } ]
      } ],
      "identifier": [ {
        "type": {
          "coding": [ {
            "system": "http://terminology.hl7.org/CodeSystem/v2-0203",
            "code": "MR"
          } ]
        },
        "system": "https://bonnie-fhir.healthit.gov/",
        "value": "6413828e4b11b147841ab91b"
      } ],
      "name": [ {
        "family": "NUMERPass",
        "given": [ "OfficeVisitEGFRAndUACR" ]
      } ],
      "gender": "female",
      "birthDate": "1958-12-01"
    },
    "request": {
      "method": "PUT",
      "url": "Patient/9821f4e3-39db-4f45-8da3-eed161841bd2"
    }
  }, {
    "fullUrl": "https://madie.cms.gov/Condition/ff13951b-a9b4-40ca-b8c0-f809af84ce2b",
    "resource": {
      "resourceType": "Condition",
      "id": "ff13951b-a9b4-40ca-b8c0-f809af84ce2b",
      "meta": {
        "profile": [ "http://hl7.org/fhir/us/qicore/StructureDefinition/qicore-condition-problems-health-concerns" ]
      },
      "clinicalStatus": {
        "coding": [ {
          "system": "http://terminology.hl7.org/CodeSystem/condition-clinical",
          "code": "active",
          "display": "active",
          "userSelected": true
        } ]
      },
      "category": [ {
        "coding": [ {
          "system": "http://terminology.hl7.org/CodeSystem/condition-category",
          "code": "problem-list-item",
          "display": "Problem List Item",
          "userSelected": true
        } ]
      } ],
      "code": {
        "coding": [ {
          "system": "http://snomed.info/sct",
          "version": "2021-09",
          "code": "102781000119107",
          "display": "Sensory neuropathy due to type 1 diabetes mellitus (disorder)",
          "userSelected": true
        } ]
      },
      "subject": {
        "reference": "Patient/9821f4e3-39db-4f45-8da3-eed161841bd2"
      },
      "onsetDateTime": "2025-12-14T08:00:00.000+00:00"
    },
    "request": {
      "method": "PUT",
      "url": "Condition/ff13951b-a9b4-40ca-b8c0-f809af84ce2b"
    }
  }, {
    "fullUrl": "https://madie.cms.gov/Observation/04461f34-1495-4141-9f04-7935d20d6472",
    "resource": {
      "resourceType": "Observation",
      "id": "04461f34-1495-4141-9f04-7935d20d6472",
      "meta": {
        "profile": [ "http://hl7.org/fhir/us/qicore/StructureDefinition/qicore-observation-lab" ]
      },
      "status": "final",
      "category": [ {
        "coding": [ {
          "system": "http://terminology.hl7.org/CodeSystem/observation-category",
          "code": "laboratory",
          "display": "laboratory",
          "userSelected": true
        } ]
      } ],
      "code": {
        "coding": [ {
          "system": "http://loinc.org",
          "version": "2.71",
          "code": "48642-3",
          "display": "Glomerular filtration rate [Volume Rate/Area] in Serum, Plasma or Blood by Creatinine-based formula (MDRD)/1.73 sq M among non black population",
          "userSelected": true
        } ]
      },
      "subject": {
        "reference": "Patient/9821f4e3-39db-4f45-8da3-eed161841bd2"
      },
      "effectiveDateTime": "2026-03-16T08:00:00.000+00:00",
      "valueBoolean": true
    },
    "request": {
      "method": "PUT",
      "url": "Observation/04461f34-1495-4141-9f04-7935d20d6472"
    }
  }, {
    "fullUrl": "https://madie.cms.gov/Observation/c60975ea-3cc4-47a3-90cb-0a9f18fecb2a",
    "resource": {
      "resourceType": "Observation",
      "id": "c60975ea-3cc4-47a3-90cb-0a9f18fecb2a",
      "meta": {
        "profile": [ "http://hl7.org/fhir/us/qicore/StructureDefinition/qicore-observation-lab" ]
      },
      "status": "final",
      "category": [ {
        "coding": [ {
          "system": "http://terminology.hl7.org/CodeSystem/observation-category",
          "code": "laboratory",
          "display": "laboratory",
          "userSelected": true
        } ]
      } ],
      "code": {
        "coding": [ {
          "system": "http://loinc.org",
          "version": "2.71",
          "code": "13705-9",
          "display": "Albumin/Creatinine [Mass Ratio] in 24 hour Urine",
          "userSelected": true
        } ]
      },
      "subject": {
        "reference": "Patient/9821f4e3-39db-4f45-8da3-eed161841bd2"
      },
      "effectiveDateTime": "2026-03-16T08:00:00.000+00:00",
      "issued": "2026-03-16T08:00:00.000+00:00",
      "valueCodeableConcept": {
        "coding": [ {
          "system": "http://snomed.info/sct",
          "code": "2667000",
          "display": "Absent (qualifier value)"
        } ],
        "text": "Absent"
      }
    },
    "request": {
      "method": "PUT",
      "url": "Observation/c60975ea-3cc4-47a3-90cb-0a9f18fecb2a"
    }
  }, {
    "fullUrl": "https://madie.cms.gov/Encounter/8453aa8e-6fec-460a-8d07-1ac1c79f395f",
    "resource": {
      "resourceType": "Encounter",
      "id": "8453aa8e-6fec-460a-8d07-1ac1c79f395f",
      "meta": {
        "profile": [ "http://hl7.org/fhir/us/qicore/StructureDefinition/qicore-encounter" ]
      },
      "status": "finished",
      "class": {
        "system": "http://terminology.hl7.org/CodeSystem/v3-ActCode",
        "code": "AMB",
        "display": "ambulatory",
        "userSelected": true
      },
      "type": [ {
        "coding": [ {
          "system": "http://www.ama-assn.org/go/cpt",
          "code": "99213"
        } ]
      } ],
      "subject": {
        "reference": "Patient/9821f4e3-39db-4f45-8da3-eed161841bd2"
      },
      "period": {
        "start": "2026-03-16T08:00:00.000+00:00",
        "end": "2026-03-16T08:15:00.000+00:00"
      }
    },
    "request": {
      "method": "PUT",
      "url": "Encounter/8453aa8e-6fec-460a-8d07-1ac1c79f395f"
    }
  }, {
    "fullUrl": "https://madie.cms.gov/MeasureReport/7df3cedf-b2f7-46b9-bfbe-2ee6c143d0b9",
    "resource": {
      "resourceType": "MeasureReport",
      "id": "7df3cedf-b2f7-46b9-bfbe-2ee6c143d0b9",
      "meta": {
        "profile": [ "http://hl7.org/fhir/us/cqfmeasures/StructureDefinition/test-case-cqfm" ]
      },
      "contained": [ {
        "resourceType": "Parameters",
        "id": "aff8a471-deab-428b-ad04-b7cc51726f87-parameters",
        "parameter": [ {
          "name": "subject",
          "valueString": "9821f4e3-39db-4f45-8da3-eed161841bd2"
        } ]
      } ],
      "extension": [ {
        "url": "http://hl7.org/fhir/StructureDefinition/cqf-inputParameters",
        "valueReference": {
          "reference": "#aff8a471-deab-428b-ad04-b7cc51726f87-parameters"
        }
      }, {
        "url": "http://hl7.org/fhir/us/cqfmeasures/StructureDefinition/cqfm-testCaseDescription",
        "valueMarkdown": "This patient is 67 years old with a qualifying office visit encounter and active  diabetes, with both qualifying lab tests where the UACR has undetectable results. This case tests the numerator criteria."
      } ],
      "modifierExtension": [ {
        "url": "http://hl7.org/fhir/us/cqfmeasures/StructureDefinition/cqfm-isTestCase",
        "valueBoolean": true
      } ],
      "status": "complete",
      "type": "individual",
      "measure": "https://madie.cms.gov/Measure/CMS951FHIRKidneyHealthEval",
      "period": {
        "start": "2026-01-01",
        "end": "2026-12-31"
      },
      "group": [ {
        "id": "Group_1",
        "population": [ {
          "id": "InitialPopulation_1",
          "code": {
            "coding": [ {
              "system": "http://terminology.hl7.org/CodeSystem/measure-population",
              "code": "initial-population",
              "display": "Initial Population"
            } ]
          },
          "count": 1
        }, {
          "id": "Denominator_1",
          "code": {
            "coding": [ {
              "system": "http://terminology.hl7.org/CodeSystem/measure-population",
              "code": "denominator",
              "display": "Denominator"
            } ]
          },
          "count": 1
        }, {
          "id": "DenominatorExclusion_1",
          "code": {
            "coding": [ {
              "system": "http://terminology.hl7.org/CodeSystem/measure-population",
              "code": "denominator-exclusion",
              "display": "Denominator Exclusion"
            } ]
          },
          "count": 0
        }, {
          "id": "Numerator_1",
          "code": {
            "coding": [ {
              "system": "http://terminology.hl7.org/CodeSystem/measure-population",
              "code": "numerator",
              "display": "Numerator"
            } ]
          },
          "count": 1
        } ],
        "measureScore": {
          "value": 1.0
        }
      } ],
      "evaluatedResource": [ {
        "reference": "Patient/9821f4e3-39db-4f45-8da3-eed161841bd2"
      }, {
        "reference": "Condition/ff13951b-a9b4-40ca-b8c0-f809af84ce2b"
      }, {
        "reference": "Observation/04461f34-1495-4141-9f04-7935d20d6472"
      }, {
        "reference": "Observation/c60975ea-3cc4-47a3-90cb-0a9f18fecb2a"
      }, {
        "reference": "Encounter/8453aa8e-6fec-460a-8d07-1ac1c79f395f"
      } ]
    },
    "request": {
      "method": "PUT",
      "url": "MeasureReport/7df3cedf-b2f7-46b9-bfbe-2ee6c143d0b9"
    }
  } ]
}