{
  "resourceType": "Bundle",
  "id": "NUMERPass-Rotavirus3Dose",
  "type": "transaction",
  "entry": [ {
    "fullUrl": "https://madie.cms.gov/Patient/6d5e6104-3c39-4de4-835d-0e95a6ab1be6",
    "resource": {
      "resourceType": "Patient",
      "id": "6d5e6104-3c39-4de4-835d-0e95a6ab1be6",
      "meta": {
        "profile": [ "http://hl7.org/fhir/us/qicore/StructureDefinition/qicore-patient" ]
      },
      "extension": [ {
        "url": "http://hl7.org/fhir/us/core/StructureDefinition/us-core-race",
        "extension": [ {
          "url": "ombCategory",
          "valueCoding": {
            "system": "urn:oid:2.16.840.1.113883.6.238",
            "code": "2028-9",
            "display": "Asian"
          }
        }, {
          "url": "text",
          "valueString": "Asian"
        } ]
      }, {
        "url": "http://hl7.org/fhir/us/core/StructureDefinition/us-core-ethnicity",
        "extension": [ {
          "url": "ombCategory",
          "valueCoding": {
            "system": "urn:oid:2.16.840.1.113883.6.238",
            "code": "2135-2",
            "display": "Hispanic or Latino"
          }
        }, {
          "url": "text",
          "valueString": "Hispanic or Latino"
        } ]
      } ],
      "identifier": [ {
        "system": "http://hospital.smarthealthit.org",
        "value": "999999995"
      } ],
      "name": [ {
        "family": "Bertha",
        "given": [ "Betty" ]
      } ],
      "gender": "female",
      "birthDate": "2024-01-01"
    },
    "request": {
      "method": "PUT",
      "url": "Patient/6d5e6104-3c39-4de4-835d-0e95a6ab1be6"
    }
  }, {
    "fullUrl": "https://madie.cms.gov/Encounter/c7637420-dfab-4c1d-bd24-8cb5f3e80d37",
    "resource": {
      "resourceType": "Encounter",
      "id": "c7637420-dfab-4c1d-bd24-8cb5f3e80d37",
      "meta": {
        "profile": [ "http://hl7.org/fhir/us/qicore/StructureDefinition/qicore-encounter" ]
      },
      "status": "finished",
      "class": {
        "system": "http://terminology.hl7.org/CodeSystem/v3-ActCode",
        "code": "AMB",
        "display": "ambulatory"
      },
      "type": [ {
        "coding": [ {
          "system": "http://snomed.info/sct",
          "code": "185317003",
          "display": "Telephone encounter (procedure)"
        } ]
      } ],
      "subject": {
        "reference": "Patient/6d5e6104-3c39-4de4-835d-0e95a6ab1be6"
      },
      "period": {
        "start": "2026-01-01T01:00:00.000+00:00",
        "end": "2026-01-01T01:15:00.000+00:00"
      }
    },
    "request": {
      "method": "PUT",
      "url": "Encounter/c7637420-dfab-4c1d-bd24-8cb5f3e80d37"
    }
  }, {
    "fullUrl": "https://madie.cms.gov/Immunization/40271edf-5691-4977-9f9f-b281ff3fe21b",
    "resource": {
      "resourceType": "Immunization",
      "id": "40271edf-5691-4977-9f9f-b281ff3fe21b",
      "meta": {
        "profile": [ "http://hl7.org/fhir/us/qicore/StructureDefinition/qicore-immunization" ]
      },
      "status": "completed",
      "vaccineCode": {
        "coding": [ {
          "system": "http://hl7.org/fhir/sid/cvx",
          "code": "146",
          "display": "DTaP,IPV,Hib,HepB"
        } ]
      },
      "patient": {
        "reference": "Patient/6d5e6104-3c39-4de4-835d-0e95a6ab1be6"
      },
      "occurrenceDateTime": "2025-01-02T00:00:00.000+00:00",
      "recorded": "2025-01-02T00:00:00.000+00:00",
      "primarySource": true
    },
    "request": {
      "method": "PUT",
      "url": "Immunization/40271edf-5691-4977-9f9f-b281ff3fe21b"
    }
  }, {
    "fullUrl": "https://madie.cms.gov/Immunization/3af77f9b-32da-476b-aa8d-8d4b2d84d9d0",
    "resource": {
      "resourceType": "Immunization",
      "id": "3af77f9b-32da-476b-aa8d-8d4b2d84d9d0",
      "meta": {
        "profile": [ "http://hl7.org/fhir/us/qicore/StructureDefinition/qicore-immunization" ]
      },
      "status": "completed",
      "vaccineCode": {
        "coding": [ {
          "system": "http://hl7.org/fhir/sid/cvx",
          "code": "146",
          "display": "DTaP,IPV,Hib,HepB"
        } ]
      },
      "patient": {
        "reference": "Patient/6d5e6104-3c39-4de4-835d-0e95a6ab1be6"
      },
      "occurrenceDateTime": "2025-01-05T00:00:00.000+00:00",
      "recorded": "2025-01-02T00:00:00.000+00:00",
      "primarySource": true
    },
    "request": {
      "method": "PUT",
      "url": "Immunization/3af77f9b-32da-476b-aa8d-8d4b2d84d9d0"
    }
  }, {
    "fullUrl": "https://madie.cms.gov/Immunization/17c6224d-ee12-4f40-a50a-d50d0b272988",
    "resource": {
      "resourceType": "Immunization",
      "id": "17c6224d-ee12-4f40-a50a-d50d0b272988",
      "meta": {
        "profile": [ "http://hl7.org/fhir/us/qicore/StructureDefinition/qicore-immunization" ]
      },
      "status": "completed",
      "vaccineCode": {
        "coding": [ {
          "system": "http://hl7.org/fhir/sid/cvx",
          "code": "146",
          "display": "DTaP,IPV,Hib,HepB"
        } ]
      },
      "patient": {
        "reference": "Patient/6d5e6104-3c39-4de4-835d-0e95a6ab1be6"
      },
      "occurrenceDateTime": "2025-01-07T00:00:00.000+00:00",
      "recorded": "2025-01-02T00:00:00.000+00:00",
      "primarySource": true
    },
    "request": {
      "method": "PUT",
      "url": "Immunization/17c6224d-ee12-4f40-a50a-d50d0b272988"
    }
  }, {
    "fullUrl": "https://madie.cms.gov/Immunization/7b91070e-1690-41ae-bbfe-9e56d802e5b0",
    "resource": {
      "resourceType": "Immunization",
      "id": "7b91070e-1690-41ae-bbfe-9e56d802e5b0",
      "meta": {
        "profile": [ "http://hl7.org/fhir/us/qicore/StructureDefinition/qicore-immunization" ]
      },
      "status": "completed",
      "vaccineCode": {
        "coding": [ {
          "system": "http://hl7.org/fhir/sid/cvx",
          "code": "146",
          "display": "DTaP,IPV,Hib,HepB"
        } ]
      },
      "patient": {
        "reference": "Patient/6d5e6104-3c39-4de4-835d-0e95a6ab1be6"
      },
      "occurrenceDateTime": "2025-01-10T00:00:00.000+00:00",
      "recorded": "2025-01-02T00:00:00.000+00:00",
      "primarySource": true
    },
    "request": {
      "method": "PUT",
      "url": "Immunization/7b91070e-1690-41ae-bbfe-9e56d802e5b0"
    }
  }, {
    "fullUrl": "https://madie.cms.gov/Immunization/ec46c765-53bb-48fe-b88e-ded208a8e0f0",
    "resource": {
      "resourceType": "Immunization",
      "id": "ec46c765-53bb-48fe-b88e-ded208a8e0f0",
      "meta": {
        "profile": [ "http://hl7.org/fhir/us/qicore/StructureDefinition/qicore-immunization" ]
      },
      "status": "completed",
      "vaccineCode": {
        "coding": [ {
          "system": "http://hl7.org/fhir/sid/cvx",
          "code": "146",
          "display": "DTaP,IPV,Hib,HepB"
        } ]
      },
      "patient": {
        "reference": "Patient/6d5e6104-3c39-4de4-835d-0e95a6ab1be6"
      },
      "occurrenceDateTime": "2025-01-02T00:00:00.000+00:00",
      "recorded": "2025-01-02T00:00:00.000+00:00",
      "primarySource": true
    },
    "request": {
      "method": "PUT",
      "url": "Immunization/ec46c765-53bb-48fe-b88e-ded208a8e0f0"
    }
  }, {
    "fullUrl": "https://madie.cms.gov/Immunization/338aa055-6edf-4fde-a4f9-043ee1fe3280",
    "resource": {
      "resourceType": "Immunization",
      "id": "338aa055-6edf-4fde-a4f9-043ee1fe3280",
      "meta": {
        "profile": [ "http://hl7.org/fhir/us/qicore/StructureDefinition/qicore-immunization" ]
      },
      "status": "completed",
      "vaccineCode": {
        "coding": [ {
          "system": "http://hl7.org/fhir/sid/cvx",
          "code": "146",
          "display": "DTaP,IPV,Hib,HepB"
        } ]
      },
      "patient": {
        "reference": "Patient/6d5e6104-3c39-4de4-835d-0e95a6ab1be6"
      },
      "occurrenceDateTime": "2025-01-06T00:00:00.000+00:00",
      "recorded": "2025-01-02T00:00:00.000+00:00",
      "primarySource": true
    },
    "request": {
      "method": "PUT",
      "url": "Immunization/338aa055-6edf-4fde-a4f9-043ee1fe3280"
    }
  }, {
    "fullUrl": "https://madie.cms.gov/Immunization/96870cb0-d263-4d47-8aae-bb5438990233",
    "resource": {
      "resourceType": "Immunization",
      "id": "96870cb0-d263-4d47-8aae-bb5438990233",
      "meta": {
        "profile": [ "http://hl7.org/fhir/us/qicore/StructureDefinition/qicore-immunization" ]
      },
      "status": "completed",
      "vaccineCode": {
        "coding": [ {
          "system": "http://hl7.org/fhir/sid/cvx",
          "code": "146",
          "display": "DTaP,IPV,Hib,HepB"
        } ]
      },
      "patient": {
        "reference": "Patient/6d5e6104-3c39-4de4-835d-0e95a6ab1be6"
      },
      "occurrenceDateTime": "2025-01-09T00:00:00.000+00:00",
      "recorded": "2025-01-02T00:00:00.000+00:00",
      "primarySource": true
    },
    "request": {
      "method": "PUT",
      "url": "Immunization/96870cb0-d263-4d47-8aae-bb5438990233"
    }
  }, {
    "fullUrl": "https://madie.cms.gov/Immunization/dc9f4d8b-d127-407a-a44c-38d6b69b0b26",
    "resource": {
      "resourceType": "Immunization",
      "id": "dc9f4d8b-d127-407a-a44c-38d6b69b0b26",
      "meta": {
        "profile": [ "http://hl7.org/fhir/us/qicore/StructureDefinition/qicore-immunization" ]
      },
      "status": "completed",
      "vaccineCode": {
        "coding": [ {
          "system": "http://hl7.org/fhir/sid/cvx",
          "code": "94",
          "display": "measles, mumps, rubella, and varicella virus vaccine"
        } ]
      },
      "patient": {
        "reference": "Patient/6d5e6104-3c39-4de4-835d-0e95a6ab1be6"
      },
      "occurrenceDateTime": "2025-01-02T00:00:00.000+00:00",
      "recorded": "2025-01-02T00:00:00.000+00:00",
      "primarySource": true
    },
    "request": {
      "method": "PUT",
      "url": "Immunization/dc9f4d8b-d127-407a-a44c-38d6b69b0b26"
    }
  }, {
    "fullUrl": "https://madie.cms.gov/Immunization/e47ae97a-dcc8-4a80-8129-b4a0fa1cd5ef",
    "resource": {
      "resourceType": "Immunization",
      "id": "e47ae97a-dcc8-4a80-8129-b4a0fa1cd5ef",
      "meta": {
        "profile": [ "http://hl7.org/fhir/us/qicore/StructureDefinition/qicore-immunization" ]
      },
      "status": "completed",
      "vaccineCode": {
        "coding": [ {
          "system": "http://hl7.org/fhir/sid/cvx",
          "code": "49",
          "display": "Haemophilus influenzae type b vaccine, PRP-OMP conjugate"
        } ]
      },
      "patient": {
        "reference": "Patient/6d5e6104-3c39-4de4-835d-0e95a6ab1be6"
      },
      "occurrenceDateTime": "2025-01-02T00:00:00.000+00:00",
      "recorded": "2025-01-02T00:00:00.000+00:00",
      "primarySource": true
    },
    "request": {
      "method": "PUT",
      "url": "Immunization/e47ae97a-dcc8-4a80-8129-b4a0fa1cd5ef"
    }
  }, {
    "fullUrl": "https://madie.cms.gov/Immunization/1cd32319-caf7-4058-85a7-dae3ec3938ba",
    "resource": {
      "resourceType": "Immunization",
      "id": "1cd32319-caf7-4058-85a7-dae3ec3938ba",
      "meta": {
        "profile": [ "http://hl7.org/fhir/us/qicore/StructureDefinition/qicore-immunization" ]
      },
      "status": "completed",
      "vaccineCode": {
        "coding": [ {
          "system": "http://hl7.org/fhir/sid/cvx",
          "code": "49",
          "display": "Haemophilus influenzae type b vaccine, PRP-OMP conjugate"
        } ]
      },
      "patient": {
        "reference": "Patient/6d5e6104-3c39-4de4-835d-0e95a6ab1be6"
      },
      "occurrenceDateTime": "2025-01-02T00:00:00.000+00:00",
      "recorded": "2025-01-02T00:00:00.000+00:00",
      "primarySource": true
    },
    "request": {
      "method": "PUT",
      "url": "Immunization/1cd32319-caf7-4058-85a7-dae3ec3938ba"
    }
  }, {
    "fullUrl": "https://madie.cms.gov/Immunization/61083da5-3a7d-47c2-bbd8-24b49d1d4154",
    "resource": {
      "resourceType": "Immunization",
      "id": "61083da5-3a7d-47c2-bbd8-24b49d1d4154",
      "meta": {
        "profile": [ "http://hl7.org/fhir/us/qicore/StructureDefinition/qicore-immunization" ]
      },
      "status": "completed",
      "vaccineCode": {
        "coding": [ {
          "system": "http://hl7.org/fhir/sid/cvx",
          "code": "49",
          "display": "Haemophilus influenzae type b vaccine, PRP-OMP conjugate"
        } ]
      },
      "patient": {
        "reference": "Patient/6d5e6104-3c39-4de4-835d-0e95a6ab1be6"
      },
      "occurrenceDateTime": "2025-01-02T00:00:00.000+00:00",
      "recorded": "2025-01-02T00:00:00.000+00:00",
      "primarySource": true
    },
    "request": {
      "method": "PUT",
      "url": "Immunization/61083da5-3a7d-47c2-bbd8-24b49d1d4154"
    }
  }, {
    "fullUrl": "https://madie.cms.gov/Immunization/437040cc-76e5-4094-977f-88fc95141e1e",
    "resource": {
      "resourceType": "Immunization",
      "id": "437040cc-76e5-4094-977f-88fc95141e1e",
      "meta": {
        "profile": [ "http://hl7.org/fhir/us/qicore/StructureDefinition/qicore-immunization" ]
      },
      "status": "completed",
      "vaccineCode": {
        "coding": [ {
          "system": "http://hl7.org/fhir/sid/cvx",
          "code": "51",
          "display": "Haemophilus influenzae type b conjugate and Hepatitis B vaccine"
        } ]
      },
      "patient": {
        "reference": "Patient/6d5e6104-3c39-4de4-835d-0e95a6ab1be6"
      },
      "occurrenceDateTime": "2025-01-02T00:00:00.000+00:00",
      "recorded": "2025-01-02T00:00:00.000+00:00",
      "primarySource": true
    },
    "request": {
      "method": "PUT",
      "url": "Immunization/437040cc-76e5-4094-977f-88fc95141e1e"
    }
  }, {
    "fullUrl": "https://madie.cms.gov/Immunization/b53c7be2-e84a-4cf8-850d-7d56bf3a05da",
    "resource": {
      "resourceType": "Immunization",
      "id": "b53c7be2-e84a-4cf8-850d-7d56bf3a05da",
      "meta": {
        "profile": [ "http://hl7.org/fhir/us/qicore/StructureDefinition/qicore-immunization" ]
      },
      "status": "completed",
      "vaccineCode": {
        "coding": [ {
          "system": "http://hl7.org/fhir/sid/cvx",
          "code": "51",
          "display": "Haemophilus influenzae type b conjugate and Hepatitis B vaccine"
        } ]
      },
      "patient": {
        "reference": "Patient/6d5e6104-3c39-4de4-835d-0e95a6ab1be6"
      },
      "occurrenceDateTime": "2025-01-10T00:00:00.000+00:00",
      "recorded": "2025-01-02T00:00:00.000+00:00",
      "primarySource": true
    },
    "request": {
      "method": "PUT",
      "url": "Immunization/b53c7be2-e84a-4cf8-850d-7d56bf3a05da"
    }
  }, {
    "fullUrl": "https://madie.cms.gov/Immunization/31263181-42e2-485f-b7b6-d73b7aca4896",
    "resource": {
      "resourceType": "Immunization",
      "id": "31263181-42e2-485f-b7b6-d73b7aca4896",
      "meta": {
        "profile": [ "http://hl7.org/fhir/us/qicore/StructureDefinition/qicore-immunization" ]
      },
      "status": "completed",
      "vaccineCode": {
        "coding": [ {
          "system": "http://hl7.org/fhir/sid/cvx",
          "code": "51",
          "display": "Haemophilus influenzae type b conjugate and Hepatitis B vaccine"
        } ]
      },
      "patient": {
        "reference": "Patient/6d5e6104-3c39-4de4-835d-0e95a6ab1be6"
      },
      "occurrenceDateTime": "2025-01-12T00:00:00.000+00:00",
      "recorded": "2025-01-02T00:00:00.000+00:00",
      "primarySource": true
    },
    "request": {
      "method": "PUT",
      "url": "Immunization/31263181-42e2-485f-b7b6-d73b7aca4896"
    }
  }, {
    "fullUrl": "https://madie.cms.gov/Immunization/21c61aa0-8f26-410c-8154-d7637f00c14f",
    "resource": {
      "resourceType": "Immunization",
      "id": "21c61aa0-8f26-410c-8154-d7637f00c14f",
      "meta": {
        "profile": [ "http://hl7.org/fhir/us/qicore/StructureDefinition/qicore-immunization" ]
      },
      "status": "completed",
      "vaccineCode": {
        "coding": [ {
          "system": "http://hl7.org/fhir/sid/cvx",
          "code": "94",
          "display": "measles, mumps, rubella, and varicella virus vaccine"
        } ]
      },
      "patient": {
        "reference": "Patient/6d5e6104-3c39-4de4-835d-0e95a6ab1be6"
      },
      "occurrenceDateTime": "2025-01-02T00:00:00.000+00:00",
      "recorded": "2025-01-02T00:00:00.000+00:00",
      "primarySource": true
    },
    "request": {
      "method": "PUT",
      "url": "Immunization/21c61aa0-8f26-410c-8154-d7637f00c14f"
    }
  }, {
    "fullUrl": "https://madie.cms.gov/Immunization/f4702f94-009c-454c-89e0-f977f1085f4d",
    "resource": {
      "resourceType": "Immunization",
      "id": "f4702f94-009c-454c-89e0-f977f1085f4d",
      "meta": {
        "profile": [ "http://hl7.org/fhir/us/qicore/StructureDefinition/qicore-immunization" ]
      },
      "status": "completed",
      "vaccineCode": {
        "coding": [ {
          "system": "http://hl7.org/fhir/sid/cvx",
          "code": "215",
          "display": "Pneumococcal conjugate vaccine 15-valent (PCV15), polysaccharide CRM197 conjugate, adjuvant, preservative free"
        } ]
      },
      "patient": {
        "reference": "Patient/6d5e6104-3c39-4de4-835d-0e95a6ab1be6"
      },
      "occurrenceDateTime": "2025-01-12T00:00:00.000+00:00",
      "recorded": "2025-01-02T00:00:00.000+00:00",
      "primarySource": true
    },
    "request": {
      "method": "PUT",
      "url": "Immunization/f4702f94-009c-454c-89e0-f977f1085f4d"
    }
  }, {
    "fullUrl": "https://madie.cms.gov/Immunization/838b20ec-8dc1-4d3e-9cf4-05c9fef53f62",
    "resource": {
      "resourceType": "Immunization",
      "id": "838b20ec-8dc1-4d3e-9cf4-05c9fef53f62",
      "meta": {
        "profile": [ "http://hl7.org/fhir/us/qicore/StructureDefinition/qicore-immunization" ]
      },
      "status": "completed",
      "vaccineCode": {
        "coding": [ {
          "system": "http://hl7.org/fhir/sid/cvx",
          "code": "215",
          "display": "Pneumococcal conjugate vaccine 15-valent (PCV15), polysaccharide CRM197 conjugate, adjuvant, preservative free"
        } ]
      },
      "patient": {
        "reference": "Patient/6d5e6104-3c39-4de4-835d-0e95a6ab1be6"
      },
      "occurrenceDateTime": "2025-01-14T00:00:00.000+00:00",
      "recorded": "2025-01-02T00:00:00.000+00:00",
      "primarySource": true
    },
    "request": {
      "method": "PUT",
      "url": "Immunization/838b20ec-8dc1-4d3e-9cf4-05c9fef53f62"
    }
  }, {
    "fullUrl": "https://madie.cms.gov/Immunization/2dc8327d-5437-44fe-b62f-ca41dc3bdb4f",
    "resource": {
      "resourceType": "Immunization",
      "id": "2dc8327d-5437-44fe-b62f-ca41dc3bdb4f",
      "meta": {
        "profile": [ "http://hl7.org/fhir/us/qicore/StructureDefinition/qicore-immunization" ]
      },
      "status": "completed",
      "vaccineCode": {
        "coding": [ {
          "system": "http://hl7.org/fhir/sid/cvx",
          "code": "215",
          "display": "Pneumococcal conjugate vaccine 15-valent (PCV15), polysaccharide CRM197 conjugate, adjuvant, preservative free"
        } ]
      },
      "patient": {
        "reference": "Patient/6d5e6104-3c39-4de4-835d-0e95a6ab1be6"
      },
      "occurrenceDateTime": "2025-01-20T00:00:00.000+00:00",
      "recorded": "2025-01-02T00:00:00.000+00:00",
      "primarySource": true
    },
    "request": {
      "method": "PUT",
      "url": "Immunization/2dc8327d-5437-44fe-b62f-ca41dc3bdb4f"
    }
  }, {
    "fullUrl": "https://madie.cms.gov/Immunization/d05aab36-7895-40a9-8c9c-e20f27362a2f",
    "resource": {
      "resourceType": "Immunization",
      "id": "d05aab36-7895-40a9-8c9c-e20f27362a2f",
      "meta": {
        "profile": [ "http://hl7.org/fhir/us/qicore/StructureDefinition/qicore-immunization" ]
      },
      "status": "completed",
      "vaccineCode": {
        "coding": [ {
          "system": "http://hl7.org/fhir/sid/cvx",
          "code": "215",
          "display": "Pneumococcal conjugate vaccine 15-valent (PCV15), polysaccharide CRM197 conjugate, adjuvant, preservative free"
        } ]
      },
      "patient": {
        "reference": "Patient/6d5e6104-3c39-4de4-835d-0e95a6ab1be6"
      },
      "occurrenceDateTime": "2025-01-22T00:00:00.000+00:00",
      "recorded": "2025-01-02T00:00:00.000+00:00",
      "primarySource": true
    },
    "request": {
      "method": "PUT",
      "url": "Immunization/d05aab36-7895-40a9-8c9c-e20f27362a2f"
    }
  }, {
    "fullUrl": "https://madie.cms.gov/Immunization/c7bc6930-d161-4218-9e80-c92e2eb305b9",
    "resource": {
      "resourceType": "Immunization",
      "id": "c7bc6930-d161-4218-9e80-c92e2eb305b9",
      "meta": {
        "profile": [ "http://hl7.org/fhir/us/qicore/StructureDefinition/qicore-immunization" ]
      },
      "status": "completed",
      "vaccineCode": {
        "coding": [ {
          "system": "http://hl7.org/fhir/sid/cvx",
          "code": "85",
          "display": "hepatitis A vaccine, unspecified formulation"
        } ]
      },
      "patient": {
        "reference": "Patient/6d5e6104-3c39-4de4-835d-0e95a6ab1be6"
      },
      "occurrenceDateTime": "2025-01-02T00:00:00.000+00:00",
      "recorded": "2025-01-02T00:00:00.000+00:00",
      "primarySource": true
    },
    "request": {
      "method": "PUT",
      "url": "Immunization/c7bc6930-d161-4218-9e80-c92e2eb305b9"
    }
  }, {
    "fullUrl": "https://madie.cms.gov/Immunization/52df68e8-465c-416e-9ca7-8a718d0ff4f6",
    "resource": {
      "resourceType": "Immunization",
      "id": "52df68e8-465c-416e-9ca7-8a718d0ff4f6",
      "meta": {
        "profile": [ "http://hl7.org/fhir/us/qicore/StructureDefinition/qicore-immunization" ]
      },
      "status": "completed",
      "vaccineCode": {
        "coding": [ {
          "system": "http://hl7.org/fhir/sid/cvx",
          "code": "122",
          "display": "rotavirus vaccine, unspecified formulation"
        } ]
      },
      "patient": {
        "reference": "Patient/6d5e6104-3c39-4de4-835d-0e95a6ab1be6"
      },
      "occurrenceDateTime": "2025-01-02T00:00:00.000+00:00",
      "recorded": "2025-01-02T00:00:00.000+00:00",
      "primarySource": true
    },
    "request": {
      "method": "PUT",
      "url": "Immunization/52df68e8-465c-416e-9ca7-8a718d0ff4f6"
    }
  }, {
    "fullUrl": "https://madie.cms.gov/Immunization/fbb431e7-7a0b-4dfe-9e8a-a06a77ab1eac",
    "resource": {
      "resourceType": "Immunization",
      "id": "fbb431e7-7a0b-4dfe-9e8a-a06a77ab1eac",
      "meta": {
        "profile": [ "http://hl7.org/fhir/us/qicore/StructureDefinition/qicore-immunization" ]
      },
      "status": "completed",
      "vaccineCode": {
        "coding": [ {
          "system": "http://hl7.org/fhir/sid/cvx",
          "code": "122",
          "display": "rotavirus vaccine, unspecified formulation"
        } ]
      },
      "patient": {
        "reference": "Patient/6d5e6104-3c39-4de4-835d-0e95a6ab1be6"
      },
      "occurrenceDateTime": "2025-01-07T00:00:00.000+00:00",
      "recorded": "2025-01-02T00:00:00.000+00:00",
      "primarySource": true
    },
    "request": {
      "method": "PUT",
      "url": "Immunization/fbb431e7-7a0b-4dfe-9e8a-a06a77ab1eac"
    }
  }, {
    "fullUrl": "https://madie.cms.gov/Immunization/92a13b49-b9c6-4750-9af0-c9f4b94625b4",
    "resource": {
      "resourceType": "Immunization",
      "id": "92a13b49-b9c6-4750-9af0-c9f4b94625b4",
      "meta": {
        "profile": [ "http://hl7.org/fhir/us/qicore/StructureDefinition/qicore-immunization" ]
      },
      "status": "completed",
      "vaccineCode": {
        "coding": [ {
          "system": "http://hl7.org/fhir/sid/cvx",
          "code": "122",
          "display": "rotavirus vaccine, unspecified formulation"
        } ]
      },
      "patient": {
        "reference": "Patient/6d5e6104-3c39-4de4-835d-0e95a6ab1be6"
      },
      "occurrenceDateTime": "2025-01-09T00:00:00.000+00:00",
      "recorded": "2025-01-02T00:00:00.000+00:00",
      "primarySource": true
    },
    "request": {
      "method": "PUT",
      "url": "Immunization/92a13b49-b9c6-4750-9af0-c9f4b94625b4"
    }
  }, {
    "fullUrl": "https://madie.cms.gov/Immunization/9f579a12-7a1f-4eb0-8856-bc37bac98d3d",
    "resource": {
      "resourceType": "Immunization",
      "id": "9f579a12-7a1f-4eb0-8856-bc37bac98d3d",
      "meta": {
        "profile": [ "http://hl7.org/fhir/us/qicore/StructureDefinition/qicore-immunization" ]
      },
      "status": "completed",
      "vaccineCode": {
        "coding": [ {
          "system": "http://hl7.org/fhir/sid/cvx",
          "code": "153",
          "display": "Influenza, injectable, MDCK, preservative free"
        } ]
      },
      "patient": {
        "reference": "Patient/6d5e6104-3c39-4de4-835d-0e95a6ab1be6"
      },
      "occurrenceDateTime": "2025-01-02T00:00:00.000+00:00",
      "recorded": "2025-01-02T00:00:00.000+00:00",
      "primarySource": true
    },
    "request": {
      "method": "PUT",
      "url": "Immunization/9f579a12-7a1f-4eb0-8856-bc37bac98d3d"
    }
  }, {
    "fullUrl": "https://madie.cms.gov/Immunization/5d5f4616-5d59-4301-b90b-9ca2da7d9c24",
    "resource": {
      "resourceType": "Immunization",
      "id": "5d5f4616-5d59-4301-b90b-9ca2da7d9c24",
      "meta": {
        "profile": [ "http://hl7.org/fhir/us/qicore/StructureDefinition/qicore-immunization" ]
      },
      "status": "completed",
      "vaccineCode": {
        "coding": [ {
          "system": "http://hl7.org/fhir/sid/cvx",
          "code": "153",
          "display": "Influenza, injectable, MDCK, preservative free"
        } ]
      },
      "patient": {
        "reference": "Patient/6d5e6104-3c39-4de4-835d-0e95a6ab1be6"
      },
      "occurrenceDateTime": "2025-01-10T00:00:00.000+00:00",
      "recorded": "2025-01-02T00:00:00.000+00:00",
      "primarySource": true
    },
    "request": {
      "method": "PUT",
      "url": "Immunization/5d5f4616-5d59-4301-b90b-9ca2da7d9c24"
    }
  }, {
    "fullUrl": "https://madie.cms.gov/MeasureReport/a376a86d-8f15-4a46-bbb8-76eee49fa363",
    "resource": {
      "resourceType": "MeasureReport",
      "id": "a376a86d-8f15-4a46-bbb8-76eee49fa363",
      "meta": {
        "profile": [ "http://hl7.org/fhir/us/cqfmeasures/StructureDefinition/test-case-cqfm" ]
      },
      "contained": [ {
        "resourceType": "Parameters",
        "id": "b8ca97b2-62c9-4879-ab56-8b6c3c13648d-parameters",
        "parameter": [ {
          "name": "subject",
          "valueString": "6d5e6104-3c39-4de4-835d-0e95a6ab1be6"
        } ]
      } ],
      "extension": [ {
        "url": "http://hl7.org/fhir/StructureDefinition/cqf-inputParameters",
        "valueReference": {
          "reference": "#b8ca97b2-62c9-4879-ab56-8b6c3c13648d-parameters"
        }
      }, {
        "url": "http://hl7.org/fhir/us/cqfmeasures/StructureDefinition/cqfm-testCaseDescription",
        "valueMarkdown": "Patient has rotavirus 3 dose regimen"
      } ],
      "modifierExtension": [ {
        "url": "http://hl7.org/fhir/us/cqfmeasures/StructureDefinition/cqfm-isTestCase",
        "valueBoolean": true
      } ],
      "status": "complete",
      "type": "individual",
      "measure": "https://madie.cms.gov/Measure/CMS117FHIRChildImmunStatus",
      "period": {
        "start": "2026-01-01",
        "end": "2026-12-31"
      },
      "group": [ {
        "id": "Group_1",
        "population": [ {
          "id": "InitialPopulation_1",
          "code": {
            "coding": [ {
              "system": "http://terminology.hl7.org/CodeSystem/measure-population",
              "code": "initial-population",
              "display": "Initial Population"
            } ]
          },
          "count": 1
        }, {
          "id": "Denominator_1",
          "code": {
            "coding": [ {
              "system": "http://terminology.hl7.org/CodeSystem/measure-population",
              "code": "denominator",
              "display": "Denominator"
            } ]
          },
          "count": 1
        }, {
          "id": "DenominatorExclusion_1",
          "code": {
            "coding": [ {
              "system": "http://terminology.hl7.org/CodeSystem/measure-population",
              "code": "denominator-exclusion",
              "display": "Denominator Exclusion"
            } ]
          },
          "count": 0
        }, {
          "id": "Numerator_1",
          "code": {
            "coding": [ {
              "system": "http://terminology.hl7.org/CodeSystem/measure-population",
              "code": "numerator",
              "display": "Numerator"
            } ]
          },
          "count": 1
        } ],
        "measureScore": {
          "value": 1.0
        }
      } ],
      "evaluatedResource": [ {
        "reference": "Patient/6d5e6104-3c39-4de4-835d-0e95a6ab1be6"
      }, {
        "reference": "Encounter/c7637420-dfab-4c1d-bd24-8cb5f3e80d37"
      }, {
        "reference": "Immunization/40271edf-5691-4977-9f9f-b281ff3fe21b"
      }, {
        "reference": "Immunization/3af77f9b-32da-476b-aa8d-8d4b2d84d9d0"
      }, {
        "reference": "Immunization/17c6224d-ee12-4f40-a50a-d50d0b272988"
      }, {
        "reference": "Immunization/7b91070e-1690-41ae-bbfe-9e56d802e5b0"
      }, {
        "reference": "Immunization/ec46c765-53bb-48fe-b88e-ded208a8e0f0"
      }, {
        "reference": "Immunization/338aa055-6edf-4fde-a4f9-043ee1fe3280"
      }, {
        "reference": "Immunization/96870cb0-d263-4d47-8aae-bb5438990233"
      }, {
        "reference": "Immunization/dc9f4d8b-d127-407a-a44c-38d6b69b0b26"
      }, {
        "reference": "Immunization/e47ae97a-dcc8-4a80-8129-b4a0fa1cd5ef"
      }, {
        "reference": "Immunization/1cd32319-caf7-4058-85a7-dae3ec3938ba"
      }, {
        "reference": "Immunization/61083da5-3a7d-47c2-bbd8-24b49d1d4154"
      }, {
        "reference": "Immunization/437040cc-76e5-4094-977f-88fc95141e1e"
      }, {
        "reference": "Immunization/b53c7be2-e84a-4cf8-850d-7d56bf3a05da"
      }, {
        "reference": "Immunization/31263181-42e2-485f-b7b6-d73b7aca4896"
      }, {
        "reference": "Immunization/21c61aa0-8f26-410c-8154-d7637f00c14f"
      }, {
        "reference": "Immunization/f4702f94-009c-454c-89e0-f977f1085f4d"
      }, {
        "reference": "Immunization/838b20ec-8dc1-4d3e-9cf4-05c9fef53f62"
      }, {
        "reference": "Immunization/2dc8327d-5437-44fe-b62f-ca41dc3bdb4f"
      }, {
        "reference": "Immunization/d05aab36-7895-40a9-8c9c-e20f27362a2f"
      }, {
        "reference": "Immunization/c7bc6930-d161-4218-9e80-c92e2eb305b9"
      }, {
        "reference": "Immunization/52df68e8-465c-416e-9ca7-8a718d0ff4f6"
      }, {
        "reference": "Immunization/fbb431e7-7a0b-4dfe-9e8a-a06a77ab1eac"
      }, {
        "reference": "Immunization/92a13b49-b9c6-4750-9af0-c9f4b94625b4"
      }, {
        "reference": "Immunization/9f579a12-7a1f-4eb0-8856-bc37bac98d3d"
      }, {
        "reference": "Immunization/5d5f4616-5d59-4301-b90b-9ca2da7d9c24"
      } ]
    },
    "request": {
      "method": "PUT",
      "url": "MeasureReport/a376a86d-8f15-4a46-bbb8-76eee49fa363"
    }
  } ]
}