{
  "resourceType": "Bundle",
  "id": "NUMPass-70-on-Jan1-1",
  "type": "transaction",
  "entry": [ {
    "fullUrl": "https://madie.cms.gov/Patient/22778fb6-6e45-40cf-9d3f-4deb60464fcd",
    "resource": {
      "resourceType": "Patient",
      "id": "22778fb6-6e45-40cf-9d3f-4deb60464fcd",
      "meta": {
        "profile": [ "http://hl7.org/fhir/us/qicore/StructureDefinition/qicore-patient" ]
      },
      "extension": [ {
        "url": "http://hl7.org/fhir/us/core/StructureDefinition/us-core-race",
        "extension": [ {
          "url": "ombCategory",
          "valueCoding": {
            "system": "urn:oid:2.16.840.1.113883.6.238",
            "code": "2028-9",
            "display": "Asian"
          }
        }, {
          "url": "text",
          "valueString": "Asian"
        } ]
      }, {
        "url": "http://hl7.org/fhir/us/core/StructureDefinition/us-core-ethnicity",
        "extension": [ {
          "url": "ombCategory",
          "valueCoding": {
            "system": "urn:oid:2.16.840.1.113883.6.238",
            "code": "2186-5",
            "display": "Not Hispanic or Latino"
          }
        }, {
          "url": "text",
          "valueString": "Not Hispanic or Latino"
        } ]
      } ],
      "identifier": [ {
        "system": "http://hospital.smarthealthit.org",
        "value": "999999995"
      } ],
      "name": [ {
        "family": "NUMPass",
        "given": [ "NUMPass-70-on-Jan1-1" ]
      } ],
      "gender": "male",
      "birthDate": "1956-01-01"
    },
    "request": {
      "method": "PUT",
      "url": "Patient/22778fb6-6e45-40cf-9d3f-4deb60464fcd"
    }
  }, {
    "fullUrl": "https://madie.cms.gov/Encounter/2de73873-5ad2-4f9e-8ca4-b76876ea1a41",
    "resource": {
      "resourceType": "Encounter",
      "id": "2de73873-5ad2-4f9e-8ca4-b76876ea1a41",
      "meta": {
        "profile": [ "http://hl7.org/fhir/us/qicore/StructureDefinition/qicore-encounter" ]
      },
      "status": "finished",
      "class": {
        "system": "http://terminology.hl7.org/CodeSystem/v3-ActCode",
        "code": "AMB",
        "display": "ambulatory"
      },
      "type": [ {
        "coding": [ {
          "system": "http://snomed.info/sct",
          "code": "11429006"
        } ]
      } ],
      "subject": {
        "reference": "Patient/22778fb6-6e45-40cf-9d3f-4deb60464fcd"
      },
      "period": {
        "start": "2026-01-04T08:00:00.000+00:00",
        "end": "2026-01-04T08:00:00.000+00:00"
      }
    },
    "request": {
      "method": "PUT",
      "url": "Encounter/2de73873-5ad2-4f9e-8ca4-b76876ea1a41"
    }
  }, {
    "fullUrl": "https://madie.cms.gov/Encounter/1db34a0b-42ef-42ea-a003-b284d8bcf1b6",
    "resource": {
      "resourceType": "Encounter",
      "id": "1db34a0b-42ef-42ea-a003-b284d8bcf1b6",
      "meta": {
        "profile": [ "http://hl7.org/fhir/us/qicore/StructureDefinition/qicore-encounter" ]
      },
      "status": "finished",
      "class": {
        "system": "http://terminology.hl7.org/CodeSystem/v3-ActCode",
        "code": "AMB",
        "display": "ambulatory"
      },
      "type": [ {
        "coding": [ {
          "system": "http://www.ama-assn.org/go/cpt",
          "code": "99203",
          "display": "Office or other outpatient visit for the evaluation and management of a new patient, which requires a medically appropriate history and/or examination and low level of medical decision making. When using time for code selection, 30-44 minutes of total time is spent on the date of the encounter."
        } ]
      } ],
      "subject": {
        "reference": "Patient/22778fb6-6e45-40cf-9d3f-4deb60464fcd"
      },
      "period": {
        "start": "2026-01-04T08:00:00.000+00:00",
        "end": "2026-01-04T08:00:00.000+00:00"
      }
    },
    "request": {
      "method": "PUT",
      "url": "Encounter/1db34a0b-42ef-42ea-a003-b284d8bcf1b6"
    }
  }, {
    "fullUrl": "https://madie.cms.gov/Observation/7caac2b7-c2dd-4f4c-a179-d276f1af4f68",
    "resource": {
      "resourceType": "Observation",
      "id": "7caac2b7-c2dd-4f4c-a179-d276f1af4f68",
      "meta": {
        "profile": [ "http://hl7.org/fhir/us/core/StructureDefinition/us-core-bmi" ]
      },
      "status": "final",
      "category": [ {
        "coding": [ {
          "system": "http://terminology.hl7.org/CodeSystem/observation-category",
          "code": "vital-signs",
          "display": "Vital Signs"
        } ]
      } ],
      "code": {
        "coding": [ {
          "system": "http://loinc.org",
          "code": "39156-5",
          "display": "Body mass index (BMI) [Ratio]"
        } ]
      },
      "subject": {
        "reference": "Patient/22778fb6-6e45-40cf-9d3f-4deb60464fcd"
      },
      "effectiveDateTime": "2026-01-04T08:00:00.000+00:00",
      "issued": "2026-01-04T08:00:00.000+00:00",
      "valueQuantity": {
        "value": 23,
        "unit": "kg/m2",
        "system": "http://unitsofmeasure.org",
        "code": "kg/m2"
      }
    },
    "request": {
      "method": "PUT",
      "url": "Observation/7caac2b7-c2dd-4f4c-a179-d276f1af4f68"
    }
  }, {
    "fullUrl": "https://madie.cms.gov/Condition/d8484d09-8a97-448a-b96d-a19a02dc145d",
    "resource": {
      "resourceType": "Condition",
      "id": "d8484d09-8a97-448a-b96d-a19a02dc145d",
      "meta": {
        "profile": [ "http://hl7.org/fhir/us/qicore/StructureDefinition/qicore-condition-problems-health-concerns" ]
      },
      "clinicalStatus": {
        "coding": [ {
          "system": "http://terminology.hl7.org/CodeSystem/condition-clinical",
          "code": "active",
          "display": "active",
          "userSelected": true
        } ]
      },
      "category": [ {
        "coding": [ {
          "system": "http://terminology.hl7.org/CodeSystem/condition-category",
          "code": "problem-list-item",
          "display": "Problem List Item"
        } ]
      } ],
      "code": {
        "coding": [ {
          "system": "http://snomed.info/sct",
          "code": "714628002"
        } ]
      },
      "subject": {
        "reference": "Patient/22778fb6-6e45-40cf-9d3f-4deb60464fcd"
      },
      "onsetDateTime": "2024-01-01T00:00:00.000+00:00"
    },
    "request": {
      "method": "PUT",
      "url": "Condition/d8484d09-8a97-448a-b96d-a19a02dc145d"
    }
  }, {
    "fullUrl": "https://madie.cms.gov/MeasureReport/9bd6e6e7-0842-46cb-b533-a09689b18452",
    "resource": {
      "resourceType": "MeasureReport",
      "id": "9bd6e6e7-0842-46cb-b533-a09689b18452",
      "meta": {
        "profile": [ "http://hl7.org/fhir/us/cqfmeasures/StructureDefinition/test-case-cqfm" ]
      },
      "contained": [ {
        "resourceType": "Parameters",
        "id": "6bff71cf-dd1e-46ba-94a4-2c341bd9202e-parameters",
        "parameter": [ {
          "name": "subject",
          "valueString": "22778fb6-6e45-40cf-9d3f-4deb60464fcd"
        } ]
      } ],
      "extension": [ {
        "url": "http://hl7.org/fhir/StructureDefinition/cqf-inputParameters",
        "valueReference": {
          "reference": "#6bff71cf-dd1e-46ba-94a4-2c341bd9202e-parameters"
        }
      }, {
        "url": "http://hl7.org/fhir/us/cqfmeasures/StructureDefinition/cqfm-testCaseDescription",
        "valueMarkdown": "DENEX-prediabetes-diagnosis-dayoftestJan1-startofLB"
      } ],
      "modifierExtension": [ {
        "url": "http://hl7.org/fhir/us/cqfmeasures/StructureDefinition/cqfm-isTestCase",
        "valueBoolean": true
      } ],
      "status": "complete",
      "type": "individual",
      "measure": "https://madie.cms.gov/Measure/CMS1154ScreeningPrediabetesFHIR",
      "period": {
        "start": "2026-01-01",
        "end": "2026-12-31"
      },
      "group": [ {
        "id": "Group_1",
        "population": [ {
          "id": "InitialPopulation_1",
          "code": {
            "coding": [ {
              "system": "http://terminology.hl7.org/CodeSystem/measure-population",
              "code": "initial-population",
              "display": "Initial Population"
            } ]
          },
          "count": 1
        }, {
          "id": "Denominator_1",
          "code": {
            "coding": [ {
              "system": "http://terminology.hl7.org/CodeSystem/measure-population",
              "code": "denominator",
              "display": "Denominator"
            } ]
          },
          "count": 1
        }, {
          "id": "DenominatorExclusion_1",
          "code": {
            "coding": [ {
              "system": "http://terminology.hl7.org/CodeSystem/measure-population",
              "code": "denominator-exclusion",
              "display": "Denominator Exclusion"
            } ]
          },
          "count": 1
        }, {
          "id": "Numerator_1",
          "code": {
            "coding": [ {
              "system": "http://terminology.hl7.org/CodeSystem/measure-population",
              "code": "numerator",
              "display": "Numerator"
            } ]
          },
          "count": 0
        } ],
        "measureScore": {
          "value": 1.0
        }
      } ],
      "evaluatedResource": [ {
        "reference": "Patient/22778fb6-6e45-40cf-9d3f-4deb60464fcd"
      }, {
        "reference": "Encounter/2de73873-5ad2-4f9e-8ca4-b76876ea1a41"
      }, {
        "reference": "Encounter/1db34a0b-42ef-42ea-a003-b284d8bcf1b6"
      }, {
        "reference": "Observation/7caac2b7-c2dd-4f4c-a179-d276f1af4f68"
      }, {
        "reference": "Condition/d8484d09-8a97-448a-b96d-a19a02dc145d"
      } ]
    },
    "request": {
      "method": "PUT",
      "url": "MeasureReport/9bd6e6e7-0842-46cb-b533-a09689b18452"
    }
  } ]
}