{
  "resourceType": "Bundle",
  "id": "63487c2e0968f8012254018b",
  "type": "transaction",
  "entry": [ {
    "fullUrl": "https://madie.cms.gov/Patient/5ac2ee37-6c3c-47e1-9e40-6953722ae5ee",
    "resource": {
      "resourceType": "Patient",
      "id": "5ac2ee37-6c3c-47e1-9e40-6953722ae5ee",
      "meta": {
        "profile": [ "http://hl7.org/fhir/us/qicore/StructureDefinition/qicore-patient" ]
      },
      "text": {
        "status": "generated",
        "div": "<div xmlns=\"http://www.w3.org/1999/xhtml\"><div class=\"hapiHeaderText\">HerpesDxReasonCode<b>DENEXPASS</b></div><table class=\"hapiPropertyTable\"><tbody><tr><td>Identifier</td><td>26ae2095ae359d33c45002ef417f38a5e4f6a61da3ea75d0332f68a4cb93137e</td></tr><tr><td>Date of birth</td><td><span>14 February 1985</span></td></tr></tbody></table></div>"
      },
      "extension": [ {
        "url": "http://hl7.org/fhir/us/core/StructureDefinition/us-core-race",
        "extension": [ {
          "url": "ombCategory",
          "valueCoding": {
            "system": "urn:oid:2.16.840.1.113883.6.238",
            "code": "1002-5",
            "display": "American Indian or Alaska Native",
            "userSelected": true
          }
        }, {
          "url": "text",
          "valueString": "American Indian or Alaska Native"
        } ]
      }, {
        "url": "http://hl7.org/fhir/us/core/StructureDefinition/us-core-ethnicity",
        "extension": [ {
          "url": "ombCategory",
          "valueCoding": {
            "system": "urn:oid:2.16.840.1.113883.6.238",
            "code": "2135-2",
            "display": "Hispanic or Latino",
            "userSelected": true
          }
        }, {
          "url": "text",
          "valueString": "Hispanic or Latino"
        } ]
      } ],
      "identifier": [ {
        "type": {
          "coding": [ {
            "system": "http://terminology.hl7.org/CodeSystem/v2-0203",
            "code": "MR"
          } ]
        },
        "system": "https://bonnie-fhir.healthit.gov/",
        "value": "63487c2e0968f8012254018b"
      } ],
      "active": true,
      "name": [ {
        "use": "usual",
        "family": "DENEXPass",
        "given": [ "HerpesDxReasonCode" ]
      } ],
      "gender": "female",
      "birthDate": "1998-02-14"
    },
    "request": {
      "method": "PUT",
      "url": "Patient/5ac2ee37-6c3c-47e1-9e40-6953722ae5ee"
    }
  }, {
    "fullUrl": "https://madie.cms.gov/Observation/fdcb7d96-0904-4579-8365-9228ea9298c0",
    "resource": {
      "resourceType": "Observation",
      "id": "fdcb7d96-0904-4579-8365-9228ea9298c0",
      "meta": {
        "profile": [ "http://hl7.org/fhir/us/qicore/StructureDefinition/qicore-simple-observation" ]
      },
      "status": "final",
      "category": [ {
        "coding": [ {
          "system": "http://terminology.hl7.org/CodeSystem/observation-category",
          "code": "exam",
          "display": "exam",
          "userSelected": true
        } ]
      } ],
      "code": {
        "coding": [ {
          "system": "http://loinc.org",
          "code": "11996-6"
        } ]
      },
      "subject": {
        "reference": "Patient/5ac2ee37-6c3c-47e1-9e40-6953722ae5ee"
      },
      "effectiveDateTime": "2026-06-08T08:00:00.000+00:00",
      "performer": [ {
        "reference": "Organization/example1",
        "display": "Hendricks Country Hospital"
      } ],
      "valueInteger": 1
    },
    "request": {
      "method": "PUT",
      "url": "Observation/fdcb7d96-0904-4579-8365-9228ea9298c0"
    }
  }, {
    "fullUrl": "https://madie.cms.gov/Observation/a1965a98-fb70-4e6d-aae1-fa90f1b589ba",
    "resource": {
      "resourceType": "Observation",
      "id": "a1965a98-fb70-4e6d-aae1-fa90f1b589ba",
      "meta": {
        "profile": [ "http://hl7.org/fhir/us/qicore/StructureDefinition/qicore-simple-observation" ]
      },
      "status": "final",
      "category": [ {
        "coding": [ {
          "system": "http://terminology.hl7.org/CodeSystem/observation-category",
          "code": "exam",
          "display": "exam",
          "userSelected": true
        } ]
      } ],
      "code": {
        "coding": [ {
          "system": "http://loinc.org",
          "code": "11884-4"
        } ]
      },
      "subject": {
        "reference": "Patient/5ac2ee37-6c3c-47e1-9e40-6953722ae5ee"
      },
      "effectiveDateTime": "2026-06-08T08:00:00.000+00:00",
      "performer": [ {
        "reference": "Organization/example1",
        "display": "Hendricks Country Hospital"
      } ],
      "valueQuantity": {
        "value": 43,
        "system": "http://unitsofmeasure.org",
        "code": "wk"
      }
    },
    "request": {
      "method": "PUT",
      "url": "Observation/a1965a98-fb70-4e6d-aae1-fa90f1b589ba"
    }
  }, {
    "fullUrl": "https://madie.cms.gov/Observation/dea96469-a442-4baa-88c3-8316c9c57ae0",
    "resource": {
      "resourceType": "Observation",
      "id": "dea96469-a442-4baa-88c3-8316c9c57ae0",
      "meta": {
        "profile": [ "http://hl7.org/fhir/us/qicore/StructureDefinition/qicore-simple-observation" ]
      },
      "status": "final",
      "category": [ {
        "coding": [ {
          "system": "http://terminology.hl7.org/CodeSystem/observation-category",
          "code": "exam",
          "display": "exam",
          "userSelected": true
        } ]
      } ],
      "code": {
        "coding": [ {
          "system": "http://loinc.org",
          "code": "93857-1"
        } ]
      },
      "subject": {
        "reference": "Patient/5ac2ee37-6c3c-47e1-9e40-6953722ae5ee"
      },
      "effectiveDateTime": "2026-06-08T20:00:00.000+00:00",
      "performer": [ {
        "reference": "Organization/example1",
        "display": "Hendricks Country Hospital"
      } ],
      "valueDateTime": "2026-06-08T20:00:00.000+00:00"
    },
    "request": {
      "method": "PUT",
      "url": "Observation/dea96469-a442-4baa-88c3-8316c9c57ae0"
    }
  }, {
    "fullUrl": "https://madie.cms.gov/Encounter/67dea233-8bb4-478e-891b-e26018e5b451",
    "resource": {
      "resourceType": "Encounter",
      "id": "67dea233-8bb4-478e-891b-e26018e5b451",
      "meta": {
        "profile": [ "http://hl7.org/fhir/us/qicore/StructureDefinition/qicore-encounter" ]
      },
      "status": "finished",
      "class": {
        "system": "http://terminology.hl7.org/CodeSystem/v3-ActCode",
        "code": "IMP",
        "display": "inpatient encounter"
      },
      "type": [ {
        "coding": [ {
          "system": "http://snomed.info/sct",
          "code": "8715000"
        } ]
      } ],
      "subject": {
        "reference": "Patient/5ac2ee37-6c3c-47e1-9e40-6953722ae5ee"
      },
      "period": {
        "start": "2026-06-08T08:00:00.000+00:00",
        "end": "2026-06-10T08:15:00.000+00:00"
      },
      "reasonCode": [ {
        "coding": [ {
          "system": "http://snomed.info/sct",
          "code": "129670002",
          "display": "Herpetic cervicitis (disorder)"
        } ]
      } ],
      "reasonReference": [ {
        "reference": "Condition/8d4df319-6117-46ab-b987-3a949a96aeba"
      } ]
    },
    "request": {
      "method": "PUT",
      "url": "Encounter/67dea233-8bb4-478e-891b-e26018e5b451"
    }
  }, {
    "fullUrl": "https://madie.cms.gov/Procedure/e81aeedf-8a4d-49a5-af03-22be8d8c3ea0",
    "resource": {
      "resourceType": "Procedure",
      "id": "e81aeedf-8a4d-49a5-af03-22be8d8c3ea0",
      "meta": {
        "profile": [ "http://hl7.org/fhir/us/qicore/StructureDefinition/qicore-procedure" ]
      },
      "extension": [ {
        "url": "http://hl7.org/fhir/us/qicore/StructureDefinition/qicore-recorded",
        "valueDateTime": "2014-04-05T13:35:00.000+00:00"
      } ],
      "status": "completed",
      "code": {
        "coding": [ {
          "system": "http://snomed.info/sct",
          "code": "4504004"
        } ]
      },
      "subject": {
        "reference": "Patient/5ac2ee37-6c3c-47e1-9e40-6953722ae5ee"
      },
      "performedPeriod": {
        "start": "2026-06-08T20:00:00.000+00:00",
        "end": "2026-06-18T20:00:00.000+00:00"
      }
    },
    "request": {
      "method": "PUT",
      "url": "Procedure/e81aeedf-8a4d-49a5-af03-22be8d8c3ea0"
    }
  }, {
    "fullUrl": "https://madie.cms.gov/Condition/8d4df319-6117-46ab-b987-3a949a96aeba",
    "resource": {
      "resourceType": "Condition",
      "id": "8d4df319-6117-46ab-b987-3a949a96aeba",
      "meta": {
        "profile": [ "http://hl7.org/fhir/us/qicore/StructureDefinition/qicore-condition-problems-health-concerns" ]
      },
      "category": [ {
        "coding": [ {
          "system": "http://terminology.hl7.org/CodeSystem/condition-category",
          "code": "encounter-diagnosis",
          "display": "Encounter Diagnosis"
        } ]
      } ],
      "code": {
        "coding": [ {
          "system": "http://snomed.info/sct",
          "version": "2022-09",
          "code": "169826009",
          "display": "Single live birth (finding)",
          "userSelected": true
        } ]
      },
      "subject": {
        "reference": "Patient/5ac2ee37-6c3c-47e1-9e40-6953722ae5ee"
      },
      "encounter": {
        "reference": "Encounter/67dea233-8bb4-478e-891b-e26018e5b451"
      },
      "recordedDate": "2026-10-17T08:00:00.000+00:00"
    },
    "request": {
      "method": "PUT",
      "url": "Condition/8d4df319-6117-46ab-b987-3a949a96aeba"
    }
  }, {
    "fullUrl": "https://madie.cms.gov/Coverage/a92877a1-7db3-4ad3-83ec-0a6c75da847c",
    "resource": {
      "resourceType": "Coverage",
      "id": "a92877a1-7db3-4ad3-83ec-0a6c75da847c",
      "meta": {
        "profile": [ "http://hl7.org/fhir/us/qicore/StructureDefinition/qicore-coverage" ]
      },
      "status": "active",
      "subscriberId": "523435",
      "beneficiary": {
        "reference": "Patient/5ac2ee37-6c3c-47e1-9e40-6953722ae5ee"
      },
      "relationship": {
        "coding": [ {
          "system": "http://terminology.hl7.org/CodeSystem/subscriber-relationship",
          "code": "self"
        } ]
      },
      "payor": [ {
        "reference": "Organization/bc833794-9f16-4acd-b20f-83d3ee383c46"
      } ]
    },
    "request": {
      "method": "PUT",
      "url": "Coverage/a92877a1-7db3-4ad3-83ec-0a6c75da847c"
    }
  }, {
    "fullUrl": "https://madie.cms.gov/Organization/bc833794-9f16-4acd-b20f-83d3ee383c46",
    "resource": {
      "resourceType": "Organization",
      "id": "bc833794-9f16-4acd-b20f-83d3ee383c46",
      "meta": {
        "profile": [ "http://hl7.org/fhir/us/qicore/StructureDefinition/qicore-organization" ]
      },
      "identifier": [ {
        "use": "temp",
        "system": "urn:oid:2.16.840.1.113883.4.4",
        "value": "21-3259825"
      } ],
      "active": true,
      "type": [ {
        "coding": [ {
          "system": "http://terminology.hl7.org/CodeSystem/organization-type",
          "code": "pay",
          "display": "Payer"
        } ]
      } ],
      "name": "Blue Cross Blue Shield of Texas",
      "telecom": [ {
        "system": "phone",
        "value": "(+1) 972-766-6900"
      } ],
      "address": [ {
        "use": "billing",
        "type": "postal",
        "line": [ "P.O. Box 660044" ],
        "city": "Dallas",
        "state": "TX",
        "postalCode": "75266-0044",
        "country": "USA"
      } ]
    },
    "request": {
      "method": "PUT",
      "url": "Organization/bc833794-9f16-4acd-b20f-83d3ee383c46"
    }
  }, {
    "fullUrl": "https://madie.cms.gov/Practitioner/c4d625f9-efcb-4a48-96b8-43b7bdd6286b",
    "resource": {
      "resourceType": "Practitioner",
      "id": "c4d625f9-efcb-4a48-96b8-43b7bdd6286b",
      "meta": {
        "profile": [ "http://hl7.org/fhir/us/qicore/StructureDefinition/qicore-practitioner" ]
      },
      "identifier": [ {
        "system": "http://hl7.org/fhir/sid/us-npi",
        "value": "1234567890"
      } ],
      "name": [ {
        "family": "Evil",
        "prefix": [ "Dr" ]
      } ]
    },
    "request": {
      "method": "PUT",
      "url": "Practitioner/c4d625f9-efcb-4a48-96b8-43b7bdd6286b"
    }
  }, {
    "fullUrl": "https://madie.cms.gov/MeasureReport/149a3788-befe-4820-b069-b45302ee53cc",
    "resource": {
      "resourceType": "MeasureReport",
      "id": "149a3788-befe-4820-b069-b45302ee53cc",
      "meta": {
        "profile": [ "http://hl7.org/fhir/us/cqfmeasures/StructureDefinition/test-case-cqfm" ]
      },
      "contained": [ {
        "resourceType": "Parameters",
        "id": "e1c37de0-1d75-47be-881a-828484ec541d-parameters",
        "parameter": [ {
          "name": "subject",
          "valueString": "5ac2ee37-6c3c-47e1-9e40-6953722ae5ee"
        } ]
      } ],
      "extension": [ {
        "url": "http://hl7.org/fhir/StructureDefinition/cqf-inputParameters",
        "valueReference": {
          "reference": "#e1c37de0-1d75-47be-881a-828484ec541d-parameters"
        }
      }, {
        "url": "http://hl7.org/fhir/us/cqfmeasures/StructureDefinition/cqfm-testCaseDescription",
        "valueMarkdown": "reasonCode Herpes encounter diagnosis"
      } ],
      "modifierExtension": [ {
        "url": "http://hl7.org/fhir/us/cqfmeasures/StructureDefinition/cqfm-isTestCase",
        "valueBoolean": true
      } ],
      "status": "complete",
      "type": "individual",
      "measure": "https://madie.cms.gov/Measure/CMS0334FHIRPCCesareanBirth",
      "period": {
        "start": "2026-01-01",
        "end": "2026-12-31"
      },
      "group": [ {
        "id": "Group_1",
        "population": [ {
          "id": "InitialPopulation_1",
          "code": {
            "coding": [ {
              "system": "http://terminology.hl7.org/CodeSystem/measure-population",
              "code": "initial-population",
              "display": "Initial Population"
            } ]
          },
          "count": 1
        }, {
          "id": "Denominator_1",
          "code": {
            "coding": [ {
              "system": "http://terminology.hl7.org/CodeSystem/measure-population",
              "code": "denominator",
              "display": "Denominator"
            } ]
          },
          "count": 1
        }, {
          "id": "DenominatorExclusion_1",
          "code": {
            "coding": [ {
              "system": "http://terminology.hl7.org/CodeSystem/measure-population",
              "code": "denominator-exclusion",
              "display": "Denominator Exclusion"
            } ]
          },
          "count": 1
        }, {
          "id": "Numerator_1",
          "code": {
            "coding": [ {
              "system": "http://terminology.hl7.org/CodeSystem/measure-population",
              "code": "numerator",
              "display": "Numerator"
            } ]
          },
          "count": 0
        } ],
        "measureScore": {
          "value": 0.0
        }
      } ],
      "evaluatedResource": [ {
        "reference": "Patient/5ac2ee37-6c3c-47e1-9e40-6953722ae5ee"
      }, {
        "reference": "Observation/fdcb7d96-0904-4579-8365-9228ea9298c0"
      }, {
        "reference": "Observation/a1965a98-fb70-4e6d-aae1-fa90f1b589ba"
      }, {
        "reference": "Observation/dea96469-a442-4baa-88c3-8316c9c57ae0"
      }, {
        "reference": "Encounter/67dea233-8bb4-478e-891b-e26018e5b451"
      }, {
        "reference": "Procedure/e81aeedf-8a4d-49a5-af03-22be8d8c3ea0"
      }, {
        "reference": "Condition/8d4df319-6117-46ab-b987-3a949a96aeba"
      }, {
        "reference": "Coverage/a92877a1-7db3-4ad3-83ec-0a6c75da847c"
      }, {
        "reference": "Organization/bc833794-9f16-4acd-b20f-83d3ee383c46"
      }, {
        "reference": "Practitioner/c4d625f9-efcb-4a48-96b8-43b7bdd6286b"
      } ]
    },
    "request": {
      "method": "PUT",
      "url": "MeasureReport/149a3788-befe-4820-b069-b45302ee53cc"
    }
  } ]
}