{
  "resourceType": "Bundle",
  "id": "NUMERPass-AllAnaphylaxisOrConditionsEncDx",
  "type": "transaction",
  "entry": [ {
    "fullUrl": "https://madie.cms.gov/Patient/d15084d8-eb30-4cc4-aa43-94648cca8e2a",
    "resource": {
      "resourceType": "Patient",
      "id": "d15084d8-eb30-4cc4-aa43-94648cca8e2a",
      "meta": {
        "profile": [ "http://hl7.org/fhir/us/qicore/StructureDefinition/qicore-patient" ]
      },
      "extension": [ {
        "url": "http://hl7.org/fhir/us/core/StructureDefinition/us-core-race",
        "extension": [ {
          "url": "ombCategory",
          "valueCoding": {
            "system": "urn:oid:2.16.840.1.113883.6.238",
            "code": "2028-9",
            "display": "Asian",
            "userSelected": true
          }
        }, {
          "url": "text",
          "valueString": "Asian"
        } ]
      }, {
        "url": "http://hl7.org/fhir/us/core/StructureDefinition/us-core-ethnicity",
        "extension": [ {
          "url": "ombCategory",
          "valueCoding": {
            "system": "urn:oid:2.16.840.1.113883.6.238",
            "code": "2135-2",
            "display": "Hispanic or Latino",
            "userSelected": true
          }
        }, {
          "url": "text",
          "valueString": "Hispanic or Latino"
        } ]
      } ],
      "identifier": [ {
        "type": {
          "coding": [ {
            "system": "http://terminology.hl7.org/CodeSystem/v2-0203",
            "code": "MR"
          } ]
        },
        "system": "http://hospital.smarthealthit.org",
        "value": "999999995"
      } ],
      "name": [ {
        "family": "Bertha",
        "given": [ "Betty" ]
      } ],
      "gender": "female",
      "birthDate": "2024-01-01"
    },
    "request": {
      "method": "PUT",
      "url": "Patient/d15084d8-eb30-4cc4-aa43-94648cca8e2a"
    }
  }, {
    "fullUrl": "https://madie.cms.gov/Encounter/200215de-c496-4ba6-9d4d-44930236ae79",
    "resource": {
      "resourceType": "Encounter",
      "id": "200215de-c496-4ba6-9d4d-44930236ae79",
      "meta": {
        "profile": [ "http://hl7.org/fhir/us/qicore/StructureDefinition/qicore-encounter" ]
      },
      "status": "finished",
      "class": {
        "system": "http://terminology.hl7.org/CodeSystem/v3-ActCode",
        "code": "AMB",
        "display": "ambulatory"
      },
      "type": [ {
        "coding": [ {
          "system": "http://snomed.info/sct",
          "code": "185317003",
          "display": "Telephone encounter (procedure)"
        } ]
      } ],
      "subject": {
        "reference": "Patient/d15084d8-eb30-4cc4-aa43-94648cca8e2a"
      },
      "period": {
        "start": "2026-01-01T01:00:00.000+00:00",
        "end": "2026-01-01T01:15:00.000+00:00"
      }
    },
    "request": {
      "method": "PUT",
      "url": "Encounter/200215de-c496-4ba6-9d4d-44930236ae79"
    }
  }, {
    "fullUrl": "https://madie.cms.gov/Condition/9d17ef29-459d-4446-a9e6-22724aab1657",
    "resource": {
      "resourceType": "Condition",
      "id": "9d17ef29-459d-4446-a9e6-22724aab1657",
      "meta": {
        "profile": [ "http://hl7.org/fhir/us/qicore/StructureDefinition/qicore-condition-encounter-diagnosis" ]
      },
      "clinicalStatus": {
        "coding": [ {
          "system": "http://terminology.hl7.org/CodeSystem/condition-clinical",
          "code": "active"
        } ]
      },
      "category": [ {
        "coding": [ {
          "system": "http://terminology.hl7.org/CodeSystem/condition-category",
          "code": "encounter-diagnosis",
          "display": "Encounter Diagnosis"
        } ]
      } ],
      "code": {
        "coding": [ {
          "system": "http://snomed.info/sct",
          "code": "192711008",
          "display": "Post diphtheria vaccination encephalitis (disorder)"
        } ]
      },
      "subject": {
        "reference": "Patient/d15084d8-eb30-4cc4-aa43-94648cca8e2a"
      },
      "onsetDateTime": "2025-01-02T00:00:00.000+00:00"
    },
    "request": {
      "method": "PUT",
      "url": "Condition/9d17ef29-459d-4446-a9e6-22724aab1657"
    }
  }, {
    "fullUrl": "https://madie.cms.gov/Condition/30178dba-342e-4f28-8d13-a3bf7fcbb095",
    "resource": {
      "resourceType": "Condition",
      "id": "30178dba-342e-4f28-8d13-a3bf7fcbb095",
      "meta": {
        "profile": [ "http://hl7.org/fhir/us/qicore/StructureDefinition/qicore-condition-encounter-diagnosis" ]
      },
      "clinicalStatus": {
        "coding": [ {
          "system": "http://terminology.hl7.org/CodeSystem/condition-clinical",
          "code": "active"
        } ]
      },
      "category": [ {
        "coding": [ {
          "system": "http://terminology.hl7.org/CodeSystem/condition-category",
          "code": "encounter-diagnosis",
          "display": "Encounter Diagnosis"
        } ]
      } ],
      "code": {
        "coding": [ {
          "system": "http://snomed.info/sct",
          "code": "471321000124106",
          "display": "Anaphylaxis caused by vaccine product containing human poliovirus antigen (disorder)"
        } ]
      },
      "subject": {
        "reference": "Patient/d15084d8-eb30-4cc4-aa43-94648cca8e2a"
      },
      "onsetDateTime": "2025-01-02T00:00:00.000+00:00"
    },
    "request": {
      "method": "PUT",
      "url": "Condition/30178dba-342e-4f28-8d13-a3bf7fcbb095"
    }
  }, {
    "fullUrl": "https://madie.cms.gov/Condition/be4a69a9-060d-4b0a-9f99-de32cd6d08ff",
    "resource": {
      "resourceType": "Condition",
      "id": "be4a69a9-060d-4b0a-9f99-de32cd6d08ff",
      "meta": {
        "profile": [ "http://hl7.org/fhir/us/qicore/StructureDefinition/qicore-condition-encounter-diagnosis" ]
      },
      "clinicalStatus": {
        "coding": [ {
          "system": "http://terminology.hl7.org/CodeSystem/condition-clinical",
          "code": "active"
        } ]
      },
      "category": [ {
        "coding": [ {
          "system": "http://terminology.hl7.org/CodeSystem/condition-category",
          "code": "encounter-diagnosis",
          "display": "Encounter Diagnosis"
        } ]
      } ],
      "code": {
        "coding": [ {
          "system": "http://snomed.info/sct",
          "code": "471331000124109",
          "display": "Anaphylaxis caused by vaccine product containing Measles morbillivirus and Mumps orthorubulavirus and Rubella virus antigens (disorder)"
        } ]
      },
      "subject": {
        "reference": "Patient/d15084d8-eb30-4cc4-aa43-94648cca8e2a"
      },
      "onsetDateTime": "2025-01-02T00:00:00.000+00:00"
    },
    "request": {
      "method": "PUT",
      "url": "Condition/be4a69a9-060d-4b0a-9f99-de32cd6d08ff"
    }
  }, {
    "fullUrl": "https://madie.cms.gov/Condition/16f4cfe7-646a-430b-a53e-95b47ffe26f3",
    "resource": {
      "resourceType": "Condition",
      "id": "16f4cfe7-646a-430b-a53e-95b47ffe26f3",
      "meta": {
        "profile": [ "http://hl7.org/fhir/us/qicore/StructureDefinition/qicore-condition-encounter-diagnosis" ]
      },
      "clinicalStatus": {
        "coding": [ {
          "system": "http://terminology.hl7.org/CodeSystem/condition-clinical",
          "code": "active"
        } ]
      },
      "category": [ {
        "coding": [ {
          "system": "http://terminology.hl7.org/CodeSystem/condition-category",
          "code": "encounter-diagnosis",
          "display": "Encounter Diagnosis"
        } ]
      } ],
      "code": {
        "coding": [ {
          "system": "http://snomed.info/sct",
          "code": "433621000124101",
          "display": "Anaphylaxis caused by vaccine product containing only Haemophilus influenzae type b antigen"
        } ]
      },
      "subject": {
        "reference": "Patient/d15084d8-eb30-4cc4-aa43-94648cca8e2a"
      },
      "onsetDateTime": "2025-01-02T00:00:00.000+00:00"
    },
    "request": {
      "method": "PUT",
      "url": "Condition/16f4cfe7-646a-430b-a53e-95b47ffe26f3"
    }
  }, {
    "fullUrl": "https://madie.cms.gov/Condition/583c1288-2f33-413f-aac3-4025faf1f468",
    "resource": {
      "resourceType": "Condition",
      "id": "583c1288-2f33-413f-aac3-4025faf1f468",
      "meta": {
        "profile": [ "http://hl7.org/fhir/us/qicore/StructureDefinition/qicore-condition-encounter-diagnosis" ]
      },
      "clinicalStatus": {
        "coding": [ {
          "system": "http://terminology.hl7.org/CodeSystem/condition-clinical",
          "code": "active"
        } ]
      },
      "category": [ {
        "coding": [ {
          "system": "http://terminology.hl7.org/CodeSystem/condition-category",
          "code": "encounter-diagnosis",
          "display": "Encounter Diagnosis"
        } ]
      } ],
      "code": {
        "coding": [ {
          "system": "http://snomed.info/sct",
          "code": "235864009",
          "display": "Acute hepatitis B with hepatitis D (disorder)"
        } ]
      },
      "subject": {
        "reference": "Patient/d15084d8-eb30-4cc4-aa43-94648cca8e2a"
      },
      "onsetDateTime": "2025-01-02T00:00:00.000+00:00"
    },
    "request": {
      "method": "PUT",
      "url": "Condition/583c1288-2f33-413f-aac3-4025faf1f468"
    }
  }, {
    "fullUrl": "https://madie.cms.gov/Condition/4cc12ffb-8d47-48a1-befd-2b143ddee41d",
    "resource": {
      "resourceType": "Condition",
      "id": "4cc12ffb-8d47-48a1-befd-2b143ddee41d",
      "meta": {
        "profile": [ "http://hl7.org/fhir/us/qicore/StructureDefinition/qicore-condition-encounter-diagnosis" ]
      },
      "clinicalStatus": {
        "coding": [ {
          "system": "http://terminology.hl7.org/CodeSystem/condition-clinical",
          "code": "active"
        } ]
      },
      "category": [ {
        "coding": [ {
          "system": "http://terminology.hl7.org/CodeSystem/condition-category",
          "code": "encounter-diagnosis",
          "display": "Encounter Diagnosis"
        } ]
      } ],
      "code": {
        "coding": [ {
          "system": "http://snomed.info/sct",
          "code": "426570007",
          "display": "Herpes zoster interstitial keratitis (disorder)"
        } ]
      },
      "subject": {
        "reference": "Patient/d15084d8-eb30-4cc4-aa43-94648cca8e2a"
      },
      "onsetDateTime": "2025-01-02T00:00:00.000+00:00"
    },
    "request": {
      "method": "PUT",
      "url": "Condition/4cc12ffb-8d47-48a1-befd-2b143ddee41d"
    }
  }, {
    "fullUrl": "https://madie.cms.gov/Condition/e90dd43e-e270-45bd-ab93-9e68fdf5e352",
    "resource": {
      "resourceType": "Condition",
      "id": "e90dd43e-e270-45bd-ab93-9e68fdf5e352",
      "meta": {
        "profile": [ "http://hl7.org/fhir/us/qicore/StructureDefinition/qicore-condition-encounter-diagnosis" ]
      },
      "clinicalStatus": {
        "coding": [ {
          "system": "http://terminology.hl7.org/CodeSystem/condition-clinical",
          "code": "active"
        } ]
      },
      "category": [ {
        "coding": [ {
          "system": "http://terminology.hl7.org/CodeSystem/condition-category",
          "code": "encounter-diagnosis",
          "display": "Encounter Diagnosis"
        } ]
      } ],
      "code": {
        "coding": [ {
          "system": "http://snomed.info/sct",
          "code": "471141000124102",
          "display": "Anaphylaxis caused by vaccine product containing Streptococcus pneumoniae antigen (disorder)"
        } ]
      },
      "subject": {
        "reference": "Patient/d15084d8-eb30-4cc4-aa43-94648cca8e2a"
      },
      "onsetDateTime": "2025-01-12T00:00:00.000+00:00"
    },
    "request": {
      "method": "PUT",
      "url": "Condition/e90dd43e-e270-45bd-ab93-9e68fdf5e352"
    }
  }, {
    "fullUrl": "https://madie.cms.gov/Condition/c2f77af8-6a1c-43f6-8a33-c35d96c93e81",
    "resource": {
      "resourceType": "Condition",
      "id": "c2f77af8-6a1c-43f6-8a33-c35d96c93e81",
      "meta": {
        "profile": [ "http://hl7.org/fhir/us/qicore/StructureDefinition/qicore-condition-encounter-diagnosis" ]
      },
      "clinicalStatus": {
        "coding": [ {
          "system": "http://terminology.hl7.org/CodeSystem/condition-clinical",
          "code": "active"
        } ]
      },
      "category": [ {
        "coding": [ {
          "system": "http://terminology.hl7.org/CodeSystem/condition-category",
          "code": "encounter-diagnosis",
          "display": "Encounter Diagnosis"
        } ]
      } ],
      "code": {
        "coding": [ {
          "system": "http://snomed.info/sct",
          "code": "40468003",
          "display": "Viral hepatitis, type A (disorder)"
        } ]
      },
      "subject": {
        "reference": "Patient/d15084d8-eb30-4cc4-aa43-94648cca8e2a"
      },
      "onsetDateTime": "2025-01-02T00:00:00.000+00:00"
    },
    "request": {
      "method": "PUT",
      "url": "Condition/c2f77af8-6a1c-43f6-8a33-c35d96c93e81"
    }
  }, {
    "fullUrl": "https://madie.cms.gov/Condition/05e17c76-f05e-4e11-a04a-9fa79c1027e7",
    "resource": {
      "resourceType": "Condition",
      "id": "05e17c76-f05e-4e11-a04a-9fa79c1027e7",
      "meta": {
        "profile": [ "http://hl7.org/fhir/us/qicore/StructureDefinition/qicore-condition-encounter-diagnosis" ]
      },
      "clinicalStatus": {
        "coding": [ {
          "system": "http://terminology.hl7.org/CodeSystem/condition-clinical",
          "code": "active"
        } ]
      },
      "category": [ {
        "coding": [ {
          "system": "http://terminology.hl7.org/CodeSystem/condition-category",
          "code": "encounter-diagnosis",
          "display": "Encounter Diagnosis"
        } ]
      } ],
      "code": {
        "coding": [ {
          "system": "http://snomed.info/sct",
          "code": "428331000124103",
          "display": "Anaphylaxis caused by rotavirus vaccine (disorder)"
        } ]
      },
      "subject": {
        "reference": "Patient/d15084d8-eb30-4cc4-aa43-94648cca8e2a"
      },
      "onsetDateTime": "2025-01-02T00:00:00.000+00:00"
    },
    "request": {
      "method": "PUT",
      "url": "Condition/05e17c76-f05e-4e11-a04a-9fa79c1027e7"
    }
  }, {
    "fullUrl": "https://madie.cms.gov/Condition/9d17ef29-459d-4446-a9e6-22724aab16570",
    "resource": {
      "resourceType": "Condition",
      "id": "9d17ef29-459d-4446-a9e6-22724aab16570",
      "meta": {
        "profile": [ "http://hl7.org/fhir/us/qicore/StructureDefinition/qicore-condition-encounter-diagnosis" ]
      },
      "clinicalStatus": {
        "coding": [ {
          "system": "http://terminology.hl7.org/CodeSystem/condition-clinical",
          "code": "active"
        } ]
      },
      "category": [ {
        "coding": [ {
          "system": "http://terminology.hl7.org/CodeSystem/condition-category",
          "code": "encounter-diagnosis",
          "display": "Encounter Diagnosis"
        } ]
      } ],
      "code": {
        "coding": [ {
          "system": "http://snomed.info/sct",
          "code": "471361000124100",
          "display": "Anaphylaxis caused by vaccine product containing Influenza virus antigen (disorder)"
        } ]
      },
      "subject": {
        "reference": "Patient/d15084d8-eb30-4cc4-aa43-94648cca8e2a"
      },
      "onsetDateTime": "2025-01-02T00:00:00.000+00:00"
    },
    "request": {
      "method": "PUT",
      "url": "Condition/9d17ef29-459d-4446-a9e6-22724aab16570"
    }
  }, {
    "fullUrl": "https://madie.cms.gov/MeasureReport/393186e8-50bc-46a2-8e13-e8c77a4b375e",
    "resource": {
      "resourceType": "MeasureReport",
      "id": "393186e8-50bc-46a2-8e13-e8c77a4b375e",
      "meta": {
        "profile": [ "http://hl7.org/fhir/us/cqfmeasures/StructureDefinition/test-case-cqfm" ]
      },
      "contained": [ {
        "resourceType": "Parameters",
        "id": "b82439c1-ba62-483e-afd3-a60db119c4b0-parameters",
        "parameter": [ {
          "name": "subject",
          "valueString": "d15084d8-eb30-4cc4-aa43-94648cca8e2a"
        } ]
      } ],
      "extension": [ {
        "url": "http://hl7.org/fhir/StructureDefinition/cqf-inputParameters",
        "valueReference": {
          "reference": "#b82439c1-ba62-483e-afd3-a60db119c4b0-parameters"
        }
      }, {
        "url": "http://hl7.org/fhir/us/cqfmeasures/StructureDefinition/cqfm-testCaseDescription",
        "valueMarkdown": "All anaphylaxis or conditions in lieu. Testing condition encounter diagnosis profile to meet 100% coverage."
      } ],
      "modifierExtension": [ {
        "url": "http://hl7.org/fhir/us/cqfmeasures/StructureDefinition/cqfm-isTestCase",
        "valueBoolean": true
      } ],
      "status": "complete",
      "type": "individual",
      "measure": "https://madie.cms.gov/Measure/CMS117FHIRChildImmunStatus",
      "period": {
        "start": "2026-01-01",
        "end": "2026-12-31"
      },
      "group": [ {
        "id": "Group_1",
        "population": [ {
          "id": "InitialPopulation_1",
          "code": {
            "coding": [ {
              "system": "http://terminology.hl7.org/CodeSystem/measure-population",
              "code": "initial-population",
              "display": "Initial Population"
            } ]
          },
          "count": 1
        }, {
          "id": "Denominator_1",
          "code": {
            "coding": [ {
              "system": "http://terminology.hl7.org/CodeSystem/measure-population",
              "code": "denominator",
              "display": "Denominator"
            } ]
          },
          "count": 1
        }, {
          "id": "DenominatorExclusion_1",
          "code": {
            "coding": [ {
              "system": "http://terminology.hl7.org/CodeSystem/measure-population",
              "code": "denominator-exclusion",
              "display": "Denominator Exclusion"
            } ]
          },
          "count": 0
        }, {
          "id": "Numerator_1",
          "code": {
            "coding": [ {
              "system": "http://terminology.hl7.org/CodeSystem/measure-population",
              "code": "numerator",
              "display": "Numerator"
            } ]
          },
          "count": 1
        } ],
        "measureScore": {
          "value": 1.0
        }
      } ],
      "evaluatedResource": [ {
        "reference": "Patient/d15084d8-eb30-4cc4-aa43-94648cca8e2a"
      }, {
        "reference": "Encounter/200215de-c496-4ba6-9d4d-44930236ae79"
      }, {
        "reference": "Condition/9d17ef29-459d-4446-a9e6-22724aab1657"
      }, {
        "reference": "Condition/30178dba-342e-4f28-8d13-a3bf7fcbb095"
      }, {
        "reference": "Condition/be4a69a9-060d-4b0a-9f99-de32cd6d08ff"
      }, {
        "reference": "Condition/16f4cfe7-646a-430b-a53e-95b47ffe26f3"
      }, {
        "reference": "Condition/583c1288-2f33-413f-aac3-4025faf1f468"
      }, {
        "reference": "Condition/4cc12ffb-8d47-48a1-befd-2b143ddee41d"
      }, {
        "reference": "Condition/e90dd43e-e270-45bd-ab93-9e68fdf5e352"
      }, {
        "reference": "Condition/c2f77af8-6a1c-43f6-8a33-c35d96c93e81"
      }, {
        "reference": "Condition/05e17c76-f05e-4e11-a04a-9fa79c1027e7"
      }, {
        "reference": "Condition/9d17ef29-459d-4446-a9e6-22724aab16570"
      } ]
    },
    "request": {
      "method": "PUT",
      "url": "MeasureReport/393186e8-50bc-46a2-8e13-e8c77a4b375e"
    }
  } ]
}