{
  "resourceType": "Bundle",
  "id": "DENEXFail-PalliativeCareAfterMP",
  "type": "transaction",
  "entry": [ {
    "fullUrl": "https://madie.cms.gov/Patient/3e21058f-64cc-4b0a-8c84-1122df974dae",
    "resource": {
      "resourceType": "Patient",
      "id": "3e21058f-64cc-4b0a-8c84-1122df974dae",
      "meta": {
        "profile": [ "http://hl7.org/fhir/us/qicore/StructureDefinition/qicore-patient" ]
      },
      "extension": [ {
        "url": "http://hl7.org/fhir/us/core/StructureDefinition/us-core-race",
        "extension": [ {
          "url": "ombCategory",
          "valueCoding": {
            "system": "urn:oid:2.16.840.1.113883.6.238",
            "code": "2028-9",
            "display": "Asian"
          }
        }, {
          "url": "text",
          "valueString": "Asian"
        } ]
      }, {
        "url": "http://hl7.org/fhir/us/core/StructureDefinition/us-core-sex",
        "valueCode": "248152002"
      }, {
        "url": "http://hl7.org/fhir/us/core/StructureDefinition/us-core-ethnicity",
        "extension": [ {
          "url": "ombCategory",
          "valueCoding": {
            "system": "urn:oid:2.16.840.1.113883.6.238",
            "code": "2135-2",
            "display": "Hispanic or Latino"
          }
        }, {
          "url": "text",
          "valueString": "Hispanic or Latino"
        } ]
      } ],
      "identifier": [ {
        "system": "http://hospital.smarthealthit.org",
        "value": "999999995"
      } ],
      "name": [ {
        "family": "Bertha",
        "given": [ "Betty" ]
      } ],
      "gender": "female",
      "birthDate": "2002-12-31"
    },
    "request": {
      "method": "PUT",
      "url": "Patient/3e21058f-64cc-4b0a-8c84-1122df974dae"
    }
  }, {
    "fullUrl": "https://madie.cms.gov/Encounter/36c5f941-a1b4-49d3-922d-04c623d66a72",
    "resource": {
      "resourceType": "Encounter",
      "id": "36c5f941-a1b4-49d3-922d-04c623d66a72",
      "meta": {
        "profile": [ "http://hl7.org/fhir/us/qicore/StructureDefinition/qicore-encounter" ]
      },
      "status": "finished",
      "class": {
        "system": "http://terminology.hl7.org/CodeSystem/v3-ActCode",
        "code": "AMB",
        "display": "ambulatory"
      },
      "type": [ {
        "coding": [ {
          "system": "http://snomed.info/sct",
          "code": "185317003",
          "display": "Telephone encounter (procedure)"
        } ]
      } ],
      "subject": {
        "reference": "Patient/3e21058f-64cc-4b0a-8c84-1122df974dae"
      },
      "period": {
        "start": "2026-01-01T01:00:00.000+00:00",
        "end": "2026-01-01T01:15:00.000+00:00"
      }
    },
    "request": {
      "method": "PUT",
      "url": "Encounter/36c5f941-a1b4-49d3-922d-04c623d66a72"
    }
  }, {
    "fullUrl": "https://madie.cms.gov/Procedure/993cf314-18fd-475e-8670-466ec7e1a95c",
    "resource": {
      "resourceType": "Procedure",
      "id": "993cf314-18fd-475e-8670-466ec7e1a95c",
      "meta": {
        "profile": [ "http://hl7.org/fhir/us/qicore/StructureDefinition/qicore-procedure" ]
      },
      "extension": [ {
        "url": "http://hl7.org/fhir/us/qicore/StructureDefinition/qicore-recorded",
        "valueDateTime": "2027-01-01T01:00:00.000+00:00"
      } ],
      "status": "completed",
      "code": {
        "coding": [ {
          "system": "http://snomed.info/sct",
          "code": "103735009",
          "display": "Palliative care (regime/therapy)"
        } ]
      },
      "subject": {
        "reference": "Patient/3e21058f-64cc-4b0a-8c84-1122df974dae"
      },
      "performedPeriod": {
        "start": "2027-01-01T01:00:00.000+00:00",
        "end": "2027-01-01T01:00:00.000+00:00"
      }
    },
    "request": {
      "method": "PUT",
      "url": "Procedure/993cf314-18fd-475e-8670-466ec7e1a95c"
    }
  }, {
    "fullUrl": "https://madie.cms.gov/MeasureReport/8c76729f-838f-44b7-bcb7-be0f90af32bb",
    "resource": {
      "resourceType": "MeasureReport",
      "id": "8c76729f-838f-44b7-bcb7-be0f90af32bb",
      "meta": {
        "profile": [ "http://hl7.org/fhir/us/cqfmeasures/StructureDefinition/test-case-cqfm" ]
      },
      "contained": [ {
        "resourceType": "Parameters",
        "id": "11f26f68-8fb5-4f5e-b026-d7e243148b53-parameters",
        "parameter": [ {
          "name": "subject",
          "valueString": "3e21058f-64cc-4b0a-8c84-1122df974dae"
        } ]
      } ],
      "extension": [ {
        "url": "http://hl7.org/fhir/StructureDefinition/cqf-inputParameters",
        "valueReference": {
          "reference": "#11f26f68-8fb5-4f5e-b026-d7e243148b53-parameters"
        }
      }, {
        "url": "http://hl7.org/fhir/us/cqfmeasures/StructureDefinition/cqfm-testCaseDescription",
        "valueMarkdown": "Female 24 years old with Palliative Care performed after MP"
      } ],
      "modifierExtension": [ {
        "url": "http://hl7.org/fhir/us/cqfmeasures/StructureDefinition/cqfm-isTestCase",
        "valueBoolean": true
      } ],
      "status": "complete",
      "type": "individual",
      "measure": "https://madie.cms.gov/Measure/CMS124FHIRCervicalCancerScreen",
      "period": {
        "start": "2026-01-01",
        "end": "2026-12-31"
      },
      "group": [ {
        "id": "Group_1",
        "population": [ {
          "id": "InitialPopulation_1",
          "code": {
            "coding": [ {
              "system": "http://terminology.hl7.org/CodeSystem/measure-population",
              "code": "initial-population",
              "display": "Initial Population"
            } ]
          },
          "count": 1
        }, {
          "id": "Denominator_1",
          "code": {
            "coding": [ {
              "system": "http://terminology.hl7.org/CodeSystem/measure-population",
              "code": "denominator",
              "display": "Denominator"
            } ]
          },
          "count": 1
        }, {
          "id": "DenominatorExclusion_1",
          "code": {
            "coding": [ {
              "system": "http://terminology.hl7.org/CodeSystem/measure-population",
              "code": "denominator-exclusion",
              "display": "Denominator Exclusion"
            } ]
          },
          "count": 0
        }, {
          "id": "Numerator_1",
          "code": {
            "coding": [ {
              "system": "http://terminology.hl7.org/CodeSystem/measure-population",
              "code": "numerator",
              "display": "Numerator"
            } ]
          },
          "count": 0
        } ],
        "measureScore": {
          "value": 1.0
        }
      } ],
      "evaluatedResource": [ {
        "reference": "Patient/3e21058f-64cc-4b0a-8c84-1122df974dae"
      }, {
        "reference": "Encounter/36c5f941-a1b4-49d3-922d-04c623d66a72"
      }, {
        "reference": "Procedure/993cf314-18fd-475e-8670-466ec7e1a95c"
      } ]
    },
    "request": {
      "method": "PUT",
      "url": "MeasureReport/8c76729f-838f-44b7-bcb7-be0f90af32bb"
    }
  } ]
}