{
  "resourceType": "Bundle",
  "id": "NUMERFail-FallPOAModInjuryNPOA",
  "type": "transaction",
  "entry": [ {
    "fullUrl": "https://madie.cms.gov/Patient/21d7f7e1-3977-4227-8792-2e316460326f",
    "resource": {
      "resourceType": "Patient",
      "id": "21d7f7e1-3977-4227-8792-2e316460326f",
      "meta": {
        "profile": [ "http://hl7.org/fhir/us/qicore/StructureDefinition/qicore-patient" ]
      },
      "extension": [ {
        "url": "http://hl7.org/fhir/us/core/StructureDefinition/us-core-sex",
        "valueCode": "248153007"
      } ],
      "identifier": [ {
        "type": {
          "coding": [ {
            "system": "http://terminology.hl7.org/CodeSystem/v2-0203",
            "code": "MR"
          } ]
        },
        "system": "http://hospital.smarthealthit.org",
        "value": "999999999"
      } ],
      "name": [ {
        "family": "Example",
        "given": [ "Patient" ]
      } ],
      "gender": "male",
      "birthDate": "1975-01-01"
    },
    "request": {
      "method": "PUT",
      "url": "Patient/21d7f7e1-3977-4227-8792-2e316460326f"
    }
  }, {
    "fullUrl": "https://madie.cms.gov/Encounter/0bc061ed-345f-4bfd-af31-b2a4dbdfc05c",
    "resource": {
      "resourceType": "Encounter",
      "id": "0bc061ed-345f-4bfd-af31-b2a4dbdfc05c",
      "meta": {
        "profile": [ "http://hl7.org/fhir/us/qicore/StructureDefinition/qicore-encounter" ]
      },
      "status": "finished",
      "class": {
        "system": "http://terminology.hl7.org/CodeSystem/v3-ActCode",
        "code": "IMP",
        "display": "inpatient encounter"
      },
      "type": [ {
        "coding": [ {
          "system": "http://snomed.info/sct",
          "code": "4525004",
          "display": "Emergency department patient visit (procedure)"
        } ]
      } ],
      "subject": {
        "reference": "Patient/21d7f7e1-3977-4227-8792-2e316460326f"
      },
      "period": {
        "start": "2026-11-09T08:00:00.000Z",
        "end": "2026-11-09T10:15:00.000Z"
      },
      "location": [ {
        "location": {
          "reference": "Location/319c4cc1-0382-4330-ae13-350ba54125e0"
        },
        "period": {
          "start": "2026-11-09T08:00:00.000Z",
          "end": "2026-11-09T08:00:00.000Z"
        }
      } ]
    },
    "request": {
      "method": "PUT",
      "url": "Encounter/0bc061ed-345f-4bfd-af31-b2a4dbdfc05c"
    }
  }, {
    "fullUrl": "https://madie.cms.gov/Encounter/617c10db-f665-4eaf-aa6d-019bd6b4d3fe",
    "resource": {
      "resourceType": "Encounter",
      "id": "617c10db-f665-4eaf-aa6d-019bd6b4d3fe",
      "meta": {
        "profile": [ "http://hl7.org/fhir/us/qicore/StructureDefinition/qicore-encounter" ]
      },
      "status": "finished",
      "class": {
        "system": "http://terminology.hl7.org/CodeSystem/v3-ActCode",
        "code": "IMP",
        "display": "inpatient encounter"
      },
      "type": [ {
        "coding": [ {
          "system": "http://snomed.info/sct",
          "code": "183452005",
          "display": "Emergency hospital admission (procedure)"
        } ]
      } ],
      "subject": {
        "reference": "Patient/21d7f7e1-3977-4227-8792-2e316460326f"
      },
      "period": {
        "start": "2026-11-09T11:15:00.000Z",
        "end": "2026-11-13T08:15:00.000Z"
      },
      "reasonReference": [ {
        "reference": "Condition/6fa3bcd3-b985-4fec-a142-290e07e50647"
      }, {
        "reference": "Condition/27c91e3a-b1bc-4194-ad9a-98f2b336536a"
      } ],
      "location": [ {
        "location": {
          "reference": "Location/319c4cc1-0382-4330-ae13-350ba54125e0"
        },
        "period": {
          "start": "2026-11-09T11:15:00.000Z",
          "end": "2026-11-09T11:15:00.000Z"
        }
      } ]
    },
    "request": {
      "method": "PUT",
      "url": "Encounter/617c10db-f665-4eaf-aa6d-019bd6b4d3fe"
    }
  }, {
    "fullUrl": "https://madie.cms.gov/Condition/6fa3bcd3-b985-4fec-a142-290e07e50647",
    "resource": {
      "resourceType": "Condition",
      "id": "6fa3bcd3-b985-4fec-a142-290e07e50647",
      "meta": {
        "profile": [ "http://hl7.org/fhir/us/qicore/StructureDefinition/qicore-condition-encounter-diagnosis" ]
      },
      "clinicalStatus": {
        "coding": [ {
          "system": "http://terminology.hl7.org/CodeSystem/condition-clinical",
          "code": "active",
          "display": "Active"
        } ]
      },
      "verificationStatus": {
        "coding": [ {
          "system": "http://terminology.hl7.org/CodeSystem/condition-ver-status",
          "code": "confirmed",
          "display": "Confirmed"
        } ]
      },
      "category": [ {
        "coding": [ {
          "system": "http://terminology.hl7.org/CodeSystem/condition-category",
          "code": "encounter-diagnosis",
          "display": "Encounter Diagnosis"
        } ]
      } ],
      "code": {
        "coding": [ {
          "system": "http://hl7.org/fhir/sid/icd-10-cm",
          "code": "W08.XXXA"
        } ]
      },
      "subject": {
        "reference": "Patient/21d7f7e1-3977-4227-8792-2e316460326f"
      },
      "encounter": {
        "reference": "Encounter/0bc061ed-345f-4bfd-af31-b2a4dbdfc05c"
      }
    },
    "request": {
      "method": "PUT",
      "url": "Condition/6fa3bcd3-b985-4fec-a142-290e07e50647"
    }
  }, {
    "fullUrl": "https://madie.cms.gov/Condition/27c91e3a-b1bc-4194-ad9a-98f2b336536a",
    "resource": {
      "resourceType": "Condition",
      "id": "27c91e3a-b1bc-4194-ad9a-98f2b336536a",
      "meta": {
        "profile": [ "http://hl7.org/fhir/us/qicore/StructureDefinition/qicore-condition-encounter-diagnosis" ]
      },
      "clinicalStatus": {
        "coding": [ {
          "system": "http://terminology.hl7.org/CodeSystem/condition-clinical",
          "code": "active",
          "display": "Active"
        } ]
      },
      "verificationStatus": {
        "coding": [ {
          "system": "http://terminology.hl7.org/CodeSystem/condition-ver-status",
          "code": "confirmed",
          "display": "Confirmed"
        } ]
      },
      "category": [ {
        "coding": [ {
          "system": "http://terminology.hl7.org/CodeSystem/condition-category",
          "code": "encounter-diagnosis",
          "display": "Encounter Diagnosis"
        } ]
      } ],
      "code": {
        "coding": [ {
          "system": "http://snomed.info/sct",
          "code": "56307009"
        } ]
      },
      "subject": {
        "reference": "Patient/21d7f7e1-3977-4227-8792-2e316460326f"
      },
      "encounter": {
        "reference": "Encounter/0bc061ed-345f-4bfd-af31-b2a4dbdfc05c"
      }
    },
    "request": {
      "method": "PUT",
      "url": "Condition/27c91e3a-b1bc-4194-ad9a-98f2b336536a"
    }
  }, {
    "fullUrl": "https://madie.cms.gov/Claim/6a7afc33-e4d0-42e6-aa56-b2e6dcf1150a",
    "resource": {
      "resourceType": "Claim",
      "id": "6a7afc33-e4d0-42e6-aa56-b2e6dcf1150a",
      "meta": {
        "profile": [ "http://hl7.org/fhir/us/qicore/StructureDefinition/qicore-claim" ]
      },
      "status": "active",
      "type": {
        "coding": [ {
          "system": "http://terminology.hl7.org/CodeSystem/claim-type",
          "code": "institutional",
          "display": "Institutional"
        } ]
      },
      "use": "claim",
      "patient": {
        "reference": "Patient/21d7f7e1-3977-4227-8792-2e316460326f"
      },
      "created": "2026-11-13",
      "provider": {
        "reference": "Practitioner/5efb672f-3f59-4815-a06a-1349c408cbe1"
      },
      "priority": {
        "coding": [ {
          "system": "http://terminology.hl7.org/CodeSystem/processpriority",
          "code": "normal"
        } ]
      },
      "diagnosis": [ {
        "sequence": 1,
        "diagnosisReference": {
          "reference": "Condition/6fa3bcd3-b985-4fec-a142-290e07e50647"
        },
        "onAdmission": {
          "coding": [ {
            "system": "https://www.cms.gov/Medicare/Medicare-Fee-for-Service-Payment/HospitalAcqCond/Coding",
            "code": "Y"
          } ]
        }
      } ],
      "insurance": [ {
        "sequence": 1,
        "focal": true,
        "coverage": {
          "reference": "Coverage/2113fc19-16b9-443f-b11b-f513dd503a17"
        }
      } ],
      "item": [ {
        "sequence": 1,
        "diagnosisSequence": [ 1 ],
        "productOrService": {
          "coding": [ {
            "system": "http://terminology.hl7.org/CodeSystem/ex-USCLS",
            "code": "1101"
          } ]
        },
        "encounter": [ {
          "reference": "Encounter/617c10db-f665-4eaf-aa6d-019bd6b4d3fe"
        } ]
      } ]
    },
    "request": {
      "method": "PUT",
      "url": "Claim/6a7afc33-e4d0-42e6-aa56-b2e6dcf1150a"
    }
  }, {
    "fullUrl": "https://madie.cms.gov/Claim/649ccd2e-4722-41e6-97c5-9046117f54a9",
    "resource": {
      "resourceType": "Claim",
      "id": "649ccd2e-4722-41e6-97c5-9046117f54a9",
      "meta": {
        "profile": [ "http://hl7.org/fhir/us/qicore/StructureDefinition/qicore-claim" ]
      },
      "status": "active",
      "type": {
        "coding": [ {
          "system": "http://terminology.hl7.org/CodeSystem/claim-type",
          "code": "institutional",
          "display": "Institutional"
        } ]
      },
      "use": "claim",
      "patient": {
        "reference": "Patient/21d7f7e1-3977-4227-8792-2e316460326f"
      },
      "created": "2026-11-13",
      "provider": {
        "reference": "Practitioner/5efb672f-3f59-4815-a06a-1349c408cbe1"
      },
      "priority": {
        "coding": [ {
          "system": "http://terminology.hl7.org/CodeSystem/processpriority",
          "code": "normal"
        } ]
      },
      "diagnosis": [ {
        "sequence": 1,
        "diagnosisReference": {
          "reference": "Condition/27c91e3a-b1bc-4194-ad9a-98f2b336536a"
        },
        "onAdmission": {
          "coding": [ {
            "system": "https://www.cms.gov/Medicare/Medicare-Fee-for-Service-Payment/HospitalAcqCond/Coding",
            "code": "N"
          } ]
        }
      } ],
      "insurance": [ {
        "sequence": 1,
        "focal": true,
        "coverage": {
          "reference": "Coverage/2113fc19-16b9-443f-b11b-f513dd503a17"
        }
      } ],
      "item": [ {
        "sequence": 1,
        "diagnosisSequence": [ 1 ],
        "productOrService": {
          "coding": [ {
            "system": "http://terminology.hl7.org/CodeSystem/ex-USCLS",
            "code": "1101"
          } ]
        },
        "encounter": [ {
          "reference": "Encounter/617c10db-f665-4eaf-aa6d-019bd6b4d3fe"
        } ]
      } ]
    },
    "request": {
      "method": "PUT",
      "url": "Claim/649ccd2e-4722-41e6-97c5-9046117f54a9"
    }
  }, {
    "fullUrl": "https://madie.cms.gov/Practitioner/5efb672f-3f59-4815-a06a-1349c408cbe1",
    "resource": {
      "resourceType": "Practitioner",
      "id": "5efb672f-3f59-4815-a06a-1349c408cbe1",
      "meta": {
        "profile": [ "http://hl7.org/fhir/us/qicore/StructureDefinition/qicore-practitioner" ]
      },
      "identifier": [ {
        "system": "http://www.cms.gov/identifiers/pracitioners",
        "value": "P12345"
      } ],
      "name": [ {
        "use": "official",
        "family": "Smith",
        "given": [ "John" ]
      } ],
      "qualification": [ {
        "identifier": [ {
          "system": "http://hl7.org/fhir/sid/us-npi",
          "value": "1234567890"
        } ],
        "code": {
          "coding": [ {
            "system": "http://terminology.hl7.org/CodeSystem/v2-0203",
            "code": "MD",
            "display": "Medical License number"
          } ]
        }
      } ]
    },
    "request": {
      "method": "PUT",
      "url": "Practitioner/5efb672f-3f59-4815-a06a-1349c408cbe1"
    }
  }, {
    "fullUrl": "https://madie.cms.gov/Organization/a27a5477-bdac-4e8f-b803-deb42abe2009",
    "resource": {
      "resourceType": "Organization",
      "id": "a27a5477-bdac-4e8f-b803-deb42abe2009",
      "meta": {
        "profile": [ "http://hl7.org/fhir/us/qicore/StructureDefinition/qicore-organization" ]
      },
      "identifier": [ {
        "system": "http://cms.gov/insurance-ids",
        "value": "AET12345"
      } ],
      "active": true,
      "type": [ {
        "coding": [ {
          "system": "http://terminology.hl7.org/CodeSystem/organization-type",
          "code": "prov",
          "display": "Healthcare Provider"
        } ]
      } ],
      "name": "Aetna Insurance",
      "telecom": [ {
        "system": "phone",
        "value": "+1-800-123-4567"
      } ],
      "address": [ {
        "line": [ "123 Main Street" ],
        "city": "Cityville",
        "state": "CA",
        "postalCode": "12345",
        "country": "USA"
      } ]
    },
    "request": {
      "method": "PUT",
      "url": "Organization/a27a5477-bdac-4e8f-b803-deb42abe2009"
    }
  }, {
    "fullUrl": "https://madie.cms.gov/Coverage/2113fc19-16b9-443f-b11b-f513dd503a17",
    "resource": {
      "resourceType": "Coverage",
      "id": "2113fc19-16b9-443f-b11b-f513dd503a17",
      "meta": {
        "profile": [ "http://hl7.org/fhir/us/qicore/StructureDefinition/qicore-coverage" ]
      },
      "identifier": [ {
        "use": "official",
        "type": {
          "coding": [ {
            "system": "http://terminology.hl7.org/CodeSystem/v2-0203",
            "code": "MB"
          } ]
        },
        "system": "http://insuranceNumber.org/",
        "value": "123456789"
      } ],
      "status": "active",
      "beneficiary": {
        "reference": "Patient/21d7f7e1-3977-4227-8792-2e316460326f"
      },
      "relationship": {
        "coding": [ {
          "system": "http://terminology.hl7.org/CodeSystem/subscriber-relationship",
          "code": "self",
          "display": "Self"
        } ]
      },
      "payor": [ {
        "reference": "Organization/a27a5477-bdac-4e8f-b803-deb42abe2009"
      } ]
    },
    "request": {
      "method": "PUT",
      "url": "Coverage/2113fc19-16b9-443f-b11b-f513dd503a17"
    }
  }, {
    "fullUrl": "https://madie.cms.gov/Location/319c4cc1-0382-4330-ae13-350ba54125e0",
    "resource": {
      "resourceType": "Location",
      "id": "319c4cc1-0382-4330-ae13-350ba54125e0",
      "meta": {
        "profile": [ "http://hl7.org/fhir/us/qicore/StructureDefinition/qicore-location" ]
      },
      "status": "active",
      "name": "Hospital Operating Room/Suite",
      "mode": "instance",
      "type": [ {
        "coding": [ {
          "system": "https://www.cdc.gov/nhsn/cdaportal/terminology/codesystem/hsloc.html",
          "code": "1096-7"
        } ]
      } ]
    },
    "request": {
      "method": "PUT",
      "url": "Location/319c4cc1-0382-4330-ae13-350ba54125e0"
    }
  }, {
    "fullUrl": "https://madie.cms.gov/MeasureReport/2f0ce237-a641-490e-a1ac-e14202f14701",
    "resource": {
      "resourceType": "MeasureReport",
      "id": "2f0ce237-a641-490e-a1ac-e14202f14701",
      "meta": {
        "profile": [ "http://hl7.org/fhir/us/cqfmeasures/StructureDefinition/test-case-cqfm" ]
      },
      "contained": [ {
        "resourceType": "Parameters",
        "id": "b418ed32-cf47-48d4-a84d-1052e553f126-parameters",
        "parameter": [ {
          "name": "subject",
          "valueString": "21d7f7e1-3977-4227-8792-2e316460326f"
        } ]
      } ],
      "extension": [ {
        "url": "http://hl7.org/fhir/StructureDefinition/cqf-inputParameters",
        "valueReference": {
          "reference": "#b418ed32-cf47-48d4-a84d-1052e553f126-parameters"
        }
      }, {
        "url": "http://hl7.org/fhir/us/cqfmeasures/StructureDefinition/cqfm-testCaseDescription",
        "valueMarkdown": "Encounter diagnoses include: Fall POA and Moderate injury NPOA. Fall POA meets fails to meet Numerator"
      } ],
      "modifierExtension": [ {
        "url": "http://hl7.org/fhir/us/cqfmeasures/StructureDefinition/cqfm-isTestCase",
        "valueBoolean": true
      } ],
      "status": "complete",
      "type": "individual",
      "measure": "https://madie.cms.gov/Measure/CMS1017FHIRHHFI",
      "period": {
        "start": "2026-01-01",
        "end": "2026-12-31"
      },
      "group": [ {
        "id": "Group_1",
        "population": [ {
          "id": "InitialPopulation_1",
          "code": {
            "coding": [ {
              "system": "http://terminology.hl7.org/CodeSystem/measure-population",
              "code": "initial-population",
              "display": "Initial Population"
            } ]
          },
          "count": 1
        }, {
          "id": "Denominator_1",
          "code": {
            "coding": [ {
              "system": "http://terminology.hl7.org/CodeSystem/measure-population",
              "code": "denominator",
              "display": "Denominator"
            } ]
          },
          "count": 1
        }, {
          "id": "DenominatorExclusion_1",
          "code": {
            "coding": [ {
              "system": "http://terminology.hl7.org/CodeSystem/measure-population",
              "code": "denominator-exclusion",
              "display": "Denominator Exclusion"
            } ]
          },
          "count": 1
        }, {
          "id": "Numerator_1",
          "code": {
            "coding": [ {
              "system": "http://terminology.hl7.org/CodeSystem/measure-population",
              "code": "numerator",
              "display": "Numerator"
            } ]
          },
          "count": 0
        }, {
          "id": "NumeratorExclusion_1",
          "code": {
            "coding": [ {
              "system": "http://terminology.hl7.org/CodeSystem/measure-population",
              "code": "numerator-exclusion",
              "display": "Numerator Exclusion"
            } ]
          },
          "count": 0
        } ],
        "measureScore": {
          "value": 0.0
        }
      } ],
      "evaluatedResource": [ {
        "reference": "Patient/21d7f7e1-3977-4227-8792-2e316460326f"
      }, {
        "reference": "Encounter/0bc061ed-345f-4bfd-af31-b2a4dbdfc05c"
      }, {
        "reference": "Encounter/617c10db-f665-4eaf-aa6d-019bd6b4d3fe"
      }, {
        "reference": "Condition/6fa3bcd3-b985-4fec-a142-290e07e50647"
      }, {
        "reference": "Condition/27c91e3a-b1bc-4194-ad9a-98f2b336536a"
      }, {
        "reference": "Claim/6a7afc33-e4d0-42e6-aa56-b2e6dcf1150a"
      }, {
        "reference": "Claim/649ccd2e-4722-41e6-97c5-9046117f54a9"
      }, {
        "reference": "Practitioner/5efb672f-3f59-4815-a06a-1349c408cbe1"
      }, {
        "reference": "Organization/a27a5477-bdac-4e8f-b803-deb42abe2009"
      }, {
        "reference": "Coverage/2113fc19-16b9-443f-b11b-f513dd503a17"
      }, {
        "reference": "Location/319c4cc1-0382-4330-ae13-350ba54125e0"
      } ]
    },
    "request": {
      "method": "PUT",
      "url": "MeasureReport/2f0ce237-a641-490e-a1ac-e14202f14701"
    }
  } ]
}