{
  "resourceType": "Bundle",
  "id": "641365df4b11b147841ab89b",
  "type": "transaction",
  "entry": [ {
    "fullUrl": "https://madie.cms.gov/Patient/ebd7d1d0-a663-47da-8802-9088ad9d80a0",
    "resource": {
      "resourceType": "Patient",
      "id": "ebd7d1d0-a663-47da-8802-9088ad9d80a0",
      "meta": {
        "profile": [ "http://hl7.org/fhir/us/qicore/StructureDefinition/qicore-patient" ]
      },
      "extension": [ {
        "url": "http://hl7.org/fhir/us/core/StructureDefinition/us-core-race",
        "extension": [ {
          "url": "ombCategory",
          "valueCoding": {
            "system": "urn:oid:2.16.840.1.113883.6.238",
            "code": "2076-8",
            "display": "Native Hawaiian or Other Pacific Islander",
            "userSelected": true
          }
        }, {
          "url": "text",
          "valueString": "Native Hawaiian or Other Pacific Islander"
        } ]
      }, {
        "url": "http://hl7.org/fhir/us/core/StructureDefinition/us-core-ethnicity",
        "extension": [ {
          "url": "ombCategory",
          "valueCoding": {
            "system": "urn:oid:2.16.840.1.113883.6.238",
            "code": "2186-5",
            "display": "Not Hispanic or Latino",
            "userSelected": true
          }
        }, {
          "url": "text",
          "valueString": "Not Hispanic or Latino"
        } ]
      } ],
      "identifier": [ {
        "type": {
          "coding": [ {
            "system": "http://terminology.hl7.org/CodeSystem/v2-0203",
            "code": "MR"
          } ]
        },
        "system": "https://bonnie-fhir.healthit.gov/",
        "value": "641365df4b11b147841ab89b"
      } ],
      "name": [ {
        "family": "DENEXPass",
        "given": [ "DiagnosisPalliativeCare" ]
      } ],
      "gender": "male",
      "birthDate": "1965-03-22"
    },
    "request": {
      "method": "PUT",
      "url": "Patient/ebd7d1d0-a663-47da-8802-9088ad9d80a0"
    }
  }, {
    "fullUrl": "https://madie.cms.gov/Condition/52f83888-7198-432b-8391-7d80e9bedf8d",
    "resource": {
      "resourceType": "Condition",
      "id": "52f83888-7198-432b-8391-7d80e9bedf8d",
      "meta": {
        "profile": [ "http://hl7.org/fhir/us/qicore/StructureDefinition/qicore-condition-problems-health-concerns" ]
      },
      "clinicalStatus": {
        "coding": [ {
          "system": "http://terminology.hl7.org/CodeSystem/condition-clinical",
          "code": "active",
          "display": "active",
          "userSelected": true
        } ]
      },
      "category": [ {
        "coding": [ {
          "system": "http://terminology.hl7.org/CodeSystem/condition-category",
          "code": "problem-list-item",
          "display": "Problem List Item",
          "userSelected": true
        } ]
      } ],
      "code": {
        "coding": [ {
          "system": "http://snomed.info/sct",
          "version": "2021-09",
          "code": "102781000119107",
          "display": "Sensory neuropathy due to type 1 diabetes mellitus (disorder)",
          "userSelected": true
        } ]
      },
      "subject": {
        "reference": "Patient/ebd7d1d0-a663-47da-8802-9088ad9d80a0"
      },
      "onsetDateTime": "2022-03-01T01:00:00.000+00:00"
    },
    "request": {
      "method": "PUT",
      "url": "Condition/52f83888-7198-432b-8391-7d80e9bedf8d"
    }
  }, {
    "fullUrl": "https://madie.cms.gov/Encounter/df70de70-d106-489e-9a20-cabfe64de071",
    "resource": {
      "resourceType": "Encounter",
      "id": "df70de70-d106-489e-9a20-cabfe64de071",
      "meta": {
        "profile": [ "http://hl7.org/fhir/us/qicore/StructureDefinition/qicore-encounter" ]
      },
      "status": "finished",
      "class": {
        "system": "http://terminology.hl7.org/CodeSystem/v3-ActCode",
        "code": "AMB",
        "display": "ambulatory",
        "userSelected": true
      },
      "type": [ {
        "coding": [ {
          "system": "http://snomed.info/sct",
          "version": "2021-09",
          "code": "444971000124105",
          "display": "Annual wellness visit (procedure)",
          "userSelected": true
        } ]
      } ],
      "subject": {
        "reference": "Patient/ebd7d1d0-a663-47da-8802-9088ad9d80a0"
      },
      "period": {
        "start": "2026-03-06T08:00:00.000+00:00",
        "end": "2026-03-06T08:15:00.000+00:00"
      }
    },
    "request": {
      "method": "PUT",
      "url": "Encounter/df70de70-d106-489e-9a20-cabfe64de071"
    }
  }, {
    "fullUrl": "https://madie.cms.gov/Condition/789276a2-355e-4825-aa86-2c497deb2fa3",
    "resource": {
      "resourceType": "Condition",
      "id": "789276a2-355e-4825-aa86-2c497deb2fa3",
      "meta": {
        "profile": [ "http://hl7.org/fhir/us/qicore/StructureDefinition/qicore-condition-encounter-diagnosis" ]
      },
      "clinicalStatus": {
        "coding": [ {
          "system": "http://terminology.hl7.org/CodeSystem/condition-clinical",
          "code": "active",
          "display": "active",
          "userSelected": true
        } ]
      },
      "category": [ {
        "coding": [ {
          "system": "http://terminology.hl7.org/CodeSystem/condition-category",
          "code": "encounter-diagnosis",
          "display": "Encounter Diagnosis",
          "userSelected": true
        } ]
      } ],
      "code": {
        "coding": [ {
          "system": "http://hl7.org/fhir/sid/icd-10-cm",
          "code": "Z51.5",
          "display": "Encounter for palliative care",
          "userSelected": true
        } ]
      },
      "subject": {
        "reference": "Patient/ebd7d1d0-a663-47da-8802-9088ad9d80a0"
      },
      "onsetDateTime": "2026-03-14T08:00:00.000+00:00"
    },
    "request": {
      "method": "PUT",
      "url": "Condition/789276a2-355e-4825-aa86-2c497deb2fa3"
    }
  }, {
    "fullUrl": "https://madie.cms.gov/MeasureReport/560a8c99-916a-49fa-92a4-aeba7b8da28a",
    "resource": {
      "resourceType": "MeasureReport",
      "id": "560a8c99-916a-49fa-92a4-aeba7b8da28a",
      "meta": {
        "profile": [ "http://hl7.org/fhir/us/cqfmeasures/StructureDefinition/test-case-cqfm" ]
      },
      "contained": [ {
        "resourceType": "Parameters",
        "id": "35e43e34-1baf-4f92-92c0-c201edcf72e2-parameters",
        "parameter": [ {
          "name": "subject",
          "valueString": "ebd7d1d0-a663-47da-8802-9088ad9d80a0"
        } ]
      } ],
      "extension": [ {
        "url": "http://hl7.org/fhir/StructureDefinition/cqf-inputParameters",
        "valueReference": {
          "reference": "#35e43e34-1baf-4f92-92c0-c201edcf72e2-parameters"
        }
      }, {
        "url": "http://hl7.org/fhir/us/cqfmeasures/StructureDefinition/cqfm-testCaseDescription",
        "valueMarkdown": "This patient is 60 years old with a qualifying encounter and active diabetes diagnosis years ago, with a Palliative Care diagnosis in the Measurement Period. This case tests the denominator exclusion criteria."
      } ],
      "modifierExtension": [ {
        "url": "http://hl7.org/fhir/us/cqfmeasures/StructureDefinition/cqfm-isTestCase",
        "valueBoolean": true
      } ],
      "status": "complete",
      "type": "individual",
      "measure": "https://madie.cms.gov/Measure/CMS951FHIRKidneyHealthEval",
      "period": {
        "start": "2026-01-01",
        "end": "2026-12-31"
      },
      "group": [ {
        "id": "Group_1",
        "population": [ {
          "id": "InitialPopulation_1",
          "code": {
            "coding": [ {
              "system": "http://terminology.hl7.org/CodeSystem/measure-population",
              "code": "initial-population",
              "display": "Initial Population"
            } ]
          },
          "count": 1
        }, {
          "id": "Denominator_1",
          "code": {
            "coding": [ {
              "system": "http://terminology.hl7.org/CodeSystem/measure-population",
              "code": "denominator",
              "display": "Denominator"
            } ]
          },
          "count": 1
        }, {
          "id": "DenominatorExclusion_1",
          "code": {
            "coding": [ {
              "system": "http://terminology.hl7.org/CodeSystem/measure-population",
              "code": "denominator-exclusion",
              "display": "Denominator Exclusion"
            } ]
          },
          "count": 1
        }, {
          "id": "Numerator_1",
          "code": {
            "coding": [ {
              "system": "http://terminology.hl7.org/CodeSystem/measure-population",
              "code": "numerator",
              "display": "Numerator"
            } ]
          },
          "count": 0
        } ],
        "measureScore": {
          "value": 1.0
        }
      } ],
      "evaluatedResource": [ {
        "reference": "Patient/ebd7d1d0-a663-47da-8802-9088ad9d80a0"
      }, {
        "reference": "Condition/52f83888-7198-432b-8391-7d80e9bedf8d"
      }, {
        "reference": "Encounter/df70de70-d106-489e-9a20-cabfe64de071"
      }, {
        "reference": "Condition/789276a2-355e-4825-aa86-2c497deb2fa3"
      } ]
    },
    "request": {
      "method": "PUT",
      "url": "MeasureReport/560a8c99-916a-49fa-92a4-aeba7b8da28a"
    }
  } ]
}