{
  "resourceType": "Bundle",
  "id": "tests-HighRiskProcStartsAfterDischarge",
  "type": "transaction",
  "entry": [ {
    "fullUrl": "https://madie.cms.gov/Patient/d9cd9b8d-12f5-4e34-8663-e876656b8f35",
    "resource": {
      "resourceType": "Patient",
      "id": "d9cd9b8d-12f5-4e34-8663-e876656b8f35",
      "meta": {
        "profile": [ "http://hl7.org/fhir/us/qicore/StructureDefinition/qicore-patient" ]
      },
      "extension": [ {
        "url": "http://hl7.org/fhir/us/core/StructureDefinition/us-core-race",
        "extension": [ {
          "url": "ombCategory",
          "valueCoding": {
            "system": "urn:oid:2.16.840.1.113883.6.238",
            "code": "2028-9",
            "display": "Asian"
          }
        }, {
          "url": "text",
          "valueString": "Asian"
        } ]
      }, {
        "url": "http://hl7.org/fhir/us/core/StructureDefinition/us-core-ethnicity",
        "extension": [ {
          "url": "ombCategory",
          "valueCoding": {
            "system": "urn:oid:2.16.840.1.113883.6.238",
            "code": "2186-5",
            "display": "Not Hispanic or Latino"
          }
        }, {
          "url": "text",
          "valueString": "Not Hispanic or Latino"
        } ]
      }, {
        "url": "http://hl7.org/fhir/us/core/StructureDefinition/us-core-sex",
        "valueCode": "248153007"
      } ],
      "identifier": [ {
        "system": "http://hospital.smarthealthit.org",
        "value": "999999999"
      } ],
      "name": [ {
        "family": "Example",
        "given": [ "Malee" ]
      } ],
      "gender": "male",
      "birthDate": "1975-01-01"
    },
    "request": {
      "method": "PUT",
      "url": "Patient/d9cd9b8d-12f5-4e34-8663-e876656b8f35"
    }
  }, {
    "fullUrl": "https://madie.cms.gov/Encounter/4301679c-29ca-4413-98d7-74ee01e83865",
    "resource": {
      "resourceType": "Encounter",
      "id": "4301679c-29ca-4413-98d7-74ee01e83865",
      "meta": {
        "profile": [ "http://hl7.org/fhir/us/qicore/StructureDefinition/qicore-encounter" ]
      },
      "status": "finished",
      "class": {
        "system": "http://terminology.hl7.org/CodeSystem/v3-ActCode",
        "code": "EMER",
        "display": "emergency encounter"
      },
      "type": [ {
        "coding": [ {
          "system": "http://snomed.info/sct",
          "code": "4525004",
          "display": "Emergency Department Visit"
        } ]
      } ],
      "subject": {
        "reference": "Patient/d9cd9b8d-12f5-4e34-8663-e876656b8f35"
      },
      "period": {
        "start": "2026-09-29T13:00:00.000+00:00",
        "end": "2026-09-30T01:00:00.000+00:00"
      }
    },
    "request": {
      "method": "PUT",
      "url": "Encounter/4301679c-29ca-4413-98d7-74ee01e83865"
    }
  }, {
    "fullUrl": "https://madie.cms.gov/Observation/4781e785-cbf3-49df-bba5-56f30bc7d703",
    "resource": {
      "resourceType": "Observation",
      "id": "4781e785-cbf3-49df-bba5-56f30bc7d703",
      "meta": {
        "profile": [ "http://hl7.org/fhir/us/qicore/StructureDefinition/qicore-observation-lab" ]
      },
      "status": "final",
      "category": [ {
        "coding": [ {
          "system": "http://terminology.hl7.org/CodeSystem/observation-category",
          "code": "laboratory",
          "display": "Laboratory"
        } ]
      } ],
      "code": {
        "coding": [ {
          "system": "http://loinc.org",
          "version": "2.72",
          "code": "21232-4",
          "display": "Creatinine [Mass/volume] in Serum or Plasma"
        } ]
      },
      "subject": {
        "reference": "Patient/d9cd9b8d-12f5-4e34-8663-e876656b8f35"
      },
      "effectiveDateTime": "2026-10-01T13:01:00.000+00:00",
      "valueQuantity": {
        "value": 0.9,
        "unit": "mg/dL",
        "system": "http://unitsofmeasure.org",
        "code": "mg/dL"
      }
    },
    "request": {
      "method": "PUT",
      "url": "Observation/4781e785-cbf3-49df-bba5-56f30bc7d703"
    }
  }, {
    "fullUrl": "https://madie.cms.gov/Observation/35831df0-0eed-4f89-8c6a-a7ad35fa96e6",
    "resource": {
      "resourceType": "Observation",
      "id": "35831df0-0eed-4f89-8c6a-a7ad35fa96e6",
      "meta": {
        "profile": [ "http://hl7.org/fhir/us/qicore/StructureDefinition/qicore-observation-lab" ]
      },
      "status": "final",
      "category": [ {
        "coding": [ {
          "system": "http://terminology.hl7.org/CodeSystem/observation-category",
          "code": "laboratory",
          "display": "Laboratory"
        } ]
      } ],
      "code": {
        "coding": [ {
          "system": "http://loinc.org",
          "version": "2.72",
          "code": "21232-4",
          "display": "Creatinine [Mass/volume] in Serum or Plasma"
        } ]
      },
      "subject": {
        "reference": "Patient/d9cd9b8d-12f5-4e34-8663-e876656b8f35"
      },
      "effectiveDateTime": "2026-10-01T12:00:00.000+00:00",
      "valueQuantity": {
        "value": 0.91,
        "unit": "mg/dL",
        "system": "http://unitsofmeasure.org",
        "code": "mg/dL"
      }
    },
    "request": {
      "method": "PUT",
      "url": "Observation/35831df0-0eed-4f89-8c6a-a7ad35fa96e6"
    }
  }, {
    "fullUrl": "https://madie.cms.gov/Observation/92e62499-b411-4ac6-9132-d7ddbdffa4e0",
    "resource": {
      "resourceType": "Observation",
      "id": "92e62499-b411-4ac6-9132-d7ddbdffa4e0",
      "meta": {
        "profile": [ "http://hl7.org/fhir/us/qicore/StructureDefinition/qicore-observation-lab" ]
      },
      "status": "final",
      "category": [ {
        "coding": [ {
          "system": "http://terminology.hl7.org/CodeSystem/observation-category",
          "code": "laboratory",
          "display": "Laboratory"
        } ]
      } ],
      "code": {
        "coding": [ {
          "system": "http://loinc.org",
          "version": "2.72",
          "code": "21232-4",
          "display": "Creatinine [Mass/volume] in Serum or Plasma"
        } ]
      },
      "subject": {
        "reference": "Patient/d9cd9b8d-12f5-4e34-8663-e876656b8f35"
      },
      "effectiveDateTime": "2026-10-01T12:35:00.000+00:00",
      "valueQuantity": {
        "value": 0.91,
        "unit": "mg/dL",
        "system": "http://unitsofmeasure.org",
        "code": "mg/dL"
      }
    },
    "request": {
      "method": "PUT",
      "url": "Observation/92e62499-b411-4ac6-9132-d7ddbdffa4e0"
    }
  }, {
    "fullUrl": "https://madie.cms.gov/Encounter/0235e3c4-2dc2-4e25-8801-22acbc6d99c8",
    "resource": {
      "resourceType": "Encounter",
      "id": "0235e3c4-2dc2-4e25-8801-22acbc6d99c8",
      "meta": {
        "profile": [ "http://hl7.org/fhir/us/qicore/StructureDefinition/qicore-encounter" ]
      },
      "status": "finished",
      "class": {
        "system": "http://terminology.hl7.org/CodeSystem/v3-ActCode",
        "code": "IMP",
        "display": "inpatient encounter"
      },
      "type": [ {
        "coding": [ {
          "system": "http://snomed.info/sct",
          "code": "183452005",
          "display": "Emergency hospital admission (procedure)"
        } ]
      } ],
      "subject": {
        "reference": "Patient/d9cd9b8d-12f5-4e34-8663-e876656b8f35"
      },
      "period": {
        "start": "2026-09-30T01:01:00.000+00:00",
        "end": "2026-10-04T01:00:00.000+00:00"
      }
    },
    "request": {
      "method": "PUT",
      "url": "Encounter/0235e3c4-2dc2-4e25-8801-22acbc6d99c8"
    }
  }, {
    "fullUrl": "https://madie.cms.gov/Procedure/b3e218de-1fff-4ad8-b14f-b081d8d0ae0f",
    "resource": {
      "resourceType": "Procedure",
      "id": "b3e218de-1fff-4ad8-b14f-b081d8d0ae0f",
      "meta": {
        "profile": [ "http://hl7.org/fhir/us/qicore/StructureDefinition/qicore-procedure" ]
      },
      "status": "completed",
      "code": {
        "coding": [ {
          "system": "http://www.icd10data.com",
          "code": "02LW3DJ",
          "display": "High Risk Procedures for AKI"
        } ]
      },
      "subject": {
        "reference": "Patient/d9cd9b8d-12f5-4e34-8663-e876656b8f35"
      },
      "performedPeriod": {
        "start": "2026-10-04T01:01:00.000+00:00",
        "end": "2026-10-04T01:02:00.000+00:00"
      }
    },
    "request": {
      "method": "PUT",
      "url": "Procedure/b3e218de-1fff-4ad8-b14f-b081d8d0ae0f"
    }
  }, {
    "fullUrl": "https://madie.cms.gov/MeasureReport/a2ddb767-0f6e-4854-a327-d3b824300e1f",
    "resource": {
      "resourceType": "MeasureReport",
      "id": "a2ddb767-0f6e-4854-a327-d3b824300e1f",
      "meta": {
        "profile": [ "http://hl7.org/fhir/us/cqfmeasures/StructureDefinition/test-case-cqfm" ]
      },
      "contained": [ {
        "resourceType": "Parameters",
        "id": "673a2ba8-eecc-4d2e-89a5-17f460c02d2b-parameters",
        "parameter": [ {
          "name": "subject",
          "valueString": "d9cd9b8d-12f5-4e34-8663-e876656b8f35"
        } ]
      } ],
      "extension": [ {
        "url": "http://hl7.org/fhir/StructureDefinition/cqf-inputParameters",
        "valueReference": {
          "reference": "#673a2ba8-eecc-4d2e-89a5-17f460c02d2b-parameters"
        }
      }, {
        "url": "http://hl7.org/fhir/us/cqfmeasures/StructureDefinition/cqfm-testCaseDescription",
        "valueMarkdown": "IP Encounter with High Risk Procedure starts after IP discharge. "
      } ],
      "modifierExtension": [ {
        "url": "http://hl7.org/fhir/us/cqfmeasures/StructureDefinition/cqfm-isTestCase",
        "valueBoolean": true
      } ],
      "status": "complete",
      "type": "individual",
      "measure": "https://madie.cms.gov/Measure/CMS832FHIRHHAKI",
      "period": {
        "start": "2026-01-01",
        "end": "2026-12-31"
      },
      "group": [ {
        "id": "Group_1",
        "population": [ {
          "id": "InitialPopulation_1",
          "code": {
            "coding": [ {
              "system": "http://terminology.hl7.org/CodeSystem/measure-population",
              "code": "initial-population",
              "display": "Initial Population"
            } ]
          },
          "count": 1
        }, {
          "id": "Denominator_1",
          "code": {
            "coding": [ {
              "system": "http://terminology.hl7.org/CodeSystem/measure-population",
              "code": "denominator",
              "display": "Denominator"
            } ]
          },
          "count": 1
        }, {
          "id": "DenominatorExclusion_1",
          "code": {
            "coding": [ {
              "system": "http://terminology.hl7.org/CodeSystem/measure-population",
              "code": "denominator-exclusion",
              "display": "Denominator Exclusion"
            } ]
          },
          "count": 0
        }, {
          "id": "Numerator_1",
          "code": {
            "coding": [ {
              "system": "http://terminology.hl7.org/CodeSystem/measure-population",
              "code": "numerator",
              "display": "Numerator"
            } ]
          },
          "count": 0
        } ],
        "measureScore": {
          "value": 0.0
        }
      } ],
      "evaluatedResource": [ {
        "reference": "Patient/d9cd9b8d-12f5-4e34-8663-e876656b8f35"
      }, {
        "reference": "Encounter/4301679c-29ca-4413-98d7-74ee01e83865"
      }, {
        "reference": "Observation/4781e785-cbf3-49df-bba5-56f30bc7d703"
      }, {
        "reference": "Observation/35831df0-0eed-4f89-8c6a-a7ad35fa96e6"
      }, {
        "reference": "Observation/92e62499-b411-4ac6-9132-d7ddbdffa4e0"
      }, {
        "reference": "Encounter/0235e3c4-2dc2-4e25-8801-22acbc6d99c8"
      }, {
        "reference": "Procedure/b3e218de-1fff-4ad8-b14f-b081d8d0ae0f"
      } ]
    },
    "request": {
      "method": "PUT",
      "url": "MeasureReport/a2ddb767-0f6e-4854-a327-d3b824300e1f"
    }
  } ]
}