{
  "resourceType": "Bundle",
  "id": "660dc344ea96f2084262f8e7",
  "type": "transaction",
  "entry": [ {
    "fullUrl": "https://madie.cms.gov/Patient/52921534-a62a-4fa0-ad83-4245bcb1329e",
    "resource": {
      "resourceType": "Patient",
      "id": "52921534-a62a-4fa0-ad83-4245bcb1329e",
      "meta": {
        "profile": [ "http://hl7.org/fhir/us/qicore/StructureDefinition/qicore-patient" ]
      },
      "extension": [ {
        "url": "http://hl7.org/fhir/us/core/StructureDefinition/us-core-race",
        "extension": [ {
          "url": "ombCategory",
          "valueCoding": {
            "system": "urn:oid:2.16.840.1.113883.6.238",
            "code": "1002-5",
            "display": "American Indian or Alaska Native",
            "userSelected": true
          }
        }, {
          "url": "text",
          "valueString": "American Indian or Alaska Native"
        } ]
      }, {
        "url": "http://hl7.org/fhir/us/core/StructureDefinition/us-core-ethnicity",
        "extension": [ {
          "url": "ombCategory",
          "valueCoding": {
            "system": "urn:oid:2.16.840.1.113883.6.238",
            "code": "2135-2",
            "display": "Hispanic or Latino",
            "userSelected": true
          }
        }, {
          "url": "text",
          "valueString": "Hispanic or Latino"
        } ]
      }, {
        "url": "http://hl7.org/fhir/us/core/StructureDefinition/us-core-sex",
        "valueCode": "248153007"
      } ],
      "identifier": [ {
        "type": {
          "coding": [ {
            "system": "http://terminology.hl7.org/CodeSystem/v2-0203",
            "code": "MR"
          } ]
        },
        "system": "https://bonnie-fhir.healthit.gov/",
        "value": "660dc344ea96f2084262f8e7"
      } ],
      "name": [ {
        "family": "DxExcepPassStartsBeforeEndsAfterMPCondEnc",
        "given": [ "DENEXCEPPASS" ]
      } ],
      "gender": "male",
      "birthDate": "1992-10-21"
    },
    "request": {
      "method": "PUT",
      "url": "Patient/52921534-a62a-4fa0-ad83-4245bcb1329e"
    }
  }, {
    "fullUrl": "https://madie.cms.gov/Encounter/8444b763-cc3e-4baf-8971-91b266b6cd43",
    "resource": {
      "resourceType": "Encounter",
      "id": "8444b763-cc3e-4baf-8971-91b266b6cd43",
      "meta": {
        "profile": [ "http://hl7.org/fhir/us/qicore/StructureDefinition/qicore-encounter" ]
      },
      "status": "finished",
      "class": {
        "system": "http://terminology.hl7.org/CodeSystem/v3-ActCode",
        "code": "EMER",
        "display": "emergency",
        "userSelected": true
      },
      "type": [ {
        "coding": [ {
          "system": "http://snomed.info/sct",
          "version": "2020-09",
          "code": "4525004",
          "display": "Emergency department patient visit (procedure)",
          "userSelected": true
        } ]
      } ],
      "subject": {
        "reference": "Patient/52921534-a62a-4fa0-ad83-4245bcb1329e"
      },
      "period": {
        "start": "2026-11-10T08:05:00.000+00:00",
        "end": "2026-11-11T07:15:00.000+00:00"
      },
      "reasonReference": [ {
        "reference": "Condition/469248b6-acf3-4d9c-8c2f-347c4c32950c"
      } ]
    },
    "request": {
      "method": "PUT",
      "url": "Encounter/8444b763-cc3e-4baf-8971-91b266b6cd43"
    }
  }, {
    "fullUrl": "https://madie.cms.gov/Condition/c5b7d088-4a53-4af9-bff8-f2176134cd18",
    "resource": {
      "resourceType": "Condition",
      "id": "c5b7d088-4a53-4af9-bff8-f2176134cd18",
      "meta": {
        "profile": [ "http://hl7.org/fhir/us/qicore/StructureDefinition/qicore-condition-encounter-diagnosis" ]
      },
      "clinicalStatus": {
        "coding": [ {
          "system": "http://terminology.hl7.org/CodeSystem/condition-clinical",
          "code": "active"
        } ]
      },
      "verificationStatus": {
        "coding": [ {
          "system": "http://terminology.hl7.org/CodeSystem/condition-ver-status",
          "code": "confirmed"
        } ]
      },
      "category": [ {
        "coding": [ {
          "system": "http://terminology.hl7.org/CodeSystem/condition-category",
          "code": "encounter-diagnosis",
          "display": "Encounter Diagnosis"
        } ]
      } ],
      "severity": {
        "coding": [ {
          "system": "http://snomed.info/sct",
          "code": "24484000",
          "display": "Severe (severity modifier)"
        } ]
      },
      "code": {
        "coding": [ {
          "system": "http://hl7.org/fhir/sid/icd-10-cm",
          "code": "Z92.82",
          "display": "Status post administration of tPA (rtPA) in a different facility within the last 24 hours prior to admission to current facility"
        } ]
      },
      "subject": {
        "reference": "Patient/52921534-a62a-4fa0-ad83-4245bcb1329e"
      },
      "onsetDateTime": "2026-11-10T08:30:00.000+00:00"
    },
    "request": {
      "method": "PUT",
      "url": "Condition/c5b7d088-4a53-4af9-bff8-f2176134cd18"
    }
  }, {
    "fullUrl": "https://madie.cms.gov/Condition/469248b6-acf3-4d9c-8c2f-347c4c32950c",
    "resource": {
      "resourceType": "Condition",
      "id": "469248b6-acf3-4d9c-8c2f-347c4c32950c",
      "meta": {
        "profile": [ "http://hl7.org/fhir/us/qicore/StructureDefinition/qicore-condition-problems-health-concerns" ]
      },
      "clinicalStatus": {
        "coding": [ {
          "system": "http://terminology.hl7.org/CodeSystem/condition-clinical",
          "code": "active",
          "display": "active",
          "userSelected": true
        } ]
      },
      "verificationStatus": {
        "coding": [ {
          "system": "http://terminology.hl7.org/CodeSystem/condition-ver-status",
          "code": "confirmed"
        } ]
      },
      "category": [ {
        "coding": [ {
          "system": "http://terminology.hl7.org/CodeSystem/condition-category",
          "code": "problem-list-item",
          "display": "Problem List Item",
          "userSelected": true
        } ]
      } ],
      "code": {
        "coding": [ {
          "system": "http://snomed.info/sct",
          "version": "2020-09",
          "code": "401303003",
          "display": "Acute ST segment elevation myocardial infarction (disorder)",
          "userSelected": true
        } ]
      },
      "subject": {
        "reference": "Patient/52921534-a62a-4fa0-ad83-4245bcb1329e"
      },
      "onsetDateTime": "2026-11-10T08:30:00.000+00:00"
    },
    "request": {
      "method": "PUT",
      "url": "Condition/469248b6-acf3-4d9c-8c2f-347c4c32950c"
    }
  }, {
    "fullUrl": "https://madie.cms.gov/Condition/cbe9ef14-2b21-42a7-ac62-2022a2ef5040",
    "resource": {
      "resourceType": "Condition",
      "id": "cbe9ef14-2b21-42a7-ac62-2022a2ef5040",
      "meta": {
        "profile": [ "http://hl7.org/fhir/us/qicore/StructureDefinition/qicore-condition-problems-health-concerns" ]
      },
      "clinicalStatus": {
        "coding": [ {
          "system": "http://terminology.hl7.org/CodeSystem/condition-clinical",
          "version": "4.0.1",
          "code": "inactive",
          "display": "Inactive",
          "userSelected": true
        } ]
      },
      "category": [ {
        "coding": [ {
          "system": "http://terminology.hl7.org/CodeSystem/condition-category",
          "code": "problem-list-item",
          "display": "Problem List Item",
          "userSelected": true
        } ]
      } ],
      "code": {
        "coding": [ {
          "system": "http://snomed.info/sct",
          "version": "2020-09",
          "code": "162710004",
          "display": "On examination - collapse -cardiac arrest (disorder)",
          "userSelected": true
        } ]
      },
      "subject": {
        "reference": "Patient/52921534-a62a-4fa0-ad83-4245bcb1329e"
      },
      "onsetDateTime": "2026-11-10T09:00:00.000+00:00"
    },
    "request": {
      "method": "PUT",
      "url": "Condition/cbe9ef14-2b21-42a7-ac62-2022a2ef5040"
    }
  }, {
    "fullUrl": "https://madie.cms.gov/Coverage/eaf3eb9b-50a4-43f4-8703-14c09b81c2d7",
    "resource": {
      "resourceType": "Coverage",
      "id": "eaf3eb9b-50a4-43f4-8703-14c09b81c2d7",
      "meta": {
        "profile": [ "http://hl7.org/fhir/us/qicore/StructureDefinition/qicore-coverage" ]
      },
      "identifier": [ {
        "type": {
          "coding": [ {
            "system": "http://terminology.hl7.org/CodeSystem/v2-0203",
            "code": "MB"
          } ]
        }
      } ],
      "status": "active",
      "beneficiary": {
        "reference": "Patient/52921534-a62a-4fa0-ad83-4245bcb1329e"
      },
      "relationship": {
        "coding": [ {
          "system": "http://terminology.hl7.org/CodeSystem/subscriber-relationship",
          "code": "self"
        } ]
      },
      "payor": [ {
        "reference": "Organization/477b3bbb-a3d9-45a3-abd6-6589ffff6ffb"
      } ]
    },
    "request": {
      "method": "PUT",
      "url": "Coverage/eaf3eb9b-50a4-43f4-8703-14c09b81c2d7"
    }
  }, {
    "fullUrl": "https://madie.cms.gov/Organization/477b3bbb-a3d9-45a3-abd6-6589ffff6ffb",
    "resource": {
      "resourceType": "Organization",
      "id": "477b3bbb-a3d9-45a3-abd6-6589ffff6ffb",
      "meta": {
        "profile": [ "http://hl7.org/fhir/us/qicore/StructureDefinition/qicore-organization" ]
      },
      "identifier": [ {
        "use": "temp",
        "system": "urn:oid:2.16.840.1.113883.4.4",
        "value": "21-3259825"
      } ],
      "active": true,
      "type": [ {
        "coding": [ {
          "system": "http://terminology.hl7.org/CodeSystem/organization-type",
          "code": "pay",
          "display": "Payer"
        } ]
      } ],
      "name": "Blue Cross Blue Shield of Texas",
      "telecom": [ {
        "system": "phone",
        "value": "(+1) 972-766-6900"
      } ],
      "address": [ {
        "use": "billing",
        "type": "postal",
        "line": [ "P.O. Box 660044" ],
        "city": "Dallas",
        "state": "TX",
        "postalCode": "75266-0044",
        "country": "USA"
      } ]
    },
    "request": {
      "method": "PUT",
      "url": "Organization/477b3bbb-a3d9-45a3-abd6-6589ffff6ffb"
    }
  }, {
    "fullUrl": "https://madie.cms.gov/Practitioner/49b9dbfd-2af7-4032-bf51-d19997bc2a84",
    "resource": {
      "resourceType": "Practitioner",
      "id": "49b9dbfd-2af7-4032-bf51-d19997bc2a84",
      "meta": {
        "profile": [ "http://hl7.org/fhir/us/qicore/StructureDefinition/qicore-practitioner" ]
      },
      "identifier": [ {
        "system": "http://hl7.org/fhir/sid/us-npi",
        "value": "9999999896"
      } ],
      "name": [ {
        "family": "Evil",
        "prefix": [ "Dr" ]
      } ]
    },
    "request": {
      "method": "PUT",
      "url": "Practitioner/49b9dbfd-2af7-4032-bf51-d19997bc2a84"
    }
  }, {
    "fullUrl": "https://madie.cms.gov/MeasureReport/be56d133-088f-411f-ba54-e9f3bd7fd1b5",
    "resource": {
      "resourceType": "MeasureReport",
      "id": "be56d133-088f-411f-ba54-e9f3bd7fd1b5",
      "meta": {
        "profile": [ "http://hl7.org/fhir/us/cqfmeasures/StructureDefinition/test-case-cqfm" ]
      },
      "contained": [ {
        "resourceType": "Parameters",
        "id": "a31caada-68d1-437c-8581-fb9839d315a5-parameters",
        "parameter": [ {
          "name": "subject",
          "valueString": "52921534-a62a-4fa0-ad83-4245bcb1329e"
        } ]
      } ],
      "extension": [ {
        "url": "http://hl7.org/fhir/StructureDefinition/cqf-inputParameters",
        "valueReference": {
          "reference": "#a31caada-68d1-437c-8581-fb9839d315a5-parameters"
        }
      }, {
        "url": "http://hl7.org/fhir/us/cqfmeasures/StructureDefinition/cqfm-testCaseDescription",
        "valueMarkdown": "Patient has diagnosis exception of tPA at another facility within 24 hours of emergency department visit. Using condition encounter diagnosis."
      } ],
      "modifierExtension": [ {
        "url": "http://hl7.org/fhir/us/cqfmeasures/StructureDefinition/cqfm-isTestCase",
        "valueBoolean": true
      } ],
      "status": "complete",
      "type": "individual",
      "measure": "https://madie.cms.gov/Measure/CMS996FHIRAptTxforSTEMI",
      "period": {
        "start": "2026-01-01",
        "end": "2026-12-31"
      },
      "group": [ {
        "id": "Group_1",
        "population": [ {
          "id": "InitialPopulation_1",
          "code": {
            "coding": [ {
              "system": "http://terminology.hl7.org/CodeSystem/measure-population",
              "code": "initial-population",
              "display": "Initial Population"
            } ]
          },
          "count": 1
        }, {
          "id": "Denominator_1",
          "code": {
            "coding": [ {
              "system": "http://terminology.hl7.org/CodeSystem/measure-population",
              "code": "denominator",
              "display": "Denominator"
            } ]
          },
          "count": 1
        }, {
          "id": "DenominatorExclusion_1",
          "code": {
            "coding": [ {
              "system": "http://terminology.hl7.org/CodeSystem/measure-population",
              "code": "denominator-exclusion",
              "display": "Denominator Exclusion"
            } ]
          },
          "count": 0
        }, {
          "id": "Numerator_1",
          "code": {
            "coding": [ {
              "system": "http://terminology.hl7.org/CodeSystem/measure-population",
              "code": "numerator",
              "display": "Numerator"
            } ]
          },
          "count": 0
        }, {
          "id": "DenominatorException_1",
          "code": {
            "coding": [ {
              "system": "http://terminology.hl7.org/CodeSystem/measure-population",
              "code": "denominator-exception",
              "display": "Denominator Exception"
            } ]
          },
          "count": 1
        } ],
        "measureScore": {
          "value": 0.0
        }
      } ],
      "evaluatedResource": [ {
        "reference": "Patient/52921534-a62a-4fa0-ad83-4245bcb1329e"
      }, {
        "reference": "Encounter/8444b763-cc3e-4baf-8971-91b266b6cd43"
      }, {
        "reference": "Condition/c5b7d088-4a53-4af9-bff8-f2176134cd18"
      }, {
        "reference": "Condition/469248b6-acf3-4d9c-8c2f-347c4c32950c"
      }, {
        "reference": "Condition/cbe9ef14-2b21-42a7-ac62-2022a2ef5040"
      }, {
        "reference": "Coverage/eaf3eb9b-50a4-43f4-8703-14c09b81c2d7"
      }, {
        "reference": "Organization/477b3bbb-a3d9-45a3-abd6-6589ffff6ffb"
      }, {
        "reference": "Practitioner/49b9dbfd-2af7-4032-bf51-d19997bc2a84"
      } ]
    },
    "request": {
      "method": "PUT",
      "url": "MeasureReport/be56d133-088f-411f-ba54-e9f3bd7fd1b5"
    }
  } ]
}