{
  "resourceType": "Bundle",
  "id": "633c9d030968f8012250fc89",
  "type": "transaction",
  "entry": [ {
    "fullUrl": "https://madie.cms.gov/Patient/93e2d9e6-00b4-4dfc-a404-f0bd5e73fa7b",
    "resource": {
      "resourceType": "Patient",
      "id": "93e2d9e6-00b4-4dfc-a404-f0bd5e73fa7b",
      "meta": {
        "profile": [ "http://hl7.org/fhir/us/qicore/StructureDefinition/qicore-patient" ]
      },
      "text": {
        "status": "generated",
        "div": "<div xmlns=\"http://www.w3.org/1999/xhtml\"><div class=\"hapiHeaderText\">CMOdurEnc_NoEDNoObsBFEncDayOf <b>DENEXPASS </b></div><table class=\"hapiPropertyTable\"><tbody><tr><td>Identifier</td><td>9aa695fb8ef01380aee71e782330c899</td></tr><tr><td>Date of birth</td><td><span>18 September 1985</span></td></tr></tbody></table></div>"
      },
      "extension": [ {
        "url": "http://hl7.org/fhir/us/core/StructureDefinition/us-core-race",
        "extension": [ {
          "url": "ombCategory",
          "valueCoding": {
            "system": "urn:oid:2.16.840.1.113883.6.238",
            "code": "1002-5",
            "display": "American Indian or Alaska Native",
            "userSelected": true
          }
        }, {
          "url": "text",
          "valueString": "American Indian or Alaska Native"
        } ]
      }, {
        "url": "http://hl7.org/fhir/us/core/StructureDefinition/us-core-ethnicity",
        "extension": [ {
          "url": "ombCategory",
          "valueCoding": {
            "system": "urn:oid:2.16.840.1.113883.6.238",
            "code": "2135-2",
            "display": "Hispanic or Latino",
            "userSelected": true
          }
        }, {
          "url": "text",
          "valueString": "Hispanic or Latino"
        } ]
      } ],
      "identifier": [ {
        "type": {
          "coding": [ {
            "system": "http://terminology.hl7.org/CodeSystem/v2-0203",
            "code": "MR"
          } ]
        },
        "system": "https://bonnie-fhir.healthit.gov/",
        "value": "633c9d030968f8012250fc89"
      } ],
      "active": true,
      "name": [ {
        "use": "usual",
        "family": "DENEXPass",
        "given": [ "CMOdurEncNoEDNoObsBFEncDayOf" ]
      } ],
      "gender": "female",
      "birthDate": "1986-09-18"
    },
    "request": {
      "method": "PUT",
      "url": "Patient/93e2d9e6-00b4-4dfc-a404-f0bd5e73fa7b"
    }
  }, {
    "fullUrl": "https://madie.cms.gov/claim/5ca62962b8484628b8de1ec5",
    "resource": {
      "resourceType": "Claim",
      "id": "5ca62962b8484628b8de1ec5",
      "meta": {
        "profile": [ "http://hl7.org/fhir/us/qicore/StructureDefinition/qicore-claim" ]
      },
      "status": "active",
      "type": {
        "coding": [ {
          "system": "http://terminology.hl7.org/CodeSystem/claim-type",
          "code": "institutional"
        } ]
      },
      "use": "claim",
      "patient": {
        "reference": "Patient/d170a0a8-b5ad-4303-b6df-e304dd5f92ad"
      },
      "created": "2026-12-01",
      "provider": {
        "reference": "Practitioner/8b721514-52e1-44f7-a40f-833c65d51b88"
      },
      "priority": {
        "coding": [ {
          "system": "http://terminology.hl7.org/CodeSystem/processpriority",
          "code": "normal"
        } ]
      },
      "diagnosis": [ {
        "sequence": 1,
        "diagnosisCodeableConcept": {
          "coding": [ {
            "system": "http://hl7.org/fhir/sid/icd-10-cm",
            "code": "I63.00"
          } ]
        },
        "type": [ {
          "coding": [ {
            "system": "http://terminology.hl7.org/CodeSystem/ex-diagnosistype",
            "code": "principal"
          } ]
        } ]
      } ],
      "insurance": [ {
        "sequence": 1,
        "focal": true,
        "coverage": {
          "reference": "Coverage/5fa041661c76ba66d9959367"
        }
      } ],
      "item": [ {
        "sequence": 1,
        "diagnosisSequence": [ 1 ],
        "productOrService": {
          "coding": [ {
            "system": "http://terminology.hl7.org/CodeSystem/ex-USCLS",
            "code": "99555"
          } ]
        },
        "encounter": [ {
          "reference": "Encounter/b2b65434-9e31-403e-bdd1-7e533c731de2"
        } ]
      } ]
    },
    "request": {
      "method": "PUT",
      "url": "Claim/5ca62962b8484628b8de1ec5"
    }
  }, {
    "fullUrl": "https://madie.cms.gov/Condition/94af3092-9c38-4142-a123-baca1ca6eaaa",
    "resource": {
      "resourceType": "Condition",
      "id": "94af3092-9c38-4142-a123-baca1ca6eaaa",
      "meta": {
        "profile": [ "http://hl7.org/fhir/us/qicore/StructureDefinition/qicore-condition-problems-health-concerns" ]
      },
      "clinicalStatus": {
        "coding": [ {
          "system": "http://terminology.hl7.org/CodeSystem/condition-clinical",
          "code": "inactive"
        } ]
      },
      "verificationStatus": {
        "coding": [ {
          "system": "http://terminology.hl7.org/CodeSystem/condition-ver-status",
          "code": "confirmed"
        } ]
      },
      "category": [ {
        "coding": [ {
          "system": "http://terminology.hl7.org/CodeSystem/condition-category",
          "code": "encounter-diagnosis",
          "display": "Encounter Diagnosis"
        } ]
      } ],
      "code": {
        "coding": [ {
          "system": "http://hl7.org/fhir/sid/icd-10-cm",
          "code": "I48.20"
        }, {
          "system": "http://hl7.org/fhir/sid/icd-10-cm",
          "code": "I48.0"
        }, {
          "system": "http://snomed.info/sct",
          "code": "5370000"
        } ]
      },
      "subject": {
        "reference": "Patient/93e2d9e6-00b4-4dfc-a404-f0bd5e73fa7b"
      },
      "onsetDateTime": "2026-10-01T09:00:00.000+00:00",
      "abatementDateTime": "2026-10-12T00:15:00.000+00:00"
    },
    "request": {
      "method": "PUT",
      "url": "Condition/94af3092-9c38-4142-a123-baca1ca6eaaa"
    }
  }, {
    "fullUrl": "https://madie.cms.gov/Encounter/b2b65434-9e31-403e-bdd1-7e533c731de2",
    "resource": {
      "resourceType": "Encounter",
      "id": "b2b65434-9e31-403e-bdd1-7e533c731de2",
      "meta": {
        "profile": [ "http://hl7.org/fhir/us/qicore/StructureDefinition/qicore-encounter" ]
      },
      "status": "finished",
      "class": {
        "system": "http://terminology.hl7.org/CodeSystem/v3-ActCode",
        "code": "IMP",
        "display": "inpatient encounter"
      },
      "type": [ {
        "coding": [ {
          "system": "http://snomed.info/sct",
          "code": "32485007"
        } ]
      } ],
      "subject": {
        "reference": "Patient/93e2d9e6-00b4-4dfc-a404-f0bd5e73fa7b"
      },
      "period": {
        "start": "2026-10-01T09:00:00.000+00:00",
        "end": "2026-10-12T00:15:00.000+00:00"
      },
      "length": {
        "value": 11,
        "unit": "days"
      },
      "reasonReference": [ {
        "reference": "Condition/94af3092-9c38-4142-a123-baca1ca6eaaa"
      } ]
    },
    "request": {
      "method": "PUT",
      "url": "Encounter/b2b65434-9e31-403e-bdd1-7e533c731de2"
    }
  }, {
    "fullUrl": "https://madie.cms.gov/ServiceRequest/86dd940b-9aba-4c7f-aea4-4aadc9a27a06",
    "resource": {
      "resourceType": "ServiceRequest",
      "id": "86dd940b-9aba-4c7f-aea4-4aadc9a27a06",
      "meta": {
        "profile": [ "http://hl7.org/fhir/us/qicore/StructureDefinition/qicore-servicerequest" ]
      },
      "status": "active",
      "intent": "order",
      "code": {
        "coding": [ {
          "system": "http://snomed.info/sct",
          "code": "133918004"
        } ]
      },
      "subject": {
        "reference": "Patient/93e2d9e6-00b4-4dfc-a404-f0bd5e73fa7b"
      },
      "authoredOn": "2026-10-01T09:01:00.000+00:00"
    },
    "request": {
      "method": "PUT",
      "url": "ServiceRequest/86dd940b-9aba-4c7f-aea4-4aadc9a27a06"
    }
  }, {
    "fullUrl": "https://madie.cms.gov/Coverage/25ede008-5b8e-4a74-a383-aa45defff430",
    "resource": {
      "resourceType": "Coverage",
      "id": "25ede008-5b8e-4a74-a383-aa45defff430",
      "status": "active",
      "subscriberId": "523435",
      "beneficiary": {
        "reference": "Patient/93e2d9e6-00b4-4dfc-a404-f0bd5e73fa7b"
      },
      "relationship": {
        "coding": [ {
          "system": "http://terminology.hl7.org/CodeSystem/subscriber-relationship",
          "code": "self"
        } ]
      },
      "period": {
        "start": "1986-09-18T08:00:00.000+00:00"
      },
      "payor": [ {
        "reference": "Organization/b0c3dd3d-7229-4c00-bb1a-877f618dc657"
      } ]
    },
    "request": {
      "method": "PUT",
      "url": "Coverage/25ede008-5b8e-4a74-a383-aa45defff430"
    }
  }, {
    "fullUrl": "https://madie.cms.gov/Condition/256c01aa-7000-4c87-9e51-201b0bd568a0",
    "resource": {
      "resourceType": "Condition",
      "id": "256c01aa-7000-4c87-9e51-201b0bd568a0",
      "meta": {
        "profile": [ "http://hl7.org/fhir/us/qicore/StructureDefinition/qicore-condition-problems-health-concerns" ]
      },
      "clinicalStatus": {
        "coding": [ {
          "system": "http://terminology.hl7.org/CodeSystem/condition-clinical",
          "code": "active"
        } ]
      },
      "verificationStatus": {
        "coding": [ {
          "system": "http://terminology.hl7.org/CodeSystem/condition-ver-status",
          "code": "confirmed"
        } ]
      },
      "category": [ {
        "coding": [ {
          "system": "http://terminology.hl7.org/CodeSystem/condition-category",
          "code": "encounter-diagnosis",
          "display": "Encounter Diagnosis"
        } ]
      } ],
      "code": {
        "coding": [ {
          "system": "http://snomed.info/sct",
          "version": "2021-09",
          "code": "111297002",
          "display": "Nonparalytic stroke (disorder)",
          "userSelected": true
        } ]
      },
      "subject": {
        "reference": "Patient/93e2d9e6-00b4-4dfc-a404-f0bd5e73fa7b"
      },
      "recordedDate": "2026-10-13T08:00:00.000+00:00"
    },
    "request": {
      "method": "PUT",
      "url": "Condition/256c01aa-7000-4c87-9e51-201b0bd568a0"
    }
  }, {
    "fullUrl": "https://madie.cms.gov/Organization/b0c3dd3d-7229-4c00-bb1a-877f618dc657",
    "resource": {
      "resourceType": "Organization",
      "id": "b0c3dd3d-7229-4c00-bb1a-877f618dc657",
      "meta": {
        "profile": [ "http://hl7.org/fhir/us/qicore/StructureDefinition/qicore-organization" ]
      },
      "identifier": [ {
        "use": "temp",
        "system": "urn:oid:2.16.840.1.113883.4.4",
        "value": "21-3259825"
      } ],
      "active": true,
      "type": [ {
        "coding": [ {
          "system": "http://terminology.hl7.org/CodeSystem/organization-type",
          "code": "pay",
          "display": "Payer"
        } ]
      } ],
      "name": "Blue Cross Blue Shield of Texas",
      "telecom": [ {
        "system": "phone",
        "value": "(+1) 972-766-6900"
      } ],
      "address": [ {
        "use": "billing",
        "type": "postal",
        "line": [ "P.O. Box 660044" ],
        "city": "Dallas",
        "state": "TX",
        "postalCode": "75266-0044",
        "country": "USA"
      } ]
    },
    "request": {
      "method": "PUT",
      "url": "Organization/b0c3dd3d-7229-4c00-bb1a-877f618dc657"
    }
  }, {
    "fullUrl": "https://madie.cms.gov/Practitioner/8b721514-52e1-44f7-a40f-833c65d51b88",
    "resource": {
      "resourceType": "Practitioner",
      "id": "8b721514-52e1-44f7-a40f-833c65d51b88",
      "meta": {
        "profile": [ "http://hl7.org/fhir/us/qicore/StructureDefinition/qicore-practitioner" ]
      },
      "identifier": [ {
        "system": "http://hl7.org/fhir/sid/us-npi",
        "value": "9999999896"
      } ],
      "name": [ {
        "family": "Evil",
        "prefix": [ "Dr" ]
      } ]
    },
    "request": {
      "method": "PUT",
      "url": "Practitioner/8b721514-52e1-44f7-a40f-833c65d51b88"
    }
  }, {
    "fullUrl": "https://madie.cms.gov/MeasureReport/04f043ed-0f82-434d-adce-7f6a3eb90508",
    "resource": {
      "resourceType": "MeasureReport",
      "id": "04f043ed-0f82-434d-adce-7f6a3eb90508",
      "meta": {
        "profile": [ "http://hl7.org/fhir/us/cqfmeasures/StructureDefinition/test-case-cqfm" ]
      },
      "contained": [ {
        "resourceType": "Parameters",
        "id": "7ba819ef-b118-4ed5-bda4-ed129e150cff-parameters",
        "parameter": [ {
          "name": "subject",
          "valueString": "93e2d9e6-00b4-4dfc-a404-f0bd5e73fa7b"
        } ]
      } ],
      "extension": [ {
        "url": "http://hl7.org/fhir/StructureDefinition/cqf-inputParameters",
        "valueReference": {
          "reference": "#7ba819ef-b118-4ed5-bda4-ed129e150cff-parameters"
        }
      }, {
        "url": "http://hl7.org/fhir/us/cqfmeasures/StructureDefinition/cqfm-testCaseDescription",
        "valueMarkdown": "Patient receives CMO during inpatient encounter. No ED. No Obs. Testing day of operator with HospitalizationWithObservation function.\n"
      } ],
      "modifierExtension": [ {
        "url": "http://hl7.org/fhir/us/cqfmeasures/StructureDefinition/cqfm-isTestCase",
        "valueBoolean": true
      } ],
      "status": "complete",
      "type": "individual",
      "measure": "https://madie.cms.gov/Measure/CMS71FHIRSTKAnticoagAFFlutter",
      "period": {
        "start": "2026-01-01",
        "end": "2026-12-31"
      },
      "group": [ {
        "id": "Group_1",
        "population": [ {
          "id": "InitialPopulation_1",
          "code": {
            "coding": [ {
              "system": "http://terminology.hl7.org/CodeSystem/measure-population",
              "code": "initial-population",
              "display": "Initial Population"
            } ]
          },
          "count": 1
        }, {
          "id": "Denominator_1",
          "code": {
            "coding": [ {
              "system": "http://terminology.hl7.org/CodeSystem/measure-population",
              "code": "denominator",
              "display": "Denominator"
            } ]
          },
          "count": 1
        }, {
          "id": "DenominatorExclusion_1",
          "code": {
            "coding": [ {
              "system": "http://terminology.hl7.org/CodeSystem/measure-population",
              "code": "denominator-exclusion",
              "display": "Denominator Exclusion"
            } ]
          },
          "count": 1
        }, {
          "id": "Numerator_1",
          "code": {
            "coding": [ {
              "system": "http://terminology.hl7.org/CodeSystem/measure-population",
              "code": "numerator",
              "display": "Numerator"
            } ]
          },
          "count": 0
        }, {
          "id": "DenominatorException_1",
          "code": {
            "coding": [ {
              "system": "http://terminology.hl7.org/CodeSystem/measure-population",
              "code": "denominator-exception",
              "display": "Denominator Exception"
            } ]
          },
          "count": 0
        } ],
        "measureScore": {
          "value": 0.0
        }
      } ],
      "evaluatedResource": [ {
        "reference": "Patient/93e2d9e6-00b4-4dfc-a404-f0bd5e73fa7b"
      }, {
        "reference": "Claim/5ca62962b8484628b8de1ec5"
      }, {
        "reference": "Condition/94af3092-9c38-4142-a123-baca1ca6eaaa"
      }, {
        "reference": "Encounter/b2b65434-9e31-403e-bdd1-7e533c731de2"
      }, {
        "reference": "ServiceRequest/86dd940b-9aba-4c7f-aea4-4aadc9a27a06"
      }, {
        "reference": "Coverage/25ede008-5b8e-4a74-a383-aa45defff430"
      }, {
        "reference": "Condition/256c01aa-7000-4c87-9e51-201b0bd568a0"
      }, {
        "reference": "Organization/b0c3dd3d-7229-4c00-bb1a-877f618dc657"
      }, {
        "reference": "Practitioner/8b721514-52e1-44f7-a40f-833c65d51b88"
      } ]
    },
    "request": {
      "method": "PUT",
      "url": "MeasureReport/04f043ed-0f82-434d-adce-7f6a3eb90508"
    }
  } ]
}