{
  "resourceType": "Bundle",
  "id": "649470b3d09ece2c2e9bf958",
  "type": "collection",
  "entry": [ {
    "fullUrl": "https://madie.cms.gov/Patient/12abed4a-8a88-4d4c-854c-ca9402dc2d08",
    "resource": {
      "resourceType": "Patient",
      "id": "12abed4a-8a88-4d4c-854c-ca9402dc2d08",
      "meta": {
        "profile": [ "http://hl7.org/fhir/us/qicore/StructureDefinition/qicore-patient" ]
      },
      "extension": [ {
        "url": "http://hl7.org/fhir/us/core/StructureDefinition/us-core-race",
        "extension": [ {
          "url": "ombCategory",
          "valueCoding": {
            "system": "urn:oid:2.16.840.1.113883.6.238",
            "code": "1002-5",
            "display": "American Indian or Alaska Native",
            "userSelected": true
          }
        }, {
          "url": "text",
          "valueString": "American Indian or Alaska Native"
        } ]
      }, {
        "url": "http://hl7.org/fhir/us/core/StructureDefinition/us-core-ethnicity",
        "extension": [ {
          "url": "ombCategory",
          "valueCoding": {
            "system": "urn:oid:2.16.840.1.113883.6.238",
            "code": "2135-2",
            "display": "Hispanic or Latino",
            "userSelected": true
          }
        }, {
          "url": "text",
          "valueString": "Hispanic or Latino"
        } ]
      } ],
      "identifier": [ {
        "type": {
          "coding": [ {
            "system": "http://terminology.hl7.org/CodeSystem/v2-0203",
            "code": "MR"
          } ]
        },
        "system": "https://bonnie-fhir.healthit.gov/",
        "value": "649470b3d09ece2c2e9bf958"
      } ],
      "name": [ {
        "family": "23NumFail",
        "given": [ "EncAndVLWithin90Days" ]
      } ],
      "gender": "unknown",
      "birthDate": "1947-01-05"
    }
  }, {
    "fullUrl": "https://madie.cms.gov/Condition/af35a141-4426-497b-908f-e2519c54c44f",
    "resource": {
      "resourceType": "Condition",
      "id": "af35a141-4426-497b-908f-e2519c54c44f",
      "meta": {
        "profile": [ "http://hl7.org/fhir/us/qicore/StructureDefinition/qicore-condition-problems-health-concerns" ]
      },
      "clinicalStatus": {
        "coding": [ {
          "system": "http://terminology.hl7.org/CodeSystem/condition-clinical",
          "code": "active",
          "display": "active",
          "userSelected": true
        } ]
      },
      "category": [ {
        "coding": [ {
          "system": "http://terminology.hl7.org/CodeSystem/condition-category",
          "code": "problem-list-item",
          "display": "Problem List Item"
        } ]
      } ],
      "code": {
        "coding": [ {
          "system": "http://hl7.org/fhir/sid/icd-9-cm",
          "version": "2013",
          "code": "042",
          "display": "Human immunodeficiency virus [HIV] disease",
          "userSelected": true
        }, {
          "system": "http://snomed.info/sct",
          "version": "http://snomed.info/sct/731000124108/version/20250301",
          "code": "165816005",
          "userSelected": true
        } ]
      },
      "subject": {
        "reference": "Patient/12abed4a-8a88-4d4c-854c-ca9402dc2d08"
      },
      "onsetDateTime": "2000-10-05T08:00:00.000+00:00",
      "recordedDate": "2025-06-22T08:00:00.000+00:00"
    }
  }, {
    "fullUrl": "https://madie.cms.gov/Observation/2b6f3282-719e-4fc5-bfd3-a795f4d0e67d",
    "resource": {
      "resourceType": "Observation",
      "id": "2b6f3282-719e-4fc5-bfd3-a795f4d0e67d",
      "meta": {
        "profile": [ "http://hl7.org/fhir/us/qicore/StructureDefinition/qicore-observation-lab" ]
      },
      "status": "final",
      "category": [ {
        "coding": [ {
          "system": "http://terminology.hl7.org/CodeSystem/observation-category",
          "code": "laboratory",
          "display": "Laboratory"
        } ]
      }, {
        "coding": [ {
          "system": "http://terminology.hl7.org/CodeSystem/observation-category",
          "code": "survey"
        } ]
      } ],
      "code": {
        "coding": [ {
          "system": "http://loinc.org",
          "version": "2.73",
          "code": "10351-5",
          "display": "HIV 1 RNA [Units/volume] (viral load) in Serum or Plasma by Probe with amplification",
          "userSelected": true
        } ]
      },
      "subject": {
        "reference": "Patient/12abed4a-8a88-4d4c-854c-ca9402dc2d08"
      },
      "effectiveDateTime": "2026-01-22T08:30:00.000+00:00",
      "dataAbsentReason": {
        "coding": [ {
          "system": "http://terminology.hl7.org/CodeSystem/data-absent-reason",
          "code": "unknown",
          "display": "Unknown"
        } ]
      }
    }
  }, {
    "fullUrl": "https://madie.cms.gov/Encounter/18279ac4-1930-46aa-a977-84e718cc3926",
    "resource": {
      "resourceType": "Encounter",
      "id": "18279ac4-1930-46aa-a977-84e718cc3926",
      "meta": {
        "profile": [ "http://hl7.org/fhir/us/qicore/StructureDefinition/qicore-encounter" ]
      },
      "status": "finished",
      "class": {
        "system": "http://terminology.hl7.org/CodeSystem/v3-ActCode",
        "code": "AMB",
        "display": "ambulatory"
      },
      "type": [ {
        "coding": [ {
          "system": "http://snomed.info/sct",
          "version": "2022-09",
          "code": "185463005",
          "display": "Visit out of hours (procedure)",
          "userSelected": true
        } ]
      } ],
      "subject": {
        "reference": "Patient/12abed4a-8a88-4d4c-854c-ca9402dc2d08"
      },
      "period": {
        "start": "2026-01-22T08:00:00.000+00:00",
        "end": "2026-01-22T08:15:00.000+00:00"
      }
    }
  }, {
    "fullUrl": "https://madie.cms.gov/Coverage/4320618c-eeee-48e9-9253-216e50ea4b23",
    "resource": {
      "resourceType": "Coverage",
      "id": "4320618c-eeee-48e9-9253-216e50ea4b23",
      "meta": {
        "profile": [ "http://hl7.org/fhir/us/qicore/StructureDefinition/qicore-coverage" ]
      },
      "status": "active",
      "subscriberId": "123456",
      "beneficiary": {
        "reference": "Patient/12abed4a-8a88-4d4c-854c-ca9402dc2d08"
      },
      "relationship": {
        "coding": [ {
          "system": "http://terminology.hl7.org/CodeSystem/subscriber-relationship",
          "code": "self",
          "display": "Self"
        } ]
      },
      "payor": [ {
        "reference": "Organization/34b4c2d9-4520-42de-bac1-2d94f7fc093e"
      } ]
    }
  }, {
    "fullUrl": "https://madie.cms.gov/Organization/34b4c2d9-4520-42de-bac1-2d94f7fc093e",
    "resource": {
      "resourceType": "Organization",
      "id": "34b4c2d9-4520-42de-bac1-2d94f7fc093e",
      "meta": {
        "profile": [ "http://hl7.org/fhir/us/qicore/StructureDefinition/qicore-organization" ]
      },
      "identifier": [ {
        "use": "temp",
        "system": "urn:oid:2.16.840.1.113883.4.4",
        "value": "21-3259825"
      } ],
      "active": true,
      "type": [ {
        "coding": [ {
          "system": "http://terminology.hl7.org/CodeSystem/organization-type",
          "code": "pay",
          "display": "Payer"
        } ]
      } ],
      "name": "Blue Cross Blue Shield of Texas",
      "telecom": [ {
        "system": "phone",
        "value": "(+1) 972-766-6900"
      } ],
      "address": [ {
        "use": "billing",
        "type": "postal",
        "line": [ "P.O. Box 660044" ],
        "city": "Dallas",
        "state": "TX",
        "postalCode": "75266-0044",
        "country": "USA"
      } ]
    }
  }, {
    "fullUrl": "https://madie.cms.gov/Practitioner/2cb246fa-89de-4204-b89f-2c354334ec13",
    "resource": {
      "resourceType": "Practitioner",
      "id": "2cb246fa-89de-4204-b89f-2c354334ec13",
      "meta": {
        "profile": [ "http://hl7.org/fhir/us/qicore/StructureDefinition/qicore-practitioner" ]
      },
      "identifier": [ {
        "system": "http://hl7.org/fhir/sid/us-npi",
        "value": "1689411712"
      } ],
      "name": [ {
        "family": "Evil",
        "prefix": [ "Dr" ]
      } ]
    }
  }, {
    "fullUrl": "https://madie.cms.gov/MeasureReport/abcf40b1-06c1-4cb7-918c-d9a8098ad72d",
    "resource": {
      "resourceType": "MeasureReport",
      "id": "abcf40b1-06c1-4cb7-918c-d9a8098ad72d",
      "meta": {
        "profile": [ "http://hl7.org/fhir/us/cqfmeasures/StructureDefinition/test-case-cqfm" ]
      },
      "contained": [ {
        "resourceType": "Parameters",
        "id": "18693ab5-e7f9-43dd-9e2d-a5a880b0de9c-parameters",
        "parameter": [ {
          "name": "subject",
          "valueString": "12abed4a-8a88-4d4c-854c-ca9402dc2d08"
        } ]
      } ],
      "extension": [ {
        "url": "http://hl7.org/fhir/StructureDefinition/cqf-inputParameters",
        "valueReference": {
          "reference": "#18693ab5-e7f9-43dd-9e2d-a5a880b0de9c-parameters"
        }
      }, {
        "url": "http://hl7.org/fhir/us/cqfmeasures/StructureDefinition/cqfm-testCaseDescription",
        "valueMarkdown": "Patient has an encounter and VL within 90 day period."
      } ],
      "modifierExtension": [ {
        "url": "http://hl7.org/fhir/us/cqfmeasures/StructureDefinition/cqfm-isTestCase",
        "valueBoolean": true
      } ],
      "status": "complete",
      "type": "individual",
      "measure": "https://madie.cms.gov/Measure/CMS1157FHIRHIVRetention",
      "period": {
        "start": "2026-01-01",
        "end": "2026-12-31"
      },
      "group": [ {
        "id": "Group_1",
        "population": [ {
          "id": "InitialPopulation_1",
          "code": {
            "coding": [ {
              "system": "http://terminology.hl7.org/CodeSystem/measure-population",
              "code": "initial-population",
              "display": "Initial Population"
            } ]
          },
          "count": 1
        }, {
          "id": "Denominator_1",
          "code": {
            "coding": [ {
              "system": "http://terminology.hl7.org/CodeSystem/measure-population",
              "code": "denominator",
              "display": "Denominator"
            } ]
          },
          "count": 1
        }, {
          "id": "Numerator_1",
          "code": {
            "coding": [ {
              "system": "http://terminology.hl7.org/CodeSystem/measure-population",
              "code": "numerator",
              "display": "Numerator"
            } ]
          },
          "count": 0
        } ],
        "measureScore": {
          "value": 1.0
        }
      } ],
      "evaluatedResource": [ {
        "reference": "Patient/12abed4a-8a88-4d4c-854c-ca9402dc2d08"
      }, {
        "reference": "Condition/af35a141-4426-497b-908f-e2519c54c44f"
      }, {
        "reference": "Observation/2b6f3282-719e-4fc5-bfd3-a795f4d0e67d"
      }, {
        "reference": "Encounter/18279ac4-1930-46aa-a977-84e718cc3926"
      }, {
        "reference": "Coverage/4320618c-eeee-48e9-9253-216e50ea4b23"
      }, {
        "reference": "Organization/34b4c2d9-4520-42de-bac1-2d94f7fc093e"
      }, {
        "reference": "Practitioner/2cb246fa-89de-4204-b89f-2c354334ec13"
      } ]
    }
  } ]
}