{
  "resourceType": "Bundle",
  "id": "633c9d040968f8012250fca9",
  "type": "transaction",
  "entry": [ {
    "fullUrl": "https://madie.cms.gov/Patient/a2365453-d868-4111-b1dc-aad2e81d55fd",
    "resource": {
      "resourceType": "Patient",
      "id": "a2365453-d868-4111-b1dc-aad2e81d55fd",
      "meta": {
        "profile": [ "http://hl7.org/fhir/us/qicore/StructureDefinition/qicore-patient" ]
      },
      "text": {
        "status": "generated",
        "div": "<div xmlns=\"http://www.w3.org/1999/xhtml\"><div class=\"hapiHeaderText\">CMOdurED_ED&lt;1hrObs&gt;1hrBFEnc <b>DENEXFAIL </b></div><table class=\"hapiPropertyTable\"><tbody><tr><td>Identifier</td><td>16a8bb5fe1507565fee1a4f891d3aeaa0d43dfed75c5408a6c17ebb5066d29ae</td></tr><tr><td>Date of birth</td><td><span>18 September 1985</span></td></tr></tbody></table></div>"
      },
      "extension": [ {
        "url": "http://hl7.org/fhir/us/core/StructureDefinition/us-core-race",
        "extension": [ {
          "url": "ombCategory",
          "valueCoding": {
            "system": "urn:oid:2.16.840.1.113883.6.238",
            "code": "1002-5",
            "display": "American Indian or Alaska Native",
            "userSelected": true
          }
        }, {
          "url": "text",
          "valueString": "American Indian or Alaska Native"
        } ]
      }, {
        "url": "http://hl7.org/fhir/us/core/StructureDefinition/us-core-ethnicity",
        "extension": [ {
          "url": "ombCategory",
          "valueCoding": {
            "system": "urn:oid:2.16.840.1.113883.6.238",
            "code": "2135-2",
            "display": "Hispanic or Latino",
            "userSelected": true
          }
        }, {
          "url": "text",
          "valueString": "Hispanic or Latino"
        } ]
      } ],
      "identifier": [ {
        "type": {
          "coding": [ {
            "system": "http://terminology.hl7.org/CodeSystem/v2-0203",
            "code": "MR"
          } ]
        },
        "system": "https://bonnie-fhir.healthit.gov/",
        "value": "633c9d040968f8012250fca9"
      } ],
      "active": true,
      "name": [ {
        "use": "usual",
        "family": "DENEXFail",
        "given": [ "CMOdurED_ED<1hrObs>1hrBFEnc" ]
      } ],
      "gender": "female",
      "birthDate": "1986-09-18"
    },
    "request": {
      "method": "PUT",
      "url": "Patient/a2365453-d868-4111-b1dc-aad2e81d55fd"
    }
  }, {
    "fullUrl": "https://madie.cms.gov/Condition/9029ce7a-bae4-4294-aba8-b90380d6d698",
    "resource": {
      "resourceType": "Condition",
      "id": "9029ce7a-bae4-4294-aba8-b90380d6d698",
      "meta": {
        "profile": [ "http://hl7.org/fhir/us/qicore/StructureDefinition/qicore-condition-problems-health-concerns" ]
      },
      "clinicalStatus": {
        "coding": [ {
          "system": "http://terminology.hl7.org/CodeSystem/condition-clinical",
          "code": "inactive"
        } ]
      },
      "verificationStatus": {
        "coding": [ {
          "system": "http://terminology.hl7.org/CodeSystem/condition-ver-status",
          "code": "confirmed"
        } ]
      },
      "category": [ {
        "coding": [ {
          "system": "http://terminology.hl7.org/CodeSystem/condition-category",
          "code": "encounter-diagnosis",
          "display": "Encounter Diagnosis"
        } ]
      } ],
      "code": {
        "coding": [ {
          "system": "http://hl7.org/fhir/sid/icd-9-cm",
          "code": "427.31"
        }, {
          "system": "http://hl7.org/fhir/sid/icd-10-cm",
          "code": "I48.0"
        }, {
          "system": "http://snomed.info/sct",
          "code": "5370000"
        } ]
      },
      "subject": {
        "reference": "Patient/a2365453-d868-4111-b1dc-aad2e81d55fd"
      },
      "onsetDateTime": "2026-10-01T09:01:00.000+00:00",
      "abatementDateTime": "2026-10-12T00:15:00.000+00:00"
    },
    "request": {
      "method": "PUT",
      "url": "Condition/9029ce7a-bae4-4294-aba8-b90380d6d698"
    }
  }, {
    "fullUrl": "https://madie.cms.gov/Encounter/e9c4f43f-7a1d-4b05-bedb-cd49304aa3ba",
    "resource": {
      "resourceType": "Encounter",
      "id": "e9c4f43f-7a1d-4b05-bedb-cd49304aa3ba",
      "meta": {
        "profile": [ "http://hl7.org/fhir/us/qicore/StructureDefinition/qicore-encounter" ]
      },
      "status": "finished",
      "class": {
        "system": "http://terminology.hl7.org/CodeSystem/v3-ActCode",
        "code": "EMER",
        "display": "emergency"
      },
      "type": [ {
        "coding": [ {
          "system": "http://snomed.info/sct",
          "code": "4525004"
        } ]
      } ],
      "subject": {
        "reference": "Patient/a2365453-d868-4111-b1dc-aad2e81d55fd"
      },
      "period": {
        "start": "2026-10-01T09:01:00.000+00:00",
        "end": "2026-10-01T12:15:00.000+00:00"
      },
      "length": {
        "value": 0,
        "unit": "days"
      }
    },
    "request": {
      "method": "PUT",
      "url": "Encounter/e9c4f43f-7a1d-4b05-bedb-cd49304aa3ba"
    }
  }, {
    "fullUrl": "https://madie.cms.gov/Encounter/15e5937c-76ce-4c59-9c42-2ffbc01294ca",
    "resource": {
      "resourceType": "Encounter",
      "id": "15e5937c-76ce-4c59-9c42-2ffbc01294ca",
      "meta": {
        "profile": [ "http://hl7.org/fhir/us/qicore/StructureDefinition/qicore-encounter" ]
      },
      "status": "finished",
      "class": {
        "system": "http://terminology.hl7.org/CodeSystem/v3-ActCode",
        "code": "OBSENC",
        "display": "observation encounter"
      },
      "type": [ {
        "coding": [ {
          "system": "http://snomed.info/sct",
          "code": "448851000124103"
        } ]
      } ],
      "subject": {
        "reference": "Patient/a2365453-d868-4111-b1dc-aad2e81d55fd"
      },
      "period": {
        "start": "2026-10-01T12:16:00.000+00:00",
        "end": "2026-10-01T12:30:00.000+00:00"
      },
      "length": {
        "value": 0,
        "unit": "days"
      }
    },
    "request": {
      "method": "PUT",
      "url": "Encounter/15e5937c-76ce-4c59-9c42-2ffbc01294ca"
    }
  }, {
    "fullUrl": "https://madie.cms.gov/Encounter/a6546b62-86f8-4184-ba56-b747af91e15e",
    "resource": {
      "resourceType": "Encounter",
      "id": "a6546b62-86f8-4184-ba56-b747af91e15e",
      "meta": {
        "profile": [ "http://hl7.org/fhir/us/qicore/StructureDefinition/qicore-encounter" ]
      },
      "status": "finished",
      "class": {
        "system": "http://terminology.hl7.org/CodeSystem/v3-ActCode",
        "code": "IMP",
        "display": "inpatient encounter"
      },
      "type": [ {
        "coding": [ {
          "system": "http://snomed.info/sct",
          "code": "32485007"
        } ]
      } ],
      "subject": {
        "reference": "Patient/a2365453-d868-4111-b1dc-aad2e81d55fd"
      },
      "period": {
        "start": "2026-10-01T13:31:00.000+00:00",
        "end": "2026-10-12T00:15:00.000+00:00"
      },
      "length": {
        "value": 11,
        "unit": "days"
      },
      "reasonReference": [ {
        "reference": "Condition/9029ce7a-bae4-4294-aba8-b90380d6d698"
      } ]
    },
    "request": {
      "method": "PUT",
      "url": "Encounter/a6546b62-86f8-4184-ba56-b747af91e15e"
    }
  }, {
    "fullUrl": "https://madie.cms.gov/ServiceRequest/d554757a-20a1-4c6f-b796-a956de115566",
    "resource": {
      "resourceType": "ServiceRequest",
      "id": "d554757a-20a1-4c6f-b796-a956de115566",
      "meta": {
        "profile": [ "http://hl7.org/fhir/us/qicore/StructureDefinition/qicore-servicerequest" ]
      },
      "status": "active",
      "intent": "order",
      "code": {
        "coding": [ {
          "system": "http://snomed.info/sct",
          "code": "133918004"
        } ]
      },
      "subject": {
        "reference": "Patient/a2365453-d868-4111-b1dc-aad2e81d55fd"
      },
      "authoredOn": "2026-10-01T09:15:00.000+00:00"
    },
    "request": {
      "method": "PUT",
      "url": "ServiceRequest/d554757a-20a1-4c6f-b796-a956de115566"
    }
  }, {
    "fullUrl": "https://madie.cms.gov/Coverage/8da8af67-c8d1-4b6a-8c8d-cb42622941ec",
    "resource": {
      "resourceType": "Coverage",
      "id": "8da8af67-c8d1-4b6a-8c8d-cb42622941ec",
      "meta": {
        "profile": [ "http://hl7.org/fhir/us/qicore/StructureDefinition/qicore-coverage" ]
      },
      "status": "active",
      "subscriberId": "523435",
      "beneficiary": {
        "reference": "Patient/162a5913-9989-42f2-8d6a-ae460e245e4c"
      },
      "relationship": {
        "coding": [ {
          "system": "http://terminology.hl7.org/CodeSystem/subscriber-relationship",
          "code": "self"
        } ]
      },
      "payor": [ {
        "reference": "Organization/b17a77fc-0667-4a03-afe4-dd63d1891b1c"
      } ]
    },
    "request": {
      "method": "PUT",
      "url": "Coverage/8da8af67-c8d1-4b6a-8c8d-cb42622941ec"
    }
  }, {
    "fullUrl": "https://madie.cms.gov/Condition/221f3328-5b0c-4ae0-bae4-a57c79e23f10",
    "resource": {
      "resourceType": "Condition",
      "id": "221f3328-5b0c-4ae0-bae4-a57c79e23f10",
      "meta": {
        "profile": [ "http://hl7.org/fhir/us/qicore/StructureDefinition/qicore-condition-problems-health-concerns" ]
      },
      "clinicalStatus": {
        "coding": [ {
          "system": "http://terminology.hl7.org/CodeSystem/condition-clinical",
          "code": "active"
        } ]
      },
      "verificationStatus": {
        "coding": [ {
          "system": "http://terminology.hl7.org/CodeSystem/condition-ver-status",
          "code": "confirmed"
        } ]
      },
      "category": [ {
        "coding": [ {
          "system": "http://terminology.hl7.org/CodeSystem/condition-category",
          "code": "encounter-diagnosis",
          "display": "Encounter Diagnosis"
        } ]
      } ],
      "code": {
        "coding": [ {
          "system": "http://snomed.info/sct",
          "version": "2021-09",
          "code": "111297002",
          "display": "Nonparalytic stroke (disorder)",
          "userSelected": true
        } ]
      },
      "subject": {
        "reference": "Patient/a2365453-d868-4111-b1dc-aad2e81d55fd"
      },
      "recordedDate": "2026-10-13T08:00:00.000+00:00"
    },
    "request": {
      "method": "PUT",
      "url": "Condition/221f3328-5b0c-4ae0-bae4-a57c79e23f10"
    }
  }, {
    "fullUrl": "https://madie.cms.gov/claim/5ca62962b8484628b8de1ec5",
    "resource": {
      "resourceType": "Claim",
      "id": "5ca62962b8484628b8de1ec5",
      "meta": {
        "profile": [ "http://hl7.org/fhir/us/qicore/StructureDefinition/qicore-claim" ]
      },
      "status": "active",
      "type": {
        "coding": [ {
          "system": "http://terminology.hl7.org/CodeSystem/claim-type",
          "code": "institutional"
        } ]
      },
      "use": "claim",
      "patient": {
        "reference": "Patient/d170a0a8-b5ad-4303-b6df-e304dd5f92ad"
      },
      "created": "2026-12-01",
      "provider": {
        "reference": "Practitioner/practitioner-123456"
      },
      "priority": {
        "coding": [ {
          "system": "http://terminology.hl7.org/CodeSystem/processpriority",
          "code": "normal"
        } ]
      },
      "diagnosis": [ {
        "sequence": 1,
        "diagnosisCodeableConcept": {
          "coding": [ {
            "system": "http://hl7.org/fhir/sid/icd-10-cm",
            "code": "I63.00"
          } ]
        },
        "type": [ {
          "coding": [ {
            "system": "http://terminology.hl7.org/CodeSystem/ex-diagnosistype",
            "code": "principal"
          } ]
        } ]
      } ],
      "insurance": [ {
        "sequence": 1,
        "focal": true,
        "coverage": {
          "reference": "Coverage/5fa041661c76ba66d9959367"
        }
      } ],
      "item": [ {
        "sequence": 1,
        "diagnosisSequence": [ 1 ],
        "productOrService": {
          "coding": [ {
            "system": "http://terminology.hl7.org/CodeSystem/ex-USCLS",
            "code": "99555"
          } ]
        },
        "encounter": [ {
          "reference": "Encounter/a6546b62-86f8-4184-ba56-b747af91e15e"
        } ]
      } ]
    },
    "request": {
      "method": "PUT",
      "url": "Claim/5ca62962b8484628b8de1ec5"
    }
  }, {
    "fullUrl": "https://madie.cms.gov/Organization/b17a77fc-0667-4a03-afe4-dd63d1891b1c",
    "resource": {
      "resourceType": "Organization",
      "id": "b17a77fc-0667-4a03-afe4-dd63d1891b1c",
      "meta": {
        "profile": [ "http://hl7.org/fhir/us/qicore/StructureDefinition/qicore-organization" ]
      },
      "identifier": [ {
        "use": "temp",
        "system": "urn:oid:2.16.840.1.113883.4.4",
        "value": "21-3259825"
      } ],
      "active": true,
      "type": [ {
        "coding": [ {
          "system": "http://terminology.hl7.org/CodeSystem/organization-type",
          "code": "pay",
          "display": "Payer"
        } ]
      } ],
      "name": "Blue Cross Blue Shield of Texas",
      "telecom": [ {
        "system": "phone",
        "value": "(+1) 972-766-6900"
      } ],
      "address": [ {
        "use": "billing",
        "type": "postal",
        "line": [ "P.O. Box 660044" ],
        "city": "Dallas",
        "state": "TX",
        "postalCode": "75266-0044",
        "country": "USA"
      } ]
    },
    "request": {
      "method": "PUT",
      "url": "Organization/b17a77fc-0667-4a03-afe4-dd63d1891b1c"
    }
  }, {
    "fullUrl": "https://madie.cms.gov/MeasureReport/d133f17e-d1c9-408c-83f6-ab53b417ae8c",
    "resource": {
      "resourceType": "MeasureReport",
      "id": "d133f17e-d1c9-408c-83f6-ab53b417ae8c",
      "meta": {
        "profile": [ "http://hl7.org/fhir/us/cqfmeasures/StructureDefinition/test-case-cqfm" ]
      },
      "contained": [ {
        "resourceType": "Parameters",
        "id": "1ad8f84c-d311-48ca-85d0-ce78eba24724-parameters",
        "parameter": [ {
          "name": "subject",
          "valueString": "a2365453-d868-4111-b1dc-aad2e81d55fd"
        } ]
      } ],
      "extension": [ {
        "url": "http://hl7.org/fhir/StructureDefinition/cqf-inputParameters",
        "valueReference": {
          "reference": "#1ad8f84c-d311-48ca-85d0-ce78eba24724-parameters"
        }
      }, {
        "url": "http://hl7.org/fhir/us/cqfmeasures/StructureDefinition/cqfm-testCaseDescription",
        "valueMarkdown": "Patient receives CMO during Observation. ED ends 1 min before Obs start and Obs ends 61 min before inpatient encounter start. Testing HospitalizationWithObservation function."
      } ],
      "modifierExtension": [ {
        "url": "http://hl7.org/fhir/us/cqfmeasures/StructureDefinition/cqfm-isTestCase",
        "valueBoolean": true
      } ],
      "status": "complete",
      "type": "individual",
      "measure": "https://madie.cms.gov/Measure/CMS71FHIRSTKAnticoagAFFlutter",
      "period": {
        "start": "2026-01-01",
        "end": "2026-12-31"
      },
      "group": [ {
        "id": "Group_1",
        "population": [ {
          "id": "InitialPopulation_1",
          "code": {
            "coding": [ {
              "system": "http://terminology.hl7.org/CodeSystem/measure-population",
              "code": "initial-population",
              "display": "Initial Population"
            } ]
          },
          "count": 1
        }, {
          "id": "Denominator_1",
          "code": {
            "coding": [ {
              "system": "http://terminology.hl7.org/CodeSystem/measure-population",
              "code": "denominator",
              "display": "Denominator"
            } ]
          },
          "count": 1
        }, {
          "id": "DenominatorExclusion_1",
          "code": {
            "coding": [ {
              "system": "http://terminology.hl7.org/CodeSystem/measure-population",
              "code": "denominator-exclusion",
              "display": "Denominator Exclusion"
            } ]
          },
          "count": 0
        }, {
          "id": "Numerator_1",
          "code": {
            "coding": [ {
              "system": "http://terminology.hl7.org/CodeSystem/measure-population",
              "code": "numerator",
              "display": "Numerator"
            } ]
          },
          "count": 0
        }, {
          "id": "DenominatorException_1",
          "code": {
            "coding": [ {
              "system": "http://terminology.hl7.org/CodeSystem/measure-population",
              "code": "denominator-exception",
              "display": "Denominator Exception"
            } ]
          },
          "count": 0
        } ],
        "measureScore": {
          "value": 0.0
        }
      } ],
      "evaluatedResource": [ {
        "reference": "Patient/a2365453-d868-4111-b1dc-aad2e81d55fd"
      }, {
        "reference": "Condition/9029ce7a-bae4-4294-aba8-b90380d6d698"
      }, {
        "reference": "Encounter/e9c4f43f-7a1d-4b05-bedb-cd49304aa3ba"
      }, {
        "reference": "Encounter/15e5937c-76ce-4c59-9c42-2ffbc01294ca"
      }, {
        "reference": "Encounter/a6546b62-86f8-4184-ba56-b747af91e15e"
      }, {
        "reference": "ServiceRequest/d554757a-20a1-4c6f-b796-a956de115566"
      }, {
        "reference": "Coverage/8da8af67-c8d1-4b6a-8c8d-cb42622941ec"
      }, {
        "reference": "Condition/221f3328-5b0c-4ae0-bae4-a57c79e23f10"
      }, {
        "reference": "Claim/5ca62962b8484628b8de1ec5"
      }, {
        "reference": "Organization/b17a77fc-0667-4a03-afe4-dd63d1891b1c"
      } ]
    },
    "request": {
      "method": "PUT",
      "url": "MeasureReport/d133f17e-d1c9-408c-83f6-ab53b417ae8c"
    }
  } ]
}