{
  "resourceType": "Bundle",
  "id": "64998601cea95c34d9e57757",
  "type": "collection",
  "entry": [ {
    "fullUrl": "https://madie.cms.gov/Patient/d4741a72-3191-4a77-b3ab-7f4e62bc8221",
    "resource": {
      "resourceType": "Patient",
      "id": "d4741a72-3191-4a77-b3ab-7f4e62bc8221",
      "meta": {
        "profile": [ "http://hl7.org/fhir/us/qicore/StructureDefinition/qicore-patient" ]
      },
      "extension": [ {
        "url": "http://hl7.org/fhir/us/core/StructureDefinition/us-core-race",
        "extension": [ {
          "url": "ombCategory",
          "valueCoding": {
            "system": "urn:oid:2.16.840.1.113883.6.238",
            "code": "2076-8",
            "display": "Native Hawaiian or Other Pacific Islander",
            "userSelected": true
          }
        }, {
          "url": "text",
          "valueString": "Native Hawaiian or Other Pacific Islander"
        } ]
      }, {
        "url": "http://hl7.org/fhir/us/core/StructureDefinition/us-core-ethnicity",
        "extension": [ {
          "url": "ombCategory",
          "valueCoding": {
            "system": "urn:oid:2.16.840.1.113883.6.238",
            "code": "2186-5",
            "display": "Not Hispanic or Latino",
            "userSelected": true
          }
        }, {
          "url": "text",
          "valueString": "Not Hispanic or Latino"
        } ]
      }, {
        "url": "http://hl7.org/fhir/us/core/StructureDefinition/us-core-sex",
        "valueCode": "248152002"
      } ],
      "identifier": [ {
        "type": {
          "coding": [ {
            "system": "http://terminology.hl7.org/CodeSystem/v2-0203",
            "code": "MR"
          } ]
        },
        "system": "https://bonnie-fhir.healthit.gov/",
        "value": "64998601cea95c34d9e57757"
      } ],
      "name": [ {
        "family": "NumFail",
        "given": [ "TestBeforeMP" ]
      } ],
      "gender": "female",
      "birthDate": "1987-05-25"
    }
  }, {
    "fullUrl": "https://madie.cms.gov/Condition/7875dd05-05bb-40d8-a2fb-b97c17a1db02",
    "resource": {
      "resourceType": "Condition",
      "id": "7875dd05-05bb-40d8-a2fb-b97c17a1db02",
      "meta": {
        "profile": [ "http://hl7.org/fhir/us/qicore/StructureDefinition/qicore-condition-problems-health-concerns" ]
      },
      "clinicalStatus": {
        "coding": [ {
          "system": "http://terminology.hl7.org/CodeSystem/condition-clinical",
          "code": "active",
          "display": "active",
          "userSelected": true
        } ]
      },
      "category": [ {
        "coding": [ {
          "system": "http://terminology.hl7.org/CodeSystem/condition-category",
          "code": "problem-list-item",
          "display": "Problem List Item"
        } ]
      } ],
      "code": {
        "coding": [ {
          "system": "http://hl7.org/fhir/sid/icd-9-cm",
          "version": "2013",
          "code": "042",
          "display": "Human immunodeficiency virus [HIV] disease",
          "userSelected": true
        }, {
          "system": "http://snomed.info/sct",
          "version": "http://snomed.info/sct/731000124108/version/20250301",
          "code": "165816005",
          "userSelected": true
        } ]
      },
      "subject": {
        "reference": "Patient/d4741a72-3191-4a77-b3ab-7f4e62bc8221"
      },
      "onsetDateTime": "2020-12-02T12:00:00.000+00:00",
      "recordedDate": "2020-12-02T12:00:00.000+00:00"
    }
  }, {
    "fullUrl": "https://madie.cms.gov/Encounter/23ec9640-726e-4caf-b426-49a2c10c95c7",
    "resource": {
      "resourceType": "Encounter",
      "id": "23ec9640-726e-4caf-b426-49a2c10c95c7",
      "meta": {
        "profile": [ "http://hl7.org/fhir/us/qicore/StructureDefinition/qicore-encounter" ]
      },
      "status": "finished",
      "class": {
        "system": "http://terminology.hl7.org/CodeSystem/v3-ActCode",
        "code": "AMB",
        "display": "ambulatory"
      },
      "type": [ {
        "coding": [ {
          "system": "http://www.ama-assn.org/go/cpt",
          "version": "2023",
          "code": "99385",
          "display": "Initial comprehensive preventive medicine evaluation and management of an individual including an age and gender appropriate history, examination, counseling/anticipatory guidance/risk factor reduction interventions, and the ordering of laboratory/diagnostic procedures, new patient; 18-39 years",
          "userSelected": true
        } ]
      } ],
      "subject": {
        "reference": "Patient/d4741a72-3191-4a77-b3ab-7f4e62bc8221"
      },
      "period": {
        "start": "2026-08-29T15:02:00.000+00:00",
        "end": "2026-08-29T15:55:00.000+00:00"
      }
    }
  }, {
    "fullUrl": "https://madie.cms.gov/Observation/0bff960f-bcba-4027-9480-d1ff40b1ad02",
    "resource": {
      "resourceType": "Observation",
      "id": "0bff960f-bcba-4027-9480-d1ff40b1ad02",
      "meta": {
        "profile": [ "http://hl7.org/fhir/us/qicore/StructureDefinition/qicore-observation-lab" ]
      },
      "status": "final",
      "category": [ {
        "coding": [ {
          "system": "http://terminology.hl7.org/CodeSystem/observation-category",
          "code": "laboratory",
          "display": "Laboratory"
        } ]
      }, {
        "coding": [ {
          "system": "http://terminology.hl7.org/CodeSystem/observation-category",
          "code": "survey"
        } ]
      } ],
      "code": {
        "coding": [ {
          "system": "http://loinc.org",
          "version": "2.73",
          "code": "10351-5",
          "display": "HIV 1 RNA [Units/volume] (viral load) in Serum or Plasma by Probe with amplification",
          "userSelected": true
        } ]
      },
      "subject": {
        "reference": "Patient/d4741a72-3191-4a77-b3ab-7f4e62bc8221"
      },
      "effectiveDateTime": "2025-08-07T08:00:00.000+00:00",
      "issued": "2025-08-07T08:00:00.000+00:00",
      "valueQuantity": {
        "value": 198,
        "unit": "{copies}/mL"
      }
    }
  }, {
    "fullUrl": "https://madie.cms.gov/Coverage/b6f3d5d1-1b10-4916-80bf-ec5a113ae712",
    "resource": {
      "resourceType": "Coverage",
      "id": "b6f3d5d1-1b10-4916-80bf-ec5a113ae712",
      "meta": {
        "profile": [ "http://hl7.org/fhir/us/qicore/StructureDefinition/qicore-coverage" ]
      },
      "status": "active",
      "type": {
        "coding": [ {
          "code": "73",
          "userSelected": true
        } ]
      },
      "subscriberId": "123456",
      "beneficiary": {
        "reference": "Patient/d4741a72-3191-4a77-b3ab-7f4e62bc8221"
      },
      "relationship": {
        "coding": [ {
          "system": "http://terminology.hl7.org/CodeSystem/subscriber-relationship",
          "code": "self",
          "display": "Self"
        } ]
      },
      "payor": [ {
        "reference": "Organization/50c682a0-76f0-4a60-8f9b-4a648a220843"
      } ]
    }
  }, {
    "fullUrl": "https://madie.cms.gov/Organization/50c682a0-76f0-4a60-8f9b-4a648a220843",
    "resource": {
      "resourceType": "Organization",
      "id": "50c682a0-76f0-4a60-8f9b-4a648a220843",
      "meta": {
        "profile": [ "http://hl7.org/fhir/us/qicore/StructureDefinition/qicore-organization" ]
      },
      "identifier": [ {
        "use": "temp",
        "system": "urn:oid:2.16.840.1.113883.4.4",
        "value": "21-3259825"
      } ],
      "active": true,
      "type": [ {
        "coding": [ {
          "system": "http://terminology.hl7.org/CodeSystem/organization-type",
          "code": "pay",
          "display": "Payer"
        } ]
      } ],
      "name": "Blue Cross Blue Shield of Texas",
      "telecom": [ {
        "system": "phone",
        "value": "(+1) 972-766-6900"
      } ],
      "address": [ {
        "use": "billing",
        "type": "postal",
        "line": [ "P.O. Box 660044" ],
        "city": "Dallas",
        "state": "TX",
        "postalCode": "75266-0044",
        "country": "USA"
      } ]
    }
  }, {
    "fullUrl": "https://madie.cms.gov/Practitioner/5d9ee9d2-a2ce-4bff-a8de-6a85572d0897",
    "resource": {
      "resourceType": "Practitioner",
      "id": "5d9ee9d2-a2ce-4bff-a8de-6a85572d0897",
      "meta": {
        "profile": [ "http://hl7.org/fhir/us/qicore/StructureDefinition/qicore-practitioner" ]
      },
      "identifier": [ {
        "system": "http://hl7.org/fhir/sid/us-npi",
        "value": "1689411712"
      } ],
      "name": [ {
        "family": "Evil",
        "prefix": [ "Dr" ]
      } ]
    }
  }, {
    "fullUrl": "https://madie.cms.gov/MeasureReport/77c7c098-78aa-4f28-b1c7-89be0fad889c",
    "resource": {
      "resourceType": "MeasureReport",
      "id": "77c7c098-78aa-4f28-b1c7-89be0fad889c",
      "meta": {
        "profile": [ "http://hl7.org/fhir/us/cqfmeasures/StructureDefinition/test-case-cqfm" ]
      },
      "contained": [ {
        "resourceType": "Parameters",
        "id": "263576bb-134d-43d0-8e11-011c6a15d934-parameters",
        "parameter": [ {
          "name": "subject",
          "valueString": "d4741a72-3191-4a77-b3ab-7f4e62bc8221"
        } ]
      } ],
      "extension": [ {
        "url": "http://hl7.org/fhir/StructureDefinition/cqf-inputParameters",
        "valueReference": {
          "reference": "#263576bb-134d-43d0-8e11-011c6a15d934-parameters"
        }
      }, {
        "url": "http://hl7.org/fhir/us/cqfmeasures/StructureDefinition/cqfm-testCaseDescription",
        "valueMarkdown": "Patient with a diagnosis of HIV years before start of the MP and a qualifying encounter on inside 240 day edge of the MP AND a viral load test before the MP with a result under 200"
      } ],
      "modifierExtension": [ {
        "url": "http://hl7.org/fhir/us/cqfmeasures/StructureDefinition/cqfm-isTestCase",
        "valueBoolean": true
      } ],
      "status": "complete",
      "type": "individual",
      "measure": "https://madie.cms.gov/Measure/CMS314FHIRHIVViralSuppression",
      "period": {
        "start": "2026-01-01",
        "end": "2026-12-31"
      },
      "group": [ {
        "id": "Group_1",
        "population": [ {
          "id": "InitialPopulation_1",
          "code": {
            "coding": [ {
              "system": "http://terminology.hl7.org/CodeSystem/measure-population",
              "code": "initial-population",
              "display": "Initial Population"
            } ]
          },
          "count": 1
        }, {
          "id": "Denominator_1",
          "code": {
            "coding": [ {
              "system": "http://terminology.hl7.org/CodeSystem/measure-population",
              "code": "denominator",
              "display": "Denominator"
            } ]
          },
          "count": 1
        }, {
          "id": "Numerator_1",
          "code": {
            "coding": [ {
              "system": "http://terminology.hl7.org/CodeSystem/measure-population",
              "code": "numerator",
              "display": "Numerator"
            } ]
          },
          "count": 0
        } ],
        "measureScore": {
          "value": 1.0
        }
      } ],
      "evaluatedResource": [ {
        "reference": "Patient/d4741a72-3191-4a77-b3ab-7f4e62bc8221"
      }, {
        "reference": "Condition/7875dd05-05bb-40d8-a2fb-b97c17a1db02"
      }, {
        "reference": "Encounter/23ec9640-726e-4caf-b426-49a2c10c95c7"
      }, {
        "reference": "Observation/0bff960f-bcba-4027-9480-d1ff40b1ad02"
      }, {
        "reference": "Coverage/b6f3d5d1-1b10-4916-80bf-ec5a113ae712"
      }, {
        "reference": "Organization/50c682a0-76f0-4a60-8f9b-4a648a220843"
      }, {
        "reference": "Practitioner/5d9ee9d2-a2ce-4bff-a8de-6a85572d0897"
      } ]
    }
  } ]
}