{
  "resourceType": "Bundle",
  "id": "61782a0e4bf8e25b8f204e1c",
  "type": "transaction",
  "entry": [ {
    "fullUrl": "https://madie.cms.gov/Patient/c6e9e711-56c5-4c13-9377-a97c702900c9",
    "resource": {
      "resourceType": "Patient",
      "id": "c6e9e711-56c5-4c13-9377-a97c702900c9",
      "meta": {
        "profile": [ "http://hl7.org/fhir/us/qicore/StructureDefinition/qicore-patient" ]
      },
      "extension": [ {
        "url": "http://hl7.org/fhir/us/core/StructureDefinition/us-core-race",
        "extension": [ {
          "url": "ombCategory",
          "valueCoding": {
            "system": "urn:oid:2.16.840.1.113883.6.238",
            "code": "2054-5",
            "display": "Black or African American",
            "userSelected": true
          }
        }, {
          "url": "text",
          "valueString": "Black or African American"
        } ]
      }, {
        "url": "http://hl7.org/fhir/us/core/StructureDefinition/us-core-ethnicity",
        "extension": [ {
          "url": "ombCategory",
          "valueCoding": {
            "system": "urn:oid:2.16.840.1.113883.6.238",
            "code": "2186-5",
            "display": "Not Hispanic or Latino",
            "userSelected": true
          }
        }, {
          "url": "text",
          "valueString": "Not Hispanic or Latino"
        } ]
      }, {
        "url": "http://hl7.org/fhir/us/core/StructureDefinition/us-core-sex",
        "valueCode": "248152002"
      } ],
      "identifier": [ {
        "type": {
          "coding": [ {
            "system": "http://terminology.hl7.org/CodeSystem/v2-0203",
            "code": "MR"
          } ]
        },
        "system": "https://bonnie-fhir.healthit.gov/",
        "value": "61782a0e4bf8e25b8f204e1c"
      } ],
      "name": [ {
        "family": "NumPass",
        "given": [ "PCI89MinArrival" ]
      } ],
      "gender": "female",
      "birthDate": "1985-12-02"
    },
    "request": {
      "method": "PUT",
      "url": "Patient/c6e9e711-56c5-4c13-9377-a97c702900c9"
    }
  }, {
    "fullUrl": "https://madie.cms.gov/Encounter/70d803a6-8d7f-488e-873e-2b73071302ea",
    "resource": {
      "resourceType": "Encounter",
      "id": "70d803a6-8d7f-488e-873e-2b73071302ea",
      "meta": {
        "profile": [ "http://hl7.org/fhir/us/qicore/StructureDefinition/qicore-encounter" ]
      },
      "status": "finished",
      "class": {
        "system": "http://terminology.hl7.org/CodeSystem/v3-ActCode",
        "code": "EMER",
        "display": "emergency",
        "userSelected": true
      },
      "type": [ {
        "coding": [ {
          "system": "http://snomed.info/sct",
          "version": "2020-09",
          "code": "4525004",
          "display": "Emergency department patient visit (procedure)",
          "userSelected": true
        } ]
      } ],
      "subject": {
        "reference": "Patient/c6e9e711-56c5-4c13-9377-a97c702900c9"
      },
      "period": {
        "start": "2026-10-09T08:05:00.000+00:00",
        "end": "2026-10-10T07:15:00.000+00:00"
      },
      "reasonCode": [ {
        "coding": [ {
          "system": "http://hl7.org/fhir/sid/icd-10-cm",
          "code": "I21.0",
          "display": "ST elevation (STEMI) myocardial infarction of anterior wall",
          "userSelected": true
        } ]
      } ],
      "reasonReference": [ {
        "reference": "Condition/71256202-0051-46f1-bea1-ae134e368619"
      } ],
      "location": [ {
        "location": {
          "reference": "Location/a7cdd2cd-b790-4a76-8608-4f2888f9d05c"
        },
        "period": {
          "start": "2026-10-09T08:05:00.000+00:00",
          "end": "2026-10-10T07:15:00.000+00:00"
        }
      } ]
    },
    "request": {
      "method": "PUT",
      "url": "Encounter/70d803a6-8d7f-488e-873e-2b73071302ea"
    }
  }, {
    "fullUrl": "https://madie.cms.gov/Location/a7cdd2cd-b790-4a76-8608-4f2888f9d05c",
    "resource": {
      "resourceType": "Location",
      "id": "a7cdd2cd-b790-4a76-8608-4f2888f9d05c",
      "meta": {
        "profile": [ "http://hl7.org/fhir/us/qicore/StructureDefinition/qicore-location" ]
      },
      "identifier": [ {
        "use": "usual",
        "system": "http://exampleoflocation.com",
        "value": "ED-1.R3"
      } ],
      "name": "Emergency Department, first floor",
      "type": [ {
        "coding": [ {
          "system": "http://snomed.info/sct",
          "version": "20210611",
          "code": "4525004",
          "display": "Emergency department patient visit (procedure)",
          "userSelected": true
        } ]
      }, {
        "coding": [ {
          "system": "http://terminology.hl7.org/CodeSystem/v3-RoleCode",
          "version": "2019",
          "code": "ER",
          "display": "Emergency room",
          "userSelected": true
        } ]
      }, {
        "coding": [ {
          "system": "http://cts.nlm.nih.gov/fhir/CodeSystem/hsloc",
          "version": "2022",
          "code": "1108-0",
          "display": "Emergency Department",
          "userSelected": true
        } ]
      } ]
    },
    "request": {
      "method": "PUT",
      "url": "Location/a7cdd2cd-b790-4a76-8608-4f2888f9d05c"
    }
  }, {
    "fullUrl": "https://madie.cms.gov/Procedure/d4e62f2b-e52c-4616-98a3-91c30afc6a33",
    "resource": {
      "resourceType": "Procedure",
      "id": "d4e62f2b-e52c-4616-98a3-91c30afc6a33",
      "meta": {
        "profile": [ "http://hl7.org/fhir/us/qicore/StructureDefinition/qicore-procedure" ]
      },
      "extension": [ {
        "url": "http://hl7.org/fhir/us/qicore/StructureDefinition/qicore-recorded",
        "valueDateTime": "2026-10-09T12:15:00.000+00:00"
      } ],
      "status": "completed",
      "category": {
        "coding": [ {
          "system": "http://snomed.info/sct",
          "code": "103693007",
          "display": "Diagnostic procedure",
          "userSelected": true
        } ]
      },
      "code": {
        "coding": [ {
          "system": "http://www.cms.gov/Medicare/Coding/ICD10",
          "version": "2021",
          "code": "0270346",
          "display": "Dilation of Coronary Artery, One Artery, Bifurcation, with Drug-eluting Intraluminal Device, Percutaneous Approach",
          "userSelected": true
        } ]
      },
      "subject": {
        "reference": "Patient/c6e9e711-56c5-4c13-9377-a97c702900c9"
      },
      "performedPeriod": {
        "start": "2026-10-09T09:34:00.000+00:00",
        "end": "2026-10-09T12:15:00.000+00:00"
      }
    },
    "request": {
      "method": "PUT",
      "url": "Procedure/d4e62f2b-e52c-4616-98a3-91c30afc6a33"
    }
  }, {
    "fullUrl": "https://madie.cms.gov/Condition/71256202-0051-46f1-bea1-ae134e368619",
    "resource": {
      "resourceType": "Condition",
      "id": "71256202-0051-46f1-bea1-ae134e368619",
      "meta": {
        "profile": [ "http://hl7.org/fhir/us/qicore/StructureDefinition/qicore-condition-encounter-diagnosis" ]
      },
      "clinicalStatus": {
        "coding": [ {
          "system": "http://terminology.hl7.org/CodeSystem/condition-clinical",
          "code": "active",
          "display": "Active",
          "userSelected": true
        } ]
      },
      "category": [ {
        "coding": [ {
          "system": "http://terminology.hl7.org/CodeSystem/condition-category",
          "code": "encounter-diagnosis",
          "display": "Encounter Diagnosis",
          "userSelected": true
        } ]
      } ],
      "code": {
        "coding": [ {
          "system": "http://snomed.info/sct",
          "version": "2020-09",
          "code": "401303003",
          "display": "Acute ST segment elevation myocardial infarction (disorder)",
          "userSelected": true
        } ]
      },
      "subject": {
        "reference": "Patient/c6e9e711-56c5-4c13-9377-a97c702900c9"
      },
      "onsetDateTime": "2026-10-09T08:10:00.000+00:00"
    },
    "request": {
      "method": "PUT",
      "url": "Condition/71256202-0051-46f1-bea1-ae134e368619"
    }
  }, {
    "fullUrl": "https://madie.cms.gov/MeasureReport/2e7de420-47a0-48cd-93a1-bebc84ae1dc0",
    "resource": {
      "resourceType": "MeasureReport",
      "id": "2e7de420-47a0-48cd-93a1-bebc84ae1dc0",
      "meta": {
        "profile": [ "http://hl7.org/fhir/us/cqfmeasures/StructureDefinition/test-case-cqfm" ]
      },
      "contained": [ {
        "resourceType": "Parameters",
        "id": "2f057972-eeae-4f5c-b705-abba6789e66e-parameters",
        "parameter": [ {
          "name": "subject",
          "valueString": "c6e9e711-56c5-4c13-9377-a97c702900c9"
        } ]
      } ],
      "extension": [ {
        "url": "http://hl7.org/fhir/StructureDefinition/cqf-inputParameters",
        "valueReference": {
          "reference": "#2f057972-eeae-4f5c-b705-abba6789e66e-parameters"
        }
      }, {
        "url": "http://hl7.org/fhir/us/cqfmeasures/StructureDefinition/cqfm-testCaseDescription",
        "valueMarkdown": "PCI 89 minutes of ED start"
      } ],
      "modifierExtension": [ {
        "url": "http://hl7.org/fhir/us/cqfmeasures/StructureDefinition/cqfm-isTestCase",
        "valueBoolean": true
      } ],
      "status": "complete",
      "type": "individual",
      "measure": "https://madie.cms.gov/Measure/CMS996FHIRAptTxforSTEMI",
      "period": {
        "start": "2026-01-01",
        "end": "2026-12-31"
      },
      "group": [ {
        "id": "Group_1",
        "population": [ {
          "id": "InitialPopulation_1",
          "code": {
            "coding": [ {
              "system": "http://terminology.hl7.org/CodeSystem/measure-population",
              "code": "initial-population",
              "display": "Initial Population"
            } ]
          },
          "count": 1
        }, {
          "id": "Denominator_1",
          "code": {
            "coding": [ {
              "system": "http://terminology.hl7.org/CodeSystem/measure-population",
              "code": "denominator",
              "display": "Denominator"
            } ]
          },
          "count": 1
        }, {
          "id": "DenominatorExclusion_1",
          "code": {
            "coding": [ {
              "system": "http://terminology.hl7.org/CodeSystem/measure-population",
              "code": "denominator-exclusion",
              "display": "Denominator Exclusion"
            } ]
          },
          "count": 0
        }, {
          "id": "Numerator_1",
          "code": {
            "coding": [ {
              "system": "http://terminology.hl7.org/CodeSystem/measure-population",
              "code": "numerator",
              "display": "Numerator"
            } ]
          },
          "count": 1
        }, {
          "id": "DenominatorException_1",
          "code": {
            "coding": [ {
              "system": "http://terminology.hl7.org/CodeSystem/measure-population",
              "code": "denominator-exception",
              "display": "Denominator Exception"
            } ]
          },
          "count": 0
        } ],
        "measureScore": {
          "value": 0.0
        }
      } ],
      "evaluatedResource": [ {
        "reference": "Patient/c6e9e711-56c5-4c13-9377-a97c702900c9"
      }, {
        "reference": "Encounter/70d803a6-8d7f-488e-873e-2b73071302ea"
      }, {
        "reference": "Location/a7cdd2cd-b790-4a76-8608-4f2888f9d05c"
      }, {
        "reference": "Procedure/d4e62f2b-e52c-4616-98a3-91c30afc6a33"
      }, {
        "reference": "Condition/71256202-0051-46f1-bea1-ae134e368619"
      } ]
    },
    "request": {
      "method": "PUT",
      "url": "MeasureReport/2e7de420-47a0-48cd-93a1-bebc84ae1dc0"
    }
  } ]
}