{
  "resourceType": "Bundle",
  "id": "4163431316163131",
  "type": "collection",
  "entry": [ {
    "fullUrl": "https://madie.cms.gov/Patient/559a2377-0faa-44f8-bf81-bbf3df4d3edf",
    "resource": {
      "resourceType": "Patient",
      "id": "559a2377-0faa-44f8-bf81-bbf3df4d3edf",
      "meta": {
        "profile": [ "http://hl7.org/fhir/us/qicore/StructureDefinition/qicore-patient" ]
      },
      "extension": [ {
        "url": "http://hl7.org/fhir/us/core/StructureDefinition/us-core-race",
        "extension": [ {
          "url": "ombCategory",
          "valueCoding": {
            "system": "http://terminology.hl7.org/CodeSystem/v3-NullFlavor",
            "code": "UNK",
            "display": "unknown"
          }
        }, {
          "url": "text",
          "valueString": "unknown"
        } ]
      }, {
        "url": "http://hl7.org/fhir/us/core/StructureDefinition/us-core-ethnicity",
        "extension": [ {
          "url": "ombCategory",
          "valueCoding": {
            "system": "urn:oid:2.16.840.1.113883.6.238",
            "code": "2186-5",
            "display": "Not Hispanic or Latino"
          }
        }, {
          "url": "text",
          "valueString": "Not Hispanic or Latino"
        } ]
      } ],
      "identifier": [ {
        "type": {
          "coding": [ {
            "system": "http://terminology.hl7.org/CodeSystem/v2-0203",
            "code": "MR"
          } ]
        },
        "system": "https://bonnie-fhir.healthit.gov/",
        "value": "6543131313"
      } ],
      "active": true,
      "name": [ {
        "use": "usual",
        "family": "NUMERFail",
        "given": [ "MedOrderCancelledDuringEnc" ]
      } ],
      "gender": "female",
      "birthDate": "1983-07-27"
    }
  }, {
    "fullUrl": "https://madie.cms.gov/Encounter/e6db2747-c5a0-4dd7-928a-061bd4af8e92",
    "resource": {
      "resourceType": "Encounter",
      "id": "e6db2747-c5a0-4dd7-928a-061bd4af8e92",
      "meta": {
        "profile": [ "http://hl7.org/fhir/us/qicore/StructureDefinition/qicore-encounter" ]
      },
      "status": "finished",
      "class": {
        "system": "http://terminology.hl7.org/CodeSystem/v3-ActCode",
        "code": "AMB",
        "display": "ambulatory"
      },
      "type": [ {
        "coding": [ {
          "system": "http://snomed.info/sct",
          "version": "http://snomed.info/sct/731000124108/version/20230301",
          "code": "185467006",
          "display": "Home visit for acute condition (procedure)"
        } ]
      } ],
      "subject": {
        "reference": "Patient/559a2377-0faa-44f8-bf81-bbf3df4d3edf"
      },
      "period": {
        "start": "2026-02-27T14:40:00.000+00:00",
        "end": "2026-02-27T14:55:00.000+00:00"
      },
      "length": {
        "value": 0,
        "unit": "days"
      }
    }
  }, {
    "fullUrl": "https://madie.cms.gov/Encounter/e1536d85-b7d9-4fb5-bd11-904139c9a11d",
    "resource": {
      "resourceType": "Encounter",
      "id": "e1536d85-b7d9-4fb5-bd11-904139c9a11d",
      "meta": {
        "profile": [ "http://hl7.org/fhir/us/qicore/StructureDefinition/qicore-encounter" ]
      },
      "status": "finished",
      "class": {
        "system": "http://terminology.hl7.org/CodeSystem/v3-ActCode",
        "code": "AMB",
        "display": "ambulatory"
      },
      "type": [ {
        "coding": [ {
          "system": "http://www.ama-assn.org/go/cpt",
          "version": "2024",
          "code": "99212"
        } ]
      } ],
      "subject": {
        "reference": "Patient/559a2377-0faa-44f8-bf81-bbf3df4d3edf"
      },
      "period": {
        "start": "2026-06-12T11:50:00.000+00:00",
        "end": "2026-06-12T12:00:00.000+00:00"
      },
      "length": {
        "value": 0,
        "unit": "days"
      }
    }
  }, {
    "fullUrl": "https://madie.cms.gov/Condition/d1ea4885-65bc-4910-a330-ccc06f9a6585",
    "resource": {
      "resourceType": "Condition",
      "id": "d1ea4885-65bc-4910-a330-ccc06f9a6585",
      "meta": {
        "profile": [ "http://hl7.org/fhir/us/qicore/StructureDefinition/qicore-condition-problems-health-concerns" ]
      },
      "clinicalStatus": {
        "coding": [ {
          "system": "http://terminology.hl7.org/CodeSystem/condition-clinical",
          "code": "active",
          "display": "Active"
        } ]
      },
      "verificationStatus": {
        "coding": [ {
          "system": "http://terminology.hl7.org/CodeSystem/condition-ver-status",
          "code": "confirmed",
          "display": "Confirmed"
        } ]
      },
      "category": [ {
        "coding": [ {
          "system": "http://terminology.hl7.org/CodeSystem/condition-category",
          "code": "problem-list-item",
          "display": "problem list item"
        } ]
      } ],
      "code": {
        "coding": [ {
          "system": "http://hl7.org/fhir/sid/icd-10-cm",
          "version": "2024",
          "code": "I11.0"
        } ]
      },
      "subject": {
        "reference": "Patient/559a2377-0faa-44f8-bf81-bbf3df4d3edf"
      },
      "onsetPeriod": {
        "start": "2026-02-22T14:40:00.000+00:00"
      }
    }
  }, {
    "fullUrl": "https://madie.cms.gov/Practitioner/5ba173a7-a9b0-4506-b8b5-64531bf19aa9",
    "resource": {
      "resourceType": "Practitioner",
      "id": "5ba173a7-a9b0-4506-b8b5-64531bf19aa9",
      "meta": {
        "profile": [ "http://hl7.org/fhir/us/qicore/StructureDefinition/qicore-practitioner" ]
      },
      "identifier": [ {
        "use": "temp",
        "system": "urn:oid:2.16.840.1.113883.4.336",
        "value": "Practitioner-23"
      } ],
      "active": true,
      "name": [ {
        "family": "Careful",
        "given": [ "Adam" ],
        "prefix": [ "Dr" ]
      } ],
      "address": [ {
        "use": "home",
        "line": [ "534 Erewhon St" ],
        "city": "PleasantVille",
        "state": "UT",
        "postalCode": "84414"
      } ],
      "qualification": [ {
        "identifier": [ {
          "system": "http://mock-data.org/UniversityIdentifier",
          "value": "12345"
        } ],
        "code": {
          "coding": [ {
            "system": "http://terminology.hl7.org/CodeSystem/v2-0360",
            "code": "BS",
            "display": "Bachelor of Science"
          } ],
          "text": "Bachelor of Science"
        },
        "period": {
          "start": "1996"
        },
        "issuer": {
          "display": "Example University"
        }
      } ]
    }
  }, {
    "fullUrl": "https://madie.cms.gov/MedicationRequest/81a4b7c7-c061-458e-b195-1012292269e8",
    "resource": {
      "resourceType": "MedicationRequest",
      "id": "81a4b7c7-c061-458e-b195-1012292269e8",
      "meta": {
        "profile": [ "http://hl7.org/fhir/us/qicore/StructureDefinition/qicore-medicationrequest" ]
      },
      "status": "cancelled",
      "intent": "order",
      "medicationCodeableConcept": {
        "coding": [ {
          "system": "http://www.nlm.nih.gov/research/umls/rxnorm",
          "version": "06052023",
          "code": "200031"
        } ]
      },
      "subject": {
        "reference": "Patient/559a2377-0faa-44f8-bf81-bbf3df4d3edf"
      },
      "authoredOn": "2026-06-12T11:55:00.000+00:00",
      "requester": {
        "reference": "Practitioner/5ba173a7-a9b0-4506-b8b5-64531bf19aa9"
      }
    }
  }, {
    "fullUrl": "https://madie.cms.gov/Observation/fd765994-b9b6-4bbd-b7b2-d0d081d3fc04",
    "resource": {
      "resourceType": "Observation",
      "id": "fd765994-b9b6-4bbd-b7b2-d0d081d3fc04",
      "meta": {
        "profile": [ "http://hl7.org/fhir/us/core/StructureDefinition/us-core-heart-rate" ]
      },
      "status": "final",
      "category": [ {
        "coding": [ {
          "system": "http://terminology.hl7.org/CodeSystem/observation-category",
          "code": "vital-signs",
          "display": "Vital Signs"
        } ]
      }, {
        "coding": [ {
          "system": "http://terminology.hl7.org/CodeSystem/observation-category",
          "code": "survey"
        } ]
      } ],
      "code": {
        "coding": [ {
          "system": "http://loinc.org",
          "version": "2.76",
          "code": "8867-4"
        } ]
      },
      "subject": {
        "reference": "Patient/559a2377-0faa-44f8-bf81-bbf3df4d3edf"
      },
      "effectiveDateTime": "2026-02-27T14:40:00.000+00:00",
      "valueQuantity": {
        "value": 45,
        "unit": "/min",
        "system": "http://unitsofmeasure.org",
        "code": "/min"
      }
    }
  }, {
    "fullUrl": "https://madie.cms.gov/Observation/8f8b631a-bcc6-4b85-83d7-ecbc6d5f0f1f",
    "resource": {
      "resourceType": "Observation",
      "id": "8f8b631a-bcc6-4b85-83d7-ecbc6d5f0f1f",
      "meta": {
        "profile": [ "http://hl7.org/fhir/us/core/StructureDefinition/us-core-heart-rate" ]
      },
      "status": "final",
      "category": [ {
        "coding": [ {
          "system": "http://terminology.hl7.org/CodeSystem/observation-category",
          "code": "vital-signs",
          "display": "Vital Signs"
        } ]
      }, {
        "coding": [ {
          "system": "http://terminology.hl7.org/CodeSystem/observation-category",
          "code": "survey"
        } ]
      } ],
      "code": {
        "coding": [ {
          "system": "http://loinc.org",
          "version": "2.76",
          "code": "8867-4"
        } ]
      },
      "subject": {
        "reference": "Patient/559a2377-0faa-44f8-bf81-bbf3df4d3edf"
      },
      "effectiveDateTime": "2026-02-27T14:45:00.000+00:00",
      "valueQuantity": {
        "value": 51,
        "unit": "/min",
        "system": "http://unitsofmeasure.org",
        "code": "/min"
      }
    }
  }, {
    "fullUrl": "https://madie.cms.gov/Condition/33270f71-af18-4d34-87e2-8d3c6dfd36a0",
    "resource": {
      "resourceType": "Condition",
      "id": "33270f71-af18-4d34-87e2-8d3c6dfd36a0",
      "meta": {
        "profile": [ "http://hl7.org/fhir/us/qicore/StructureDefinition/qicore-condition-problems-health-concerns" ]
      },
      "clinicalStatus": {
        "coding": [ {
          "system": "http://terminology.hl7.org/CodeSystem/condition-clinical",
          "code": "active",
          "display": "Active"
        } ]
      },
      "verificationStatus": {
        "coding": [ {
          "system": "http://terminology.hl7.org/CodeSystem/condition-ver-status",
          "code": "confirmed",
          "display": "Confirmed"
        } ]
      },
      "category": [ {
        "coding": [ {
          "system": "http://terminology.hl7.org/CodeSystem/condition-category",
          "code": "problem-list-item",
          "display": "problem list item"
        } ]
      } ],
      "severity": {
        "coding": [ {
          "system": "http://snomed.info/sct",
          "version": "http://snomed.info/sct/731000124108/version/20240301",
          "code": "24484000",
          "display": "Severe (severity modifier) (qualifier value)"
        } ]
      },
      "code": {
        "coding": [ {
          "system": "http://snomed.info/sct",
          "version": "http://snomed.info/sct/731000124108/version/20250301",
          "code": "134401001",
          "display": "Left ventricular systolic dysfunction (disorder)"
        } ]
      },
      "subject": {
        "reference": "Patient/559a2377-0faa-44f8-bf81-bbf3df4d3edf"
      },
      "onsetPeriod": {
        "start": "2026-02-18T14:40:00.000+00:00",
        "end": "2026-02-18T14:55:00.000+00:00"
      }
    }
  }, {
    "fullUrl": "https://madie.cms.gov/MeasureReport/0b602d26-67bf-46f2-a563-c39d9e977516",
    "resource": {
      "resourceType": "MeasureReport",
      "id": "0b602d26-67bf-46f2-a563-c39d9e977516",
      "meta": {
        "profile": [ "http://hl7.org/fhir/us/cqfmeasures/StructureDefinition/test-case-cqfm" ]
      },
      "contained": [ {
        "resourceType": "Parameters",
        "id": "1ae9e77d-b67c-4d66-a3ac-aa98e56bf30c-parameters",
        "parameter": [ {
          "name": "subject",
          "valueString": "559a2377-0faa-44f8-bf81-bbf3df4d3edf"
        } ]
      } ],
      "extension": [ {
        "url": "http://hl7.org/fhir/StructureDefinition/cqf-inputParameters",
        "valueReference": {
          "reference": "#1ae9e77d-b67c-4d66-a3ac-aa98e56bf30c-parameters"
        }
      }, {
        "url": "http://hl7.org/fhir/us/cqfmeasures/StructureDefinition/cqfm-testCaseDescription",
        "valueMarkdown": "Patient without beta blocker active medication d/t order cancellation"
      } ],
      "modifierExtension": [ {
        "url": "http://hl7.org/fhir/us/cqfmeasures/StructureDefinition/cqfm-isTestCase",
        "valueBoolean": true
      } ],
      "status": "complete",
      "type": "individual",
      "measure": "https://madie.cms.gov/Measure/CMS144FHIRHFBetaBlockerForLVSD",
      "period": {
        "start": "2026-01-01",
        "end": "2026-12-31"
      },
      "group": [ {
        "id": "Group_1",
        "population": [ {
          "id": "InitialPopulation_1",
          "code": {
            "coding": [ {
              "system": "http://terminology.hl7.org/CodeSystem/measure-population",
              "code": "initial-population",
              "display": "Initial Population"
            } ]
          },
          "count": 1
        }, {
          "id": "Denominator_1",
          "code": {
            "coding": [ {
              "system": "http://terminology.hl7.org/CodeSystem/measure-population",
              "code": "denominator",
              "display": "Denominator"
            } ]
          },
          "count": 1
        }, {
          "id": "DenominatorExclusion_1",
          "code": {
            "coding": [ {
              "system": "http://terminology.hl7.org/CodeSystem/measure-population",
              "code": "denominator-exclusion",
              "display": "Denominator Exclusion"
            } ]
          },
          "count": 0
        }, {
          "id": "Numerator_1",
          "code": {
            "coding": [ {
              "system": "http://terminology.hl7.org/CodeSystem/measure-population",
              "code": "numerator",
              "display": "Numerator"
            } ]
          },
          "count": 0
        }, {
          "id": "DenominatorException_1",
          "code": {
            "coding": [ {
              "system": "http://terminology.hl7.org/CodeSystem/measure-population",
              "code": "denominator-exception",
              "display": "Denominator Exception"
            } ]
          },
          "count": 0
        } ],
        "measureScore": {
          "value": 1.0
        }
      } ],
      "evaluatedResource": [ {
        "reference": "Patient/559a2377-0faa-44f8-bf81-bbf3df4d3edf"
      }, {
        "reference": "Encounter/e6db2747-c5a0-4dd7-928a-061bd4af8e92"
      }, {
        "reference": "Encounter/e1536d85-b7d9-4fb5-bd11-904139c9a11d"
      }, {
        "reference": "Condition/d1ea4885-65bc-4910-a330-ccc06f9a6585"
      }, {
        "reference": "Practitioner/5ba173a7-a9b0-4506-b8b5-64531bf19aa9"
      }, {
        "reference": "MedicationRequest/81a4b7c7-c061-458e-b195-1012292269e8"
      }, {
        "reference": "Observation/fd765994-b9b6-4bbd-b7b2-d0d081d3fc04"
      }, {
        "reference": "Observation/8f8b631a-bcc6-4b85-83d7-ecbc6d5f0f1f"
      }, {
        "reference": "Condition/33270f71-af18-4d34-87e2-8d3c6dfd36a0"
      } ]
    }
  } ]
}