{
  "resourceType": "Bundle",
  "id": "63236a248d26c655c5601f03",
  "type": "transaction",
  "entry": [ {
    "fullUrl": "https://madie.cms.gov/Patient/3dfa6b2c-e7e1-46a4-a2cc-54602538c44e",
    "resource": {
      "resourceType": "Patient",
      "id": "3dfa6b2c-e7e1-46a4-a2cc-54602538c44e",
      "meta": {
        "profile": [ "http://hl7.org/fhir/us/qicore/StructureDefinition/qicore-patient" ]
      },
      "extension": [ {
        "url": "http://hl7.org/fhir/us/core/StructureDefinition/us-core-race",
        "extension": [ {
          "url": "ombCategory",
          "valueCoding": {
            "system": "urn:oid:2.16.840.1.113883.6.238",
            "code": "2054-5",
            "display": "Black or African American",
            "userSelected": true
          }
        }, {
          "url": "text",
          "valueString": "Black or African American"
        } ]
      }, {
        "url": "http://hl7.org/fhir/us/core/StructureDefinition/us-core-ethnicity",
        "extension": [ {
          "url": "ombCategory",
          "valueCoding": {
            "system": "urn:oid:2.16.840.1.113883.6.238",
            "code": "2186-5",
            "display": "Not Hispanic or Latino",
            "userSelected": true
          }
        }, {
          "url": "text",
          "valueString": "Not Hispanic or Latino"
        } ]
      } ],
      "identifier": [ {
        "system": "http://hospital.smarthealthit.org",
        "value": "999999999"
      } ],
      "name": [ {
        "family": "NUMERFail",
        "given": [ "2Benzodiazepines" ]
      } ],
      "gender": "female",
      "birthDate": "2006-09-15"
    },
    "request": {
      "method": "PUT",
      "url": "Patient/3dfa6b2c-e7e1-46a4-a2cc-54602538c44e"
    }
  }, {
    "fullUrl": "https://madie.cms.gov/Encounter/f6131bfa-17b3-4a71-95ec-9fc36ec21202",
    "resource": {
      "resourceType": "Encounter",
      "id": "f6131bfa-17b3-4a71-95ec-9fc36ec21202",
      "meta": {
        "profile": [ "http://hl7.org/fhir/us/qicore/StructureDefinition/qicore-encounter" ]
      },
      "status": "finished",
      "class": {
        "system": "http://terminology.hl7.org/CodeSystem/v3-ActCode",
        "code": "IMP",
        "display": "inpatient encounter"
      },
      "type": [ {
        "coding": [ {
          "system": "http://snomed.info/sct",
          "code": "183452005",
          "display": "Emergency hospital admission (procedure)",
          "userSelected": true
        } ]
      } ],
      "subject": {
        "reference": "Patient/3dfa6b2c-e7e1-46a4-a2cc-54602538c44e"
      },
      "period": {
        "start": "2026-12-29T00:00:00.000+00:00",
        "end": "2026-12-31T00:30:00.000+00:00"
      }
    },
    "request": {
      "method": "PUT",
      "url": "Encounter/f6131bfa-17b3-4a71-95ec-9fc36ec21202"
    }
  }, {
    "fullUrl": "https://madie.cms.gov/MedicationRequest/3092200d-bd24-466e-b713-ba46ae2176f0",
    "resource": {
      "resourceType": "MedicationRequest",
      "id": "3092200d-bd24-466e-b713-ba46ae2176f0",
      "meta": {
        "profile": [ "http://hl7.org/fhir/us/qicore/StructureDefinition/qicore-medicationrequest" ]
      },
      "status": "active",
      "intent": "order",
      "category": [ {
        "coding": [ {
          "system": "http://terminology.hl7.org/CodeSystem/medicationrequest-category",
          "code": "discharge",
          "display": "Discharge",
          "userSelected": true
        } ]
      } ],
      "doNotPerform": false,
      "medicationCodeableConcept": {
        "coding": [ {
          "system": "http://www.nlm.nih.gov/research/umls/rxnorm",
          "code": "1298088",
          "display": "flurazepam hydrochloride 15 MG Oral Capsule",
          "userSelected": true
        } ]
      },
      "subject": {
        "reference": "Patient/3dfa6b2c-e7e1-46a4-a2cc-54602538c44e"
      },
      "authoredOn": "2026-12-31T00:05:00.000+00:00",
      "requester": {
        "reference": "Practitioner/108db78e-310e-4bf6-a9c4-e422432a74ab"
      }
    },
    "request": {
      "method": "PUT",
      "url": "MedicationRequest/3092200d-bd24-466e-b713-ba46ae2176f0"
    }
  }, {
    "fullUrl": "https://madie.cms.gov/MedicationRequest/27dcb950-ba4d-4426-a54b-09bf19553d14",
    "resource": {
      "resourceType": "MedicationRequest",
      "id": "27dcb950-ba4d-4426-a54b-09bf19553d14",
      "meta": {
        "profile": [ "http://hl7.org/fhir/us/qicore/StructureDefinition/qicore-medicationrequest" ]
      },
      "status": "active",
      "intent": "order",
      "category": [ {
        "coding": [ {
          "system": "http://terminology.hl7.org/CodeSystem/medicationrequest-category",
          "code": "community",
          "display": "Community",
          "userSelected": true
        } ]
      } ],
      "doNotPerform": false,
      "medicationCodeableConcept": {
        "coding": [ {
          "system": "http://www.nlm.nih.gov/research/umls/rxnorm",
          "code": "1298091",
          "display": "flurazepam hydrochloride 30 MG Oral Capsule",
          "userSelected": true
        } ]
      },
      "subject": {
        "reference": "Patient/3dfa6b2c-e7e1-46a4-a2cc-54602538c44e"
      },
      "authoredOn": "2025-12-31T09:00:00.000+00:00",
      "requester": {
        "reference": "Practitioner/108db78e-310e-4bf6-a9c4-e422432a74ab"
      }
    },
    "request": {
      "method": "PUT",
      "url": "MedicationRequest/27dcb950-ba4d-4426-a54b-09bf19553d14"
    }
  }, {
    "fullUrl": "https://madie.cms.gov/Practitioner/108db78e-310e-4bf6-a9c4-e422432a74ab",
    "resource": {
      "resourceType": "Practitioner",
      "id": "108db78e-310e-4bf6-a9c4-e422432a74ab",
      "meta": {
        "profile": [ "http://hl7.org/fhir/us/qicore/StructureDefinition/qicore-practitioner" ]
      },
      "identifier": [ {
        "system": "http://hl7.org/fhir/sid/us-npi",
        "value": "9999999896"
      } ],
      "active": true,
      "name": [ {
        "family": "Ramires",
        "given": [ "Alma" ],
        "prefix": [ "Dr" ]
      } ],
      "address": [ {
        "use": "home",
        "line": [ "534 Erewhon St" ],
        "city": "Netherville",
        "state": "IN",
        "postalCode": "46131"
      } ],
      "qualification": [ {
        "identifier": [ {
          "system": "http://goodhealth.org/prIdentifier",
          "value": "12345"
        } ],
        "code": {
          "coding": [ {
            "system": "http://terminology.hl7.org/CodeSystem/v2-0360|2.7",
            "code": "BS",
            "display": "Bachelor of Science"
          } ],
          "text": "Bachelor of Science"
        },
        "period": {
          "start": "1995"
        },
        "issuer": {
          "display": "Example University"
        }
      } ]
    },
    "request": {
      "method": "PUT",
      "url": "Practitioner/108db78e-310e-4bf6-a9c4-e422432a74ab"
    }
  }, {
    "fullUrl": "https://madie.cms.gov/Coverage/488fc95b-df13-4244-8ddd-1bd577651537",
    "resource": {
      "resourceType": "Coverage",
      "id": "488fc95b-df13-4244-8ddd-1bd577651537",
      "meta": {
        "profile": [ "http://hl7.org/fhir/us/qicore/StructureDefinition/qicore-coverage" ]
      },
      "status": "active",
      "subscriberId": "523435",
      "beneficiary": {
        "reference": "Patient/3dfa6b2c-e7e1-46a4-a2cc-54602538c44e"
      },
      "relationship": {
        "coding": [ {
          "system": "http://terminology.hl7.org/CodeSystem/subscriber-relationship",
          "code": "self"
        } ]
      },
      "payor": [ {
        "reference": "Organization/ed05c1de-4f70-4231-8325-2032e2890e32"
      } ]
    },
    "request": {
      "method": "PUT",
      "url": "Coverage/488fc95b-df13-4244-8ddd-1bd577651537"
    }
  }, {
    "fullUrl": "https://madie.cms.gov/Organization/ed05c1de-4f70-4231-8325-2032e2890e32",
    "resource": {
      "resourceType": "Organization",
      "id": "ed05c1de-4f70-4231-8325-2032e2890e32",
      "meta": {
        "profile": [ "http://hl7.org/fhir/us/qicore/StructureDefinition/qicore-organization" ]
      },
      "identifier": [ {
        "use": "temp",
        "system": "urn:oid:2.16.840.1.113883.4.4",
        "value": "21-3259825"
      } ],
      "active": true,
      "type": [ {
        "coding": [ {
          "system": "http://terminology.hl7.org/CodeSystem/organization-type",
          "code": "pay",
          "display": "Payer"
        } ]
      } ],
      "name": "Blue Cross Blue Shield of Texas",
      "telecom": [ {
        "system": "phone",
        "value": "(+1) 972-766-6900"
      } ],
      "address": [ {
        "use": "billing",
        "type": "postal",
        "line": [ "P.O. Box 660044" ],
        "city": "Dallas",
        "state": "TX",
        "postalCode": "75266-0044",
        "country": "USA"
      } ]
    },
    "request": {
      "method": "PUT",
      "url": "Organization/ed05c1de-4f70-4231-8325-2032e2890e32"
    }
  }, {
    "fullUrl": "https://madie.cms.gov/MeasureReport/a633ad80-f624-4806-9b42-94e08a99761c",
    "resource": {
      "resourceType": "MeasureReport",
      "id": "a633ad80-f624-4806-9b42-94e08a99761c",
      "meta": {
        "profile": [ "http://hl7.org/fhir/us/cqfmeasures/StructureDefinition/test-case-cqfm" ]
      },
      "contained": [ {
        "resourceType": "Parameters",
        "id": "39fcf94e-a302-4b79-8285-5dbfd5ffa81c-parameters",
        "parameter": [ {
          "name": "subject",
          "valueString": "3dfa6b2c-e7e1-46a4-a2cc-54602538c44e"
        } ]
      } ],
      "extension": [ {
        "url": "http://hl7.org/fhir/StructureDefinition/cqf-inputParameters",
        "valueReference": {
          "reference": "#39fcf94e-a302-4b79-8285-5dbfd5ffa81c-parameters"
        }
      }, {
        "url": "http://hl7.org/fhir/us/cqfmeasures/StructureDefinition/cqfm-testCaseDescription",
        "valueMarkdown": "Encounter 12/29 - 12/31, age 18, 2 benzodiazepine (not an opioid/benzo nor opioid and an opioid) \n"
      } ],
      "modifierExtension": [ {
        "url": "http://hl7.org/fhir/us/cqfmeasures/StructureDefinition/cqfm-isTestCase",
        "valueBoolean": true
      } ],
      "status": "complete",
      "type": "individual",
      "measure": "https://madie.cms.gov/Measure/CMS506FHIRSafeUseofOpioids",
      "period": {
        "start": "2026-01-01",
        "end": "2026-12-31"
      },
      "group": [ {
        "id": "Group_1",
        "population": [ {
          "id": "InitialPopulation_1",
          "code": {
            "coding": [ {
              "system": "http://terminology.hl7.org/CodeSystem/measure-population",
              "code": "initial-population",
              "display": "Initial Population"
            } ]
          },
          "count": 1
        }, {
          "id": "Denominator_1",
          "code": {
            "coding": [ {
              "system": "http://terminology.hl7.org/CodeSystem/measure-population",
              "code": "denominator",
              "display": "Denominator"
            } ]
          },
          "count": 1
        }, {
          "id": "DenominatorExclusion_1",
          "code": {
            "coding": [ {
              "system": "http://terminology.hl7.org/CodeSystem/measure-population",
              "code": "denominator-exclusion",
              "display": "Denominator Exclusion"
            } ]
          },
          "count": 0
        }, {
          "id": "Numerator_1",
          "code": {
            "coding": [ {
              "system": "http://terminology.hl7.org/CodeSystem/measure-population",
              "code": "numerator",
              "display": "Numerator"
            } ]
          },
          "count": 0
        } ],
        "measureScore": {
          "value": 0.0
        }
      } ],
      "evaluatedResource": [ {
        "reference": "Patient/3dfa6b2c-e7e1-46a4-a2cc-54602538c44e"
      }, {
        "reference": "Encounter/f6131bfa-17b3-4a71-95ec-9fc36ec21202"
      }, {
        "reference": "MedicationRequest/3092200d-bd24-466e-b713-ba46ae2176f0"
      }, {
        "reference": "MedicationRequest/27dcb950-ba4d-4426-a54b-09bf19553d14"
      }, {
        "reference": "Practitioner/108db78e-310e-4bf6-a9c4-e422432a74ab"
      }, {
        "reference": "Coverage/488fc95b-df13-4244-8ddd-1bd577651537"
      }, {
        "reference": "Organization/ed05c1de-4f70-4231-8325-2032e2890e32"
      } ]
    },
    "request": {
      "method": "PUT",
      "url": "MeasureReport/a633ad80-f624-4806-9b42-94e08a99761c"
    }
  } ]
}