{
  "resourceType": "Bundle",
  "id": "NUMERFail-FallNPOANoInjury",
  "type": "transaction",
  "entry": [ {
    "fullUrl": "https://madie.cms.gov/Encounter/62e06a79-0c1f-4b6f-88b5-43e81a232516",
    "resource": {
      "resourceType": "Encounter",
      "id": "62e06a79-0c1f-4b6f-88b5-43e81a232516",
      "meta": {
        "profile": [ "http://hl7.org/fhir/us/qicore/StructureDefinition/qicore-encounter" ]
      },
      "status": "finished",
      "class": {
        "system": "http://terminology.hl7.org/CodeSystem/v3-ActCode",
        "code": "IMP",
        "display": "inpatient encounter"
      },
      "type": [ {
        "coding": [ {
          "system": "http://snomed.info/sct",
          "code": "183452005"
        } ]
      } ],
      "subject": {
        "reference": "Patient/3279a237-292f-47b1-9039-ba46b57e765a"
      },
      "period": {
        "start": "2026-11-09T11:00:00.000+00:00",
        "end": "2026-11-12T08:15:00.000+00:00"
      },
      "diagnosis": [ {
        "extension": [ {
          "url": "http://hl7.org/fhir/us/qicore/StructureDefinition/qicore-encounter-diagnosisPresentOnAdmission",
          "valueCodeableConcept": {
            "coding": [ {
              "system": "https://www.cms.gov/Medicare/Medicare-Fee-for-Service-Payment/HospitalAcqCond/Coding",
              "code": "N"
            } ]
          }
        } ],
        "condition": {
          "reference": "Condition/a8ea4f36-8663-4c34-8abd-042bd3fea9dd"
        }
      } ]
    },
    "request": {
      "method": "PUT",
      "url": "Encounter/62e06a79-0c1f-4b6f-88b5-43e81a232516"
    }
  }, {
    "fullUrl": "https://madie.cms.gov/Encounter/77a3db96-0497-44e4-aa84-0cfc4f3a1952",
    "resource": {
      "resourceType": "Encounter",
      "id": "77a3db96-0497-44e4-aa84-0cfc4f3a1952",
      "meta": {
        "profile": [ "http://hl7.org/fhir/us/qicore/StructureDefinition/qicore-encounter" ]
      },
      "status": "finished",
      "class": {
        "system": "http://terminology.hl7.org/CodeSystem/v3-ActCode",
        "code": "IMP",
        "display": "inpatient encounter"
      },
      "type": [ {
        "coding": [ {
          "system": "http://snomed.info/sct",
          "code": "4525004"
        } ]
      } ],
      "subject": {
        "reference": "Patient/3279a237-292f-47b1-9039-ba46b57e765a"
      },
      "period": {
        "start": "2026-11-08T08:00:00.000+00:00",
        "end": "2026-11-09T10:15:00.000+00:00"
      }
    },
    "request": {
      "method": "PUT",
      "url": "Encounter/77a3db96-0497-44e4-aa84-0cfc4f3a1952"
    }
  }, {
    "fullUrl": "https://madie.cms.gov/Condition/a8ea4f36-8663-4c34-8abd-042bd3fea9dd",
    "resource": {
      "resourceType": "Condition",
      "id": "a8ea4f36-8663-4c34-8abd-042bd3fea9dd",
      "meta": {
        "profile": [ "http://hl7.org/fhir/us/qicore/StructureDefinition/qicore-condition" ]
      },
      "clinicalStatus": {
        "coding": [ {
          "system": "http://terminology.hl7.org/CodeSystem/condition-clinical",
          "code": "active"
        } ]
      },
      "verificationStatus": {
        "coding": [ {
          "system": "http://terminology.hl7.org/CodeSystem/condition-ver-status",
          "code": "confirmed"
        } ]
      },
      "category": [ {
        "coding": [ {
          "system": "http://terminology.hl7.org/CodeSystem/condition-category",
          "code": "encounter-diagnosis",
          "display": "Encounter Diagnosis"
        } ]
      } ],
      "code": {
        "coding": [ {
          "system": "http://snomed.info/sct",
          "code": "242390007"
        } ]
      },
      "subject": {
        "reference": "Patient/3279a237-292f-47b1-9039-ba46b57e765a"
      },
      "encounter": {
        "reference": "Encounter/62e06a79-0c1f-4b6f-88b5-43e81a232516"
      }
    },
    "request": {
      "method": "PUT",
      "url": "Condition/a8ea4f36-8663-4c34-8abd-042bd3fea9dd"
    }
  }, {
    "fullUrl": "https://madie.cms.gov/Patient/3279a237-292f-47b1-9039-ba46b57e765a",
    "resource": {
      "resourceType": "Patient",
      "id": "3279a237-292f-47b1-9039-ba46b57e765a",
      "meta": {
        "profile": [ "http://hl7.org/fhir/us/qicore/StructureDefinition/qicore-patient" ]
      },
      "extension": [ {
        "url": "http://hl7.org/fhir/us/core/StructureDefinition/us-core-race",
        "extension": [ {
          "url": "ombCategory",
          "valueCoding": {
            "system": "urn:oid:2.16.840.1.113883.6.238",
            "code": "2054-5",
            "display": "Black or African American",
            "userSelected": true
          }
        }, {
          "url": "text",
          "valueString": "Black or African American"
        } ]
      }, {
        "url": "http://hl7.org/fhir/us/core/StructureDefinition/us-core-ethnicity",
        "extension": [ {
          "url": "ombCategory",
          "valueCoding": {
            "system": "urn:oid:2.16.840.1.113883.6.238",
            "code": "2186-5",
            "display": "Not Hispanic or Latino",
            "userSelected": true
          }
        }, {
          "url": "text",
          "valueString": "Not Hispanic or Latino"
        } ]
      } ],
      "identifier": [ {
        "type": {
          "coding": [ {
            "system": "http://terminology.hl7.org/CodeSystem/v2-0203",
            "code": "MR"
          } ]
        },
        "system": "https://bonnie-fhir.healthit.gov/",
        "value": "61152a3b98086b7a79cbd7c1"
      } ],
      "active": true,
      "name": [ {
        "use": "usual",
        "family": "NUMERFail",
        "given": [ "FallNPOANoInjury" ]
      } ],
      "gender": "male",
      "birthDate": "1964-12-11"
    },
    "request": {
      "method": "PUT",
      "url": "Patient/3279a237-292f-47b1-9039-ba46b57e765a"
    }
  }, {
    "fullUrl": "https://madie.cms.gov/MeasureReport/f5d23a7a-6563-4866-9fed-520eb3083644",
    "resource": {
      "resourceType": "MeasureReport",
      "id": "f5d23a7a-6563-4866-9fed-520eb3083644",
      "meta": {
        "profile": [ "http://hl7.org/fhir/us/cqfmeasures/StructureDefinition/test-case-cqfm" ]
      },
      "contained": [ {
        "resourceType": "Parameters",
        "id": "e2a68c73-030f-4f1b-b1eb-4ed28f83e012-parameters",
        "parameter": [ {
          "name": "subject",
          "valueString": "3279a237-292f-47b1-9039-ba46b57e765a"
        } ]
      } ],
      "extension": [ {
        "url": "http://hl7.org/fhir/StructureDefinition/cqf-inputParameters",
        "valueReference": {
          "reference": "#e2a68c73-030f-4f1b-b1eb-4ed28f83e012-parameters"
        }
      }, {
        "url": "http://hl7.org/fhir/us/cqfmeasures/StructureDefinition/cqfm-testCaseDescription",
        "valueMarkdown": "Encounter diagnoses include a fall NPOA but no injury. Numerator fails"
      } ],
      "modifierExtension": [ {
        "url": "http://hl7.org/fhir/us/cqfmeasures/StructureDefinition/cqfm-isTestCase",
        "valueBoolean": true
      } ],
      "status": "complete",
      "type": "individual",
      "measure": "https://madie.cms.gov/Measure/CMS1017FHIRHHFI",
      "period": {
        "start": "2026-01-01",
        "end": "2026-12-31"
      },
      "group": [ {
        "id": "Group_1",
        "population": [ {
          "id": "InitialPopulation_1",
          "code": {
            "coding": [ {
              "system": "http://terminology.hl7.org/CodeSystem/measure-population",
              "code": "initial-population",
              "display": "Initial Population"
            } ]
          },
          "count": 1
        }, {
          "id": "Denominator_1",
          "code": {
            "coding": [ {
              "system": "http://terminology.hl7.org/CodeSystem/measure-population",
              "code": "denominator",
              "display": "Denominator"
            } ]
          },
          "count": 1
        }, {
          "id": "DenominatorExclusion_1",
          "code": {
            "coding": [ {
              "system": "http://terminology.hl7.org/CodeSystem/measure-population",
              "code": "denominator-exclusion",
              "display": "Denominator Exclusion"
            } ]
          },
          "count": 0
        }, {
          "id": "Numerator_1",
          "code": {
            "coding": [ {
              "system": "http://terminology.hl7.org/CodeSystem/measure-population",
              "code": "numerator",
              "display": "Numerator"
            } ]
          },
          "count": 0
        }, {
          "id": "NumeratorExclusion_1",
          "code": {
            "coding": [ {
              "system": "http://terminology.hl7.org/CodeSystem/measure-population",
              "code": "numerator-exclusion",
              "display": "Numerator Exclusion"
            } ]
          },
          "count": 0
        }, {
          "id": "MeasureObservation_1_1_1",
          "code": {
            "coding": [ {
              "system": "http://terminology.hl7.org/CodeSystem/measure-population",
              "code": "measure-observation",
              "display": "Measure Observation"
            } ]
          },
          "count": 4
        } ],
        "measureScore": {
          "value": 0.0
        }
      } ],
      "evaluatedResource": [ {
        "reference": "Encounter/62e06a79-0c1f-4b6f-88b5-43e81a232516"
      }, {
        "reference": "Encounter/77a3db96-0497-44e4-aa84-0cfc4f3a1952"
      }, {
        "reference": "Condition/a8ea4f36-8663-4c34-8abd-042bd3fea9dd"
      }, {
        "reference": "Patient/3279a237-292f-47b1-9039-ba46b57e765a"
      } ]
    },
    "request": {
      "method": "PUT",
      "url": "MeasureReport/f5d23a7a-6563-4866-9fed-520eb3083644"
    }
  } ]
}