{
  "resourceType": "Bundle",
  "id": "tests-NUMERFail-TwoLabTestsNoGlucoseResults-bundle",
  "type": "transaction",
  "entry": [ {
    "fullUrl": "https://madie.cms.gov/Encounter/b60bc584-0058-42ff-8d7e-2ff677044062",
    "resource": {
      "resourceType": "Encounter",
      "id": "b60bc584-0058-42ff-8d7e-2ff677044062",
      "meta": {
        "profile": [ "http://hl7.org/fhir/us/qicore/StructureDefinition/qicore-encounter" ]
      },
      "status": "finished",
      "class": {
        "system": "http://terminology.hl7.org/CodeSystem/v3-ActCode",
        "code": "IMP",
        "display": "Inpatient encounter"
      },
      "type": [ {
        "coding": [ {
          "system": "http://snomed.info/sct",
          "code": "183452005",
          "display": "Inpatient encounter"
        } ]
      } ],
      "period": {
        "start": "2026-07-11T08:00:00.000+00:00",
        "end": "2026-07-12T21:00:00.000+00:00"
      }
    },
    "request": {
      "method": "PUT",
      "url": "Encounter/b60bc584-0058-42ff-8d7e-2ff677044062"
    }
  }, {
    "fullUrl": "https://madie.cms.gov/MedicationAdministration/0132d029-531e-4d3d-b47c-39c7c344756c",
    "resource": {
      "resourceType": "MedicationAdministration",
      "id": "0132d029-531e-4d3d-b47c-39c7c344756c",
      "meta": {
        "profile": [ "http://hl7.org/fhir/us/qicore/StructureDefinition/qicore-medicationadministration" ]
      },
      "status": "completed",
      "medicationCodeableConcept": {
        "coding": [ {
          "system": "http://www.nlm.nih.gov/research/umls/rxnorm",
          "code": "1654910",
          "display": "Hypoglycemics Severe Hypoglycemia"
        } ]
      },
      "subject": {
        "reference": "Patient/5bfa3b7e-2b6f-4eb5-b09b-7c6f1145780b"
      },
      "effectivePeriod": {
        "start": "2026-07-11T08:00:00.000+00:00",
        "end": "2026-07-11T09:00:00.000+00:00"
      }
    },
    "request": {
      "method": "PUT",
      "url": "MedicationAdministration/0132d029-531e-4d3d-b47c-39c7c344756c"
    }
  }, {
    "fullUrl": "https://madie.cms.gov/Observation/f83f67a0-8741-42d2-ac1e-cb9450f1bb34",
    "resource": {
      "resourceType": "Observation",
      "id": "f83f67a0-8741-42d2-ac1e-cb9450f1bb34",
      "meta": {
        "profile": [ "http://hl7.org/fhir/us/qicore/StructureDefinition/qicore-observation-lab" ]
      },
      "status": "final",
      "code": {
        "coding": [ {
          "system": "http://loinc.org",
          "code": "1556-0",
          "display": "Glucose Lab Test Mass Per Volume"
        } ]
      },
      "subject": {
        "reference": "Patient/5bfa3b7e-2b6f-4eb5-b09b-7c6f1145780b"
      },
      "effectivePeriod": {
        "start": "2026-07-11T08:00:00.000+00:00",
        "end": "2026-07-11T08:00:00.000+00:00"
      },
      "issued": "2026-07-11T08:00:00.000+00:00"
    },
    "request": {
      "method": "PUT",
      "url": "Observation/f83f67a0-8741-42d2-ac1e-cb9450f1bb34"
    }
  }, {
    "fullUrl": "https://madie.cms.gov/Observation/07fa5fc0-ed91-4f08-a25a-69d4fd0c601b",
    "resource": {
      "resourceType": "Observation",
      "id": "07fa5fc0-ed91-4f08-a25a-69d4fd0c601b",
      "meta": {
        "profile": [ "http://hl7.org/fhir/us/qicore/StructureDefinition/qicore-observation-lab" ]
      },
      "status": "entered-in-error",
      "code": {
        "coding": [ {
          "system": "http://loinc.org",
          "code": "1556-0",
          "display": "Glucose Lab Test Mass Per Volume"
        } ]
      },
      "subject": {
        "reference": "Patient/5bfa3b7e-2b6f-4eb5-b09b-7c6f1145780b"
      },
      "effectivePeriod": {
        "start": "2026-07-11T09:01:00.000+00:00",
        "end": "2026-07-11T09:01:00.000+00:00"
      },
      "issued": "2026-07-11T09:01:00.000+00:00"
    },
    "request": {
      "method": "PUT",
      "url": "Observation/07fa5fc0-ed91-4f08-a25a-69d4fd0c601b"
    }
  }, {
    "fullUrl": "https://madie.cms.gov/Patient/5bfa3b7e-2b6f-4eb5-b09b-7c6f1145780b",
    "resource": {
      "resourceType": "Patient",
      "id": "5bfa3b7e-2b6f-4eb5-b09b-7c6f1145780b",
      "meta": {
        "profile": [ "http://hl7.org/fhir/us/qicore/StructureDefinition/qicore-patient" ]
      },
      "extension": [ {
        "url": "http://hl7.org/fhir/us/core/StructureDefinition/us-core-race",
        "extension": [ {
          "url": "ombCategory",
          "valueCoding": {
            "system": "urn:oid:2.16.840.1.113883.6.238",
            "code": "2106-3",
            "display": "White"
          }
        }, {
          "url": "text",
          "valueString": "White"
        } ]
      }, {
        "url": "http://hl7.org/fhir/us/core/StructureDefinition/us-core-ethnicity",
        "extension": [ {
          "url": "ombCategory",
          "valueCoding": {
            "system": "urn:oid:2.16.840.1.113883.6.238",
            "code": "2135-2",
            "display": "Hispanic or Latino"
          }
        }, {
          "url": "text",
          "valueString": "Hispanic or Latino"
        } ]
      }, {
        "url": "http://hl7.org/fhir/us/core/StructureDefinition/us-core-sex",
        "valueCode": "248153007"
      } ],
      "identifier": [ {
        "system": "http://hospital.smarthealthit.org",
        "value": "999999999"
      } ],
      "name": [ {
        "family": "Example",
        "given": [ "Patient" ]
      } ],
      "gender": "female",
      "birthDate": "2000-07-11"
    },
    "request": {
      "method": "PUT",
      "url": "Patient/5bfa3b7e-2b6f-4eb5-b09b-7c6f1145780b"
    }
  }, {
    "fullUrl": "https://madie.cms.gov/MeasureReport/0fb98a8a-a7ac-49a3-a1bd-e042373dc1c6",
    "resource": {
      "resourceType": "MeasureReport",
      "id": "0fb98a8a-a7ac-49a3-a1bd-e042373dc1c6",
      "meta": {
        "profile": [ "http://hl7.org/fhir/us/cqfmeasures/StructureDefinition/test-case-cqfm" ]
      },
      "contained": [ {
        "resourceType": "Parameters",
        "id": "b03c2d16-9c39-4960-8ff2-0e1a5d8a738a-parameters",
        "parameter": [ {
          "name": "subject",
          "valueString": "5bfa3b7e-2b6f-4eb5-b09b-7c6f1145780b"
        } ]
      } ],
      "extension": [ {
        "url": "http://hl7.org/fhir/StructureDefinition/cqf-inputParameters",
        "valueReference": {
          "reference": "#b03c2d16-9c39-4960-8ff2-0e1a5d8a738a-parameters"
        }
      }, {
        "url": "http://hl7.org/fhir/us/cqfmeasures/StructureDefinition/cqfm-testCaseDescription",
        "valueMarkdown": "Encounter, meds administered, two glucose lab tests but no results. Must have results and must be LT 40 to meet numerator. "
      } ],
      "modifierExtension": [ {
        "url": "http://hl7.org/fhir/us/cqfmeasures/StructureDefinition/cqfm-isTestCase",
        "valueBoolean": true
      } ],
      "status": "complete",
      "type": "individual",
      "measure": "https://madie.cms.gov/Measure/CMS816FHIRHHHypo",
      "period": {
        "start": "2026-01-01",
        "end": "2026-12-31"
      },
      "group": [ {
        "id": "Group_1",
        "population": [ {
          "id": "InitialPopulation_1",
          "code": {
            "coding": [ {
              "system": "http://terminology.hl7.org/CodeSystem/measure-population",
              "code": "initial-population",
              "display": "Initial Population"
            } ]
          },
          "count": 1
        }, {
          "id": "Denominator_1",
          "code": {
            "coding": [ {
              "system": "http://terminology.hl7.org/CodeSystem/measure-population",
              "code": "denominator",
              "display": "Denominator"
            } ]
          },
          "count": 1
        }, {
          "id": "Numerator_1",
          "code": {
            "coding": [ {
              "system": "http://terminology.hl7.org/CodeSystem/measure-population",
              "code": "numerator",
              "display": "Numerator"
            } ]
          },
          "count": 0
        } ],
        "measureScore": {
          "value": 0.0
        }
      } ],
      "evaluatedResource": [ {
        "reference": "Encounter/b60bc584-0058-42ff-8d7e-2ff677044062"
      }, {
        "reference": "MedicationAdministration/0132d029-531e-4d3d-b47c-39c7c344756c"
      }, {
        "reference": "Observation/f83f67a0-8741-42d2-ac1e-cb9450f1bb34"
      }, {
        "reference": "Observation/07fa5fc0-ed91-4f08-a25a-69d4fd0c601b"
      }, {
        "reference": "Patient/5bfa3b7e-2b6f-4eb5-b09b-7c6f1145780b"
      } ]
    },
    "request": {
      "method": "PUT",
      "url": "MeasureReport/0fb98a8a-a7ac-49a3-a1bd-e042373dc1c6"
    }
  } ]
}