{
  "resourceType": "Bundle",
  "id": "tests-fe79603f-2876-45eb-a9d0-0be56d3d29a1-bundle",
  "type": "transaction",
  "entry": [ {
    "fullUrl": "https://madie.cms.gov/Observation/ac42c9d3-4439-46c4-8241-35d51bee9241",
    "resource": {
      "resourceType": "Observation",
      "id": "ac42c9d3-4439-46c4-8241-35d51bee9241",
      "meta": {
        "profile": [ "http://hl7.org/fhir/us/qicore/StructureDefinition/qicore-observation-lab" ]
      },
      "status": "final",
      "category": [ {
        "coding": [ {
          "system": "http://terminology.hl7.org/CodeSystem/observation-category",
          "code": "laboratory",
          "display": "Laboratory"
        } ],
        "text": "Laboratory"
      } ],
      "code": {
        "coding": [ {
          "system": "http://loinc.org",
          "code": "2703-7",
          "display": "Oxygen [Partial pressure] in Arterial blood"
        } ],
        "text": "Oxygen [Partial pressure] in Arterial blood"
      },
      "subject": {
        "reference": "Patient/fe79603f-2876-45eb-a9d0-0be56d3d29a1"
      },
      "encounter": {
        "reference": "Encounter/0e542b77-2f12-4bcd-886d-06870b6165b1"
      },
      "effectiveDateTime": "2026-04-11T07:59:00.000+00:00",
      "valueQuantity": {
        "value": 48,
        "unit": "mmHg",
        "system": "http://unitsofmeasure.org",
        "code": "mm[Hg]"
      }
    },
    "request": {
      "method": "PUT",
      "url": "Observation/ac42c9d3-4439-46c4-8241-35d51bee9241"
    }
  }, {
    "fullUrl": "https://madie.cms.gov/Encounter/c9c33fc8-e6a6-4532-bb2b-737be335b6af",
    "resource": {
      "resourceType": "Encounter",
      "id": "c9c33fc8-e6a6-4532-bb2b-737be335b6af",
      "meta": {
        "profile": [ "http://hl7.org/fhir/us/qicore/StructureDefinition/qicore-encounter" ]
      },
      "status": "finished",
      "class": {
        "system": "http://terminology.hl7.org/CodeSystem/v3-ActCode",
        "code": "IMP",
        "display": "inpatient encounter"
      },
      "type": [ {
        "coding": [ {
          "system": "http://snomed.info/sct",
          "code": "112689000",
          "display": "Hospital admission, elective, with complete pre-admission work-up"
        } ],
        "text": "Hospital admission, elective, with complete pre-admission work-up"
      } ],
      "priority": {
        "coding": [ {
          "system": "http://snomed.info/sct",
          "code": "103390000"
        } ]
      },
      "subject": {
        "reference": "Patient/fe79603f-2876-45eb-a9d0-0be56d3d29a1"
      },
      "period": {
        "start": "2026-04-18T08:00:00.000+00:00",
        "end": "2026-04-25T08:15:00.000+00:00"
      },
      "diagnosis": [ {
        "condition": {
          "reference": "Procedure/ae1c9080-4d9f-4b00-8862-e42fb04f0d74"
        },
        "rank": 1
      } ]
    },
    "request": {
      "method": "PUT",
      "url": "Encounter/c9c33fc8-e6a6-4532-bb2b-737be335b6af"
    }
  }, {
    "fullUrl": "https://madie.cms.gov/Patient/fe79603f-2876-45eb-a9d0-0be56d3d29a1",
    "resource": {
      "resourceType": "Patient",
      "id": "fe79603f-2876-45eb-a9d0-0be56d3d29a1",
      "meta": {
        "profile": [ "http://hl7.org/fhir/us/qicore/StructureDefinition/qicore-patient" ]
      },
      "extension": [ {
        "url": "http://hl7.org/fhir/us/core/StructureDefinition/us-core-race",
        "extension": [ {
          "url": "ombCategory",
          "valueCoding": {
            "system": "urn:oid:2.16.840.1.113883.6.238",
            "code": "2054-5",
            "display": "Black or African American",
            "userSelected": true
          }
        }, {
          "url": "text",
          "valueString": "Black or African American"
        } ]
      }, {
        "url": "http://hl7.org/fhir/us/core/StructureDefinition/us-core-ethnicity",
        "extension": [ {
          "url": "ombCategory",
          "valueCoding": {
            "system": "urn:oid:2.16.840.1.113883.6.238",
            "code": "2186-5",
            "display": "Not Hispanic or Latino",
            "userSelected": true
          }
        }, {
          "url": "text",
          "valueString": "Not Hispanic or Latino"
        } ]
      } ],
      "identifier": [ {
        "type": {
          "coding": [ {
            "system": "http://terminology.hl7.org/CodeSystem/v2-0203",
            "code": "MR"
          } ]
        },
        "system": "https://bonnie-fhir.healthit.gov/",
        "value": "61152a3b98086b7a79cbd7c1"
      } ],
      "active": true,
      "name": [ {
        "use": "usual",
        "family": "DENEXFail",
        "given": [ "1EncPaO2Exc2EncNum" ]
      } ],
      "gender": "female",
      "birthDate": "1966-07-12"
    },
    "request": {
      "method": "PUT",
      "url": "Patient/fe79603f-2876-45eb-a9d0-0be56d3d29a1"
    }
  }, {
    "fullUrl": "https://madie.cms.gov/Procedure/4102f76b-8d41-4d07-ba29-a354b97ff72e",
    "resource": {
      "resourceType": "Procedure",
      "id": "4102f76b-8d41-4d07-ba29-a354b97ff72e",
      "meta": {
        "profile": [ "http://hl7.org/fhir/us/qicore/StructureDefinition/qicore-procedure" ]
      },
      "extension": [ {
        "url": "http://hl7.org/fhir/us/qicore/StructureDefinition/qicore-recorded",
        "valueDateTime": "2026-04-20T08:10:00.000+00:00"
      } ],
      "status": "completed",
      "code": {
        "coding": [ {
          "system": "http://www.cms.gov/Medicare/Coding/ICD10",
          "code": "0BH13EZ",
          "display": "Insertion of Endotracheal Airway into Trachea, Percutaneous Approach"
        } ],
        "text": "Insertion of Endotracheal Airway into Trachea, Percutaneous Approach"
      },
      "subject": {
        "reference": "Patient/fe79603f-2876-45eb-a9d0-0be56d3d29a1"
      },
      "performedDateTime": "2026-04-20T08:00:00.000+00:00"
    },
    "request": {
      "method": "PUT",
      "url": "Procedure/4102f76b-8d41-4d07-ba29-a354b97ff72e"
    }
  }, {
    "fullUrl": "https://madie.cms.gov/MeasureReport/7ffdec3d-2065-477f-bd80-3e54566969ec",
    "resource": {
      "resourceType": "MeasureReport",
      "id": "7ffdec3d-2065-477f-bd80-3e54566969ec",
      "meta": {
        "profile": [ "http://hl7.org/fhir/us/cqfmeasures/StructureDefinition/test-case-cqfm" ]
      },
      "contained": [ {
        "resourceType": "Parameters",
        "id": "8ee0746a-12c9-47b5-b3d3-99fbe5203f4f-parameters",
        "parameter": [ {
          "name": "subject",
          "valueString": "fe79603f-2876-45eb-a9d0-0be56d3d29a1"
        } ]
      } ],
      "extension": [ {
        "url": "http://hl7.org/fhir/us/cqfmeasures/StructureDefinition/cqfm-inputParameters",
        "valueReference": {
          "reference": "#8ee0746a-12c9-47b5-b3d3-99fbe5203f4f-parameters"
        }
      }, {
        "url": "http://hl7.org/fhir/us/cqfmeasures/StructureDefinition/cqfm-testCaseDescription",
        "valueMarkdown": "Enc 1: Elective hosp with proc (anesthesia) within first 3 days of encounter. PaO2 <50 and within 48 hours of start of procedure. Meets Exc.\nEnc 2: Intubated outside of OR after first procedure. Meets Num 1. \nExc from enc 1 does not impact enc 2."
      } ],
      "modifierExtension": [ {
        "url": "http://hl7.org/fhir/us/cqfmeasures/StructureDefinition/cqfm-isTestCase",
        "valueBoolean": true
      } ],
      "status": "complete",
      "type": "individual",
      "measure": "https://madie.cms.gov/Measure/CMS1218HHRFFHIR",
      "period": {
        "start": "2026-01-01",
        "end": "2026-12-31"
      },
      "group": [ {
        "id": "67520e47670f1c0879cef598",
        "population": [ {
          "id": "EBD61368-EDA1-4A7F-B134-48A501C47028",
          "code": {
            "coding": [ {
              "system": "http://terminology.hl7.org/CodeSystem/measure-population",
              "code": "initial-population",
              "display": "Initial Population"
            } ]
          },
          "count": 2
        }, {
          "id": "A15EB430-6645-42AC-8FCE-0FF0BF0B4749",
          "code": {
            "coding": [ {
              "system": "http://terminology.hl7.org/CodeSystem/measure-population",
              "code": "denominator",
              "display": "Denominator"
            } ]
          },
          "count": 2
        }, {
          "id": "1389AFF6-741D-47CB-BED0-62D858980EE4",
          "code": {
            "coding": [ {
              "system": "http://terminology.hl7.org/CodeSystem/measure-population",
              "code": "denominator-exclusion",
              "display": "Denominator Exclusion"
            } ]
          },
          "count": 1
        }, {
          "id": "F1D273B8-1513-4C6E-B65F-22FD939174E6",
          "code": {
            "coding": [ {
              "system": "http://terminology.hl7.org/CodeSystem/measure-population",
              "code": "numerator",
              "display": "Numerator"
            } ]
          },
          "count": 1
        } ],
        "measureScore": {
          "value": 0.0
        }
      } ],
      "evaluatedResource": [ {
        "reference": "Encounter/0e542b77-2f12-4bcd-886d-06870b6165b1"
      }, {
        "reference": "Encounter/c9c33fc8-e6a6-4532-bb2b-737be335b6af"
      }, {
        "reference": "Observation/ac42c9d3-4439-46c4-8241-35d51bee9241"
      }, {
        "reference": "Patient/fe79603f-2876-45eb-a9d0-0be56d3d29a1"
      }, {
        "reference": "Procedure/bec303d3-7dc6-4d02-a81e-8cf196df2844"
      }, {
        "reference": "Procedure/ae1c9080-4d9f-4b00-8862-e42fb04f0d74"
      }, {
        "reference": "Procedure/4102f76b-8d41-4d07-ba29-a354b97ff72e"
      } ]
    },
    "request": {
      "method": "PUT",
      "url": "MeasureReport/7ffdec3d-2065-477f-bd80-3e54566969ec"
    }
  }, {
    "fullUrl": "https://madie.cms.gov/Procedure/ae1c9080-4d9f-4b00-8862-e42fb04f0d74",
    "resource": {
      "resourceType": "Procedure",
      "id": "ae1c9080-4d9f-4b00-8862-e42fb04f0d74",
      "meta": {
        "profile": [ "http://hl7.org/fhir/us/qicore/StructureDefinition/qicore-procedure" ]
      },
      "extension": [ {
        "url": "http://hl7.org/fhir/us/qicore/StructureDefinition/qicore-recorded",
        "valueDateTime": "2026-04-19T10:30:00.000+00:00"
      } ],
      "status": "completed",
      "category": {
        "coding": [ {
          "system": "http://snomed.info/sct",
          "code": "18286008",
          "display": "General or neuraxial anesthesia"
        } ]
      },
      "code": {
        "coding": [ {
          "system": "http://snomed.info/sct",
          "code": "112943005",
          "display": "Epidural injection of anesthetic substance, diagnostic, caudal, continuous"
        } ]
      },
      "subject": {
        "reference": "Patient/fe79603f-2876-45eb-a9d0-0be56d3d29a1"
      },
      "performedPeriod": {
        "start": "2026-04-19T08:00:00.000+00:00",
        "end": "2026-04-19T10:15:00.000+00:00"
      }
    },
    "request": {
      "method": "PUT",
      "url": "Procedure/ae1c9080-4d9f-4b00-8862-e42fb04f0d74"
    }
  }, {
    "fullUrl": "https://madie.cms.gov/Encounter/0e542b77-2f12-4bcd-886d-06870b6165b1",
    "resource": {
      "resourceType": "Encounter",
      "id": "0e542b77-2f12-4bcd-886d-06870b6165b1",
      "meta": {
        "profile": [ "http://hl7.org/fhir/us/qicore/StructureDefinition/qicore-encounter" ]
      },
      "status": "finished",
      "class": {
        "system": "http://terminology.hl7.org/CodeSystem/v3-ActCode",
        "code": "IMP",
        "display": "inpatient encounter"
      },
      "type": [ {
        "coding": [ {
          "system": "http://snomed.info/sct",
          "code": "112689000",
          "display": "Hospital admission, elective, with complete pre-admission work-up"
        } ],
        "text": "Hospital admission, elective, with complete pre-admission work-up"
      } ],
      "priority": {
        "coding": [ {
          "system": "http://snomed.info/sct",
          "code": "103390000"
        } ]
      },
      "subject": {
        "reference": "Patient/fe79603f-2876-45eb-a9d0-0be56d3d29a1"
      },
      "period": {
        "start": "2026-04-10T08:00:00.000+00:00",
        "end": "2026-04-14T08:15:00.000+00:00"
      },
      "diagnosis": [ {
        "condition": {
          "reference": "Procedure/bec303d3-7dc6-4d02-a81e-8cf196df2844"
        },
        "rank": 1
      } ]
    },
    "request": {
      "method": "PUT",
      "url": "Encounter/0e542b77-2f12-4bcd-886d-06870b6165b1"
    }
  }, {
    "fullUrl": "https://madie.cms.gov/Procedure/bec303d3-7dc6-4d02-a81e-8cf196df2844",
    "resource": {
      "resourceType": "Procedure",
      "id": "bec303d3-7dc6-4d02-a81e-8cf196df2844",
      "meta": {
        "profile": [ "http://hl7.org/fhir/us/qicore/StructureDefinition/qicore-procedure" ]
      },
      "extension": [ {
        "url": "http://hl7.org/fhir/us/qicore/StructureDefinition/qicore-recorded",
        "valueDateTime": "2026-04-11T10:30:00.000+00:00"
      } ],
      "status": "completed",
      "category": {
        "coding": [ {
          "system": "http://snomed.info/sct",
          "code": "18286008",
          "display": "General or neuraxial anesthesia"
        } ]
      },
      "code": {
        "coding": [ {
          "system": "http://snomed.info/sct",
          "code": "112943005",
          "display": "Epidural injection of anesthetic substance, diagnostic, caudal, continuous"
        } ]
      },
      "subject": {
        "reference": "Patient/fe79603f-2876-45eb-a9d0-0be56d3d29a1"
      },
      "performedPeriod": {
        "start": "2026-04-11T08:00:00.000+00:00",
        "end": "2026-04-11T10:15:00.000+00:00"
      }
    },
    "request": {
      "method": "PUT",
      "url": "Procedure/bec303d3-7dc6-4d02-a81e-8cf196df2844"
    }
  }, {
    "fullUrl": "https://madie.cms.gov/MeasureReport/597c54ff-3a9f-481f-bcc9-814b90dc5208",
    "resource": {
      "resourceType": "MeasureReport",
      "id": "597c54ff-3a9f-481f-bcc9-814b90dc5208",
      "meta": {
        "profile": [ "http://hl7.org/fhir/us/cqfmeasures/StructureDefinition/test-case-cqfm" ]
      },
      "contained": [ {
        "resourceType": "Parameters",
        "id": "e348753c-f623-4fe7-a6d0-e1f5d88aed44-parameters",
        "parameter": [ {
          "name": "subject",
          "valueString": "fe79603f-2876-45eb-a9d0-0be56d3d29a1"
        } ]
      } ],
      "extension": [ {
        "url": "http://hl7.org/fhir/StructureDefinition/cqf-inputParameters",
        "valueReference": {
          "reference": "#e348753c-f623-4fe7-a6d0-e1f5d88aed44-parameters"
        }
      }, {
        "url": "http://hl7.org/fhir/us/cqfmeasures/StructureDefinition/cqfm-testCaseDescription",
        "valueMarkdown": "Enc 1: Elective hosp with proc (anesthesia) within first 3 days of encounter. PaO2 <50 and within 48 hours of start of procedure. Meets Exc.\nEnc 2: Intubated outside of OR after first procedure. Meets Num 1. \nExc from enc 1 does not impact enc 2."
      } ],
      "modifierExtension": [ {
        "url": "http://hl7.org/fhir/us/cqfmeasures/StructureDefinition/cqfm-isTestCase",
        "valueBoolean": true
      } ],
      "status": "complete",
      "type": "individual",
      "measure": "https://madie.cms.gov/Measure/CMS1218FHIRHHRF",
      "period": {
        "start": "2026-01-01",
        "end": "2026-12-31"
      },
      "group": [ {
        "id": "Group_1",
        "population": [ {
          "id": "InitialPopulation_1",
          "code": {
            "coding": [ {
              "system": "http://terminology.hl7.org/CodeSystem/measure-population",
              "code": "initial-population",
              "display": "Initial Population"
            } ]
          },
          "count": 2
        }, {
          "id": "Denominator_1",
          "code": {
            "coding": [ {
              "system": "http://terminology.hl7.org/CodeSystem/measure-population",
              "code": "denominator",
              "display": "Denominator"
            } ]
          },
          "count": 2
        }, {
          "id": "DenominatorExclusion_1",
          "code": {
            "coding": [ {
              "system": "http://terminology.hl7.org/CodeSystem/measure-population",
              "code": "denominator-exclusion",
              "display": "Denominator Exclusion"
            } ]
          },
          "count": 1
        }, {
          "id": "Numerator_1",
          "code": {
            "coding": [ {
              "system": "http://terminology.hl7.org/CodeSystem/measure-population",
              "code": "numerator",
              "display": "Numerator"
            } ]
          },
          "count": 1
        } ],
        "measureScore": {
          "value": 0.0
        }
      } ],
      "evaluatedResource": [ {
        "reference": "Observation/ac42c9d3-4439-46c4-8241-35d51bee9241"
      }, {
        "reference": "Encounter/c9c33fc8-e6a6-4532-bb2b-737be335b6af"
      }, {
        "reference": "Patient/fe79603f-2876-45eb-a9d0-0be56d3d29a1"
      }, {
        "reference": "Procedure/4102f76b-8d41-4d07-ba29-a354b97ff72e"
      }, {
        "reference": "MeasureReport/7ffdec3d-2065-477f-bd80-3e54566969ec"
      }, {
        "reference": "Procedure/ae1c9080-4d9f-4b00-8862-e42fb04f0d74"
      }, {
        "reference": "Encounter/0e542b77-2f12-4bcd-886d-06870b6165b1"
      }, {
        "reference": "Procedure/bec303d3-7dc6-4d02-a81e-8cf196df2844"
      } ]
    },
    "request": {
      "method": "PUT",
      "url": "MeasureReport/597c54ff-3a9f-481f-bcc9-814b90dc5208"
    }
  } ]
}