{
  "resourceType": "Bundle",
  "id": "661579e3db207d74c03b8a51",
  "type": "transaction",
  "entry": [ {
    "fullUrl": "https://madie.cms.gov/Patient/30bd1c93-a76f-46ac-9c74-b4499428cf94",
    "resource": {
      "resourceType": "Patient",
      "id": "30bd1c93-a76f-46ac-9c74-b4499428cf94",
      "meta": {
        "profile": [ "http://hl7.org/fhir/us/qicore/StructureDefinition/qicore-patient" ]
      },
      "extension": [ {
        "url": "http://hl7.org/fhir/us/core/StructureDefinition/us-core-race",
        "extension": [ {
          "url": "ombCategory",
          "valueCoding": {
            "system": "urn:oid:2.16.840.1.113883.6.238",
            "code": "2076-8",
            "display": "Native Hawaiian or Other Pacific Islander",
            "userSelected": true
          }
        }, {
          "url": "text",
          "valueString": "Native Hawaiian or Other Pacific Islander"
        } ]
      }, {
        "url": "http://hl7.org/fhir/us/core/StructureDefinition/us-core-ethnicity",
        "extension": [ {
          "url": "ombCategory",
          "valueCoding": {
            "system": "urn:oid:2.16.840.1.113883.6.238",
            "code": "2186-5",
            "display": "Not Hispanic or Latino",
            "userSelected": true
          }
        }, {
          "url": "text",
          "valueString": "Not Hispanic or Latino"
        } ]
      }, {
        "url": "http://hl7.org/fhir/us/core/StructureDefinition/us-core-sex",
        "valueCode": "248152002"
      } ],
      "identifier": [ {
        "type": {
          "coding": [ {
            "system": "http://terminology.hl7.org/CodeSystem/v2-0203",
            "code": "MR"
          } ]
        },
        "system": "https://bonnie-fhir.healthit.gov/",
        "value": "661579e3db207d74c03b8a51"
      } ],
      "name": [ {
        "family": "NUMERStrat4Pass",
        "given": [ "TriageOverlapBeforeEM" ]
      } ],
      "gender": "female",
      "birthDate": "2008-12-31"
    },
    "request": {
      "method": "PUT",
      "url": "Patient/30bd1c93-a76f-46ac-9c74-b4499428cf94"
    }
  }, {
    "fullUrl": "https://madie.cms.gov/Encounter/06838407-a905-47f4-9601-26ed0e00936d",
    "resource": {
      "resourceType": "Encounter",
      "id": "06838407-a905-47f4-9601-26ed0e00936d",
      "meta": {
        "profile": [ "http://hl7.org/fhir/us/qicore/StructureDefinition/qicore-encounter" ]
      },
      "status": "triaged",
      "class": {
        "system": "http://terminology.hl7.org/CodeSystem/v3-ActCode",
        "code": "EMER",
        "display": "emergency"
      },
      "type": [ {
        "coding": [ {
          "system": "http://snomed.info/sct",
          "version": "2023-09",
          "code": "225390008",
          "display": "Triage (procedure)",
          "userSelected": true
        } ]
      } ],
      "subject": {
        "reference": "Patient/30bd1c93-a76f-46ac-9c74-b4499428cf94"
      },
      "period": {
        "start": "2027-05-01T07:00:00.000+00:00",
        "end": "2027-05-01T08:15:00.000+00:00"
      }
    },
    "request": {
      "method": "PUT",
      "url": "Encounter/06838407-a905-47f4-9601-26ed0e00936d"
    }
  }, {
    "fullUrl": "https://madie.cms.gov/Encounter/36783636-bad6-4710-a429-350e0d364fd8",
    "resource": {
      "resourceType": "Encounter",
      "id": "36783636-bad6-4710-a429-350e0d364fd8",
      "meta": {
        "profile": [ "http://hl7.org/fhir/us/qicore/StructureDefinition/qicore-encounter" ]
      },
      "status": "finished",
      "class": {
        "system": "http://terminology.hl7.org/CodeSystem/v3-ActCode",
        "code": "EMER",
        "display": "emergency"
      },
      "type": [ {
        "coding": [ {
          "system": "http://snomed.info/sct",
          "version": "2023-09",
          "code": "4525004",
          "display": "Emergency department patient visit (procedure)",
          "userSelected": true
        } ]
      } ],
      "subject": {
        "reference": "Patient/30bd1c93-a76f-46ac-9c74-b4499428cf94"
      },
      "period": {
        "start": "2027-05-01T08:00:00.000+00:00",
        "end": "2027-05-01T12:15:00.000+00:00"
      },
      "diagnosis": [ {
        "condition": {
          "reference": "Condition/ad77578d-6676-4c16-bf74-f6cf4f05d215"
        },
        "use": {
          "coding": [ {
            "system": "http://terminology.hl7.org/CodeSystem/diagnosis-role",
            "code": "billing"
          } ]
        },
        "rank": 1
      } ],
      "location": [ {
        "location": {
          "reference": "Location/c3f7ef46-25d2-414b-b3de-4d0b8b477882"
        },
        "period": {
          "start": "2027-05-01T07:45:00.000+00:00",
          "end": "2027-05-01T14:31:00.000+00:00"
        }
      }, {
        "location": {
          "reference": "Location/1f4815a7-b1a7-4dd0-8b92-3b0d0fd2bc84"
        },
        "period": {
          "start": "2027-05-01T09:31:00.000+00:00",
          "end": "2027-05-01T12:15:00.000+00:00"
        }
      }, {
        "location": {
          "reference": "Location/5c6bae38-1c10-4357-85c3-9e2f5bc5d273"
        },
        "period": {
          "start": "2027-05-01T08:40:00.000+00:00",
          "end": "2027-05-01T12:15:00.000+00:00"
        }
      }, {
        "location": {
          "reference": "Location/0d22366a-2024-4dbc-b585-80034eed1385"
        },
        "period": {
          "start": "2027-05-01T08:30:00.000+00:00",
          "end": "2027-05-01T16:46:00.000+00:00"
        }
      } ]
    },
    "request": {
      "method": "PUT",
      "url": "Encounter/36783636-bad6-4710-a429-350e0d364fd8"
    }
  }, {
    "fullUrl": "https://madie.cms.gov/Location/c3f7ef46-25d2-414b-b3de-4d0b8b477882",
    "resource": {
      "resourceType": "Location",
      "id": "c3f7ef46-25d2-414b-b3de-4d0b8b477882",
      "meta": {
        "profile": [ "http://hl7.org/fhir/us/qicore/StructureDefinition/qicore-location" ]
      },
      "identifier": [ {
        "use": "usual",
        "system": "http://exampleoflocation.com",
        "value": "B1-S.F1"
      } ],
      "name": "Medical Surgical East, first floor",
      "type": [ {
        "coding": [ {
          "system": "https://www.cdc.gov/nhsn/cdaportal/terminology/codesystem/hsloc.html",
          "version": "2022",
          "code": "1108-0",
          "display": "Emergency Department",
          "userSelected": true
        } ]
      } ]
    },
    "request": {
      "method": "PUT",
      "url": "Location/c3f7ef46-25d2-414b-b3de-4d0b8b477882"
    }
  }, {
    "fullUrl": "https://madie.cms.gov/Location/1f4815a7-b1a7-4dd0-8b92-3b0d0fd2bc84",
    "resource": {
      "resourceType": "Location",
      "id": "1f4815a7-b1a7-4dd0-8b92-3b0d0fd2bc84",
      "meta": {
        "profile": [ "http://hl7.org/fhir/us/qicore/StructureDefinition/qicore-location" ]
      },
      "identifier": [ {
        "use": "usual",
        "system": "http://exampleoflocation.com",
        "value": "B1-S.F2"
      } ],
      "name": "Medical Surgical East, first floor",
      "type": [ {
        "coding": [ {
          "system": "https://www.cdc.gov/nhsn/cdaportal/terminology/codesystem/hsloc.html",
          "version": "2022",
          "code": "1209-6",
          "display": "Treatment Room",
          "userSelected": true
        } ]
      } ]
    },
    "request": {
      "method": "PUT",
      "url": "Location/1f4815a7-b1a7-4dd0-8b92-3b0d0fd2bc84"
    }
  }, {
    "fullUrl": "https://madie.cms.gov/Condition/ad77578d-6676-4c16-bf74-f6cf4f05d215",
    "resource": {
      "resourceType": "Condition",
      "id": "ad77578d-6676-4c16-bf74-f6cf4f05d215",
      "meta": {
        "profile": [ "http://hl7.org/fhir/us/qicore/StructureDefinition/qicore-condition-encounter-diagnosis" ]
      },
      "category": [ {
        "coding": [ {
          "system": "http://terminology.hl7.org/CodeSystem/condition-category",
          "code": "encounter-diagnosis",
          "display": "Encounter Diagnosis"
        } ]
      } ],
      "code": {
        "coding": [ {
          "system": "http://snomed.info/sct",
          "version": "2023-09",
          "code": "10349009",
          "display": "Multi-infarct dementia with delirium (disorder)",
          "userSelected": true
        } ]
      },
      "subject": {
        "reference": "Patient/30bd1c93-a76f-46ac-9c74-b4499428cf94"
      },
      "recordedDate": "2027-04-09T08:00:00.000+00:00"
    },
    "request": {
      "method": "PUT",
      "url": "Condition/ad77578d-6676-4c16-bf74-f6cf4f05d215"
    }
  }, {
    "fullUrl": "https://madie.cms.gov/Location/0d22366a-2024-4dbc-b585-80034eed1385",
    "resource": {
      "resourceType": "Location",
      "id": "0d22366a-2024-4dbc-b585-80034eed1385",
      "meta": {
        "profile": [ "http://hl7.org/fhir/us/qicore/StructureDefinition/qicore-location" ]
      },
      "identifier": [ {
        "use": "usual",
        "system": "http://exampleoflocation.com",
        "value": "B1-S.F2"
      } ],
      "name": "Medical Surgical East, first floor",
      "type": [ {
        "coding": [ {
          "system": "https://www.cdc.gov/nhsn/cdaportal/terminology/codesystem/hsloc.html",
          "version": "2022",
          "code": "1108-0",
          "display": "Emergency Department",
          "userSelected": true
        } ]
      } ]
    },
    "request": {
      "method": "PUT",
      "url": "Location/0d22366a-2024-4dbc-b585-80034eed1385"
    }
  }, {
    "fullUrl": "https://madie.cms.gov/Location/5c6bae38-1c10-4357-85c3-9e2f5bc5d273",
    "resource": {
      "resourceType": "Location",
      "id": "5c6bae38-1c10-4357-85c3-9e2f5bc5d273",
      "meta": {
        "profile": [ "http://hl7.org/fhir/us/qicore/StructureDefinition/qicore-location" ]
      },
      "identifier": [ {
        "use": "usual",
        "system": "http://exampleoflocation.com",
        "value": "B1-S.F2"
      } ],
      "name": "Medical Surgical East, first floor",
      "type": [ {
        "coding": [ {
          "system": "https://www.cdc.gov/nhsn/cdaportal/terminology/codesystem/hsloc.html",
          "version": "2022",
          "code": "1209-6",
          "display": "Treatment Room"
        } ]
      } ]
    },
    "request": {
      "method": "PUT",
      "url": "Location/5c6bae38-1c10-4357-85c3-9e2f5bc5d273"
    }
  }, {
    "fullUrl": "https://madie.cms.gov/claim/ClaimBehavior-NotSubsAbuse",
    "resource": {
      "resourceType": "Claim",
      "id": "ClaimBehavior-NotSubsAbuse",
      "meta": {
        "profile": [ "http://hl7.org/fhir/us/qicore/StructureDefinition/qicore-claim" ]
      },
      "status": "active",
      "type": {
        "coding": [ {
          "system": "http://terminology.hl7.org/CodeSystem/claim-type",
          "code": "institutional"
        } ]
      },
      "use": "claim",
      "patient": {
        "reference": "Patient/30bd1c93-a76f-46ac-9c74-b4499428cf94"
      },
      "created": "2027-05-01",
      "provider": {
        "reference": "Practitioner/7e3b10d7-a3b0-493b-b236-67fb7609a7f5"
      },
      "priority": {
        "coding": [ {
          "system": "http://terminology.hl7.org/CodeSystem/processpriority",
          "code": "normal"
        } ]
      },
      "diagnosis": [ {
        "sequence": 1,
        "diagnosisReference": {
          "reference": "Condition/ad77578d-6676-4c16-bf74-f6cf4f05d215"
        },
        "type": [ {
          "coding": [ {
            "system": "http://terminology.hl7.org/CodeSystem/ex-diagnosistype",
            "code": "principal"
          } ]
        } ]
      } ],
      "insurance": [ {
        "sequence": 1,
        "focal": true,
        "coverage": {
          "reference": "Coverage/13f58d98-f9b2-4521-a04c-805ce18b771b"
        }
      } ],
      "item": [ {
        "sequence": 1,
        "diagnosisSequence": [ 1 ],
        "productOrService": {
          "coding": [ {
            "system": "http://terminology.hl7.org/CodeSystem/ex-USCLS",
            "code": "99555"
          } ]
        },
        "encounter": [ {
          "reference": "Encounter/36783636-bad6-4710-a429-350e0d364fd8"
        } ]
      } ]
    },
    "request": {
      "method": "PUT",
      "url": "Claim/ClaimBehavior-NotSubsAbuse"
    }
  }, {
    "fullUrl": "https://madie.cms.gov/Coverage/13f58d98-f9b2-4521-a04c-805ce18b771b",
    "resource": {
      "resourceType": "Coverage",
      "id": "13f58d98-f9b2-4521-a04c-805ce18b771b",
      "meta": {
        "profile": [ "http://hl7.org/fhir/us/qicore/StructureDefinition/qicore-coverage" ]
      },
      "identifier": [ {
        "type": {
          "coding": [ {
            "system": "http://terminology.hl7.org/CodeSystem/v2-0203",
            "code": "MB"
          } ]
        }
      } ],
      "status": "active",
      "beneficiary": {
        "reference": "Patient/30bd1c93-a76f-46ac-9c74-b4499428cf94"
      },
      "relationship": {
        "coding": [ {
          "system": "http://terminology.hl7.org/CodeSystem/subscriber-relationship",
          "code": "self"
        } ]
      },
      "payor": [ {
        "reference": "Organization/18d51fc9-457a-49bd-8b3a-08d780f5704c"
      } ]
    },
    "request": {
      "method": "PUT",
      "url": "Coverage/13f58d98-f9b2-4521-a04c-805ce18b771b"
    }
  }, {
    "fullUrl": "https://madie.cms.gov/Organization/18d51fc9-457a-49bd-8b3a-08d780f5704c",
    "resource": {
      "resourceType": "Organization",
      "id": "18d51fc9-457a-49bd-8b3a-08d780f5704c",
      "meta": {
        "profile": [ "http://hl7.org/fhir/us/qicore/StructureDefinition/qicore-organization" ]
      },
      "identifier": [ {
        "use": "temp",
        "system": "urn:oid:2.16.840.1.113883.4.4",
        "value": "21-3259825"
      } ],
      "active": true,
      "type": [ {
        "coding": [ {
          "system": "http://terminology.hl7.org/CodeSystem/organization-type",
          "code": "pay",
          "display": "Payer"
        } ]
      } ],
      "name": "Blue Cross Blue Shield of Texas",
      "telecom": [ {
        "system": "phone",
        "value": "(+1) 972-766-6900"
      } ],
      "address": [ {
        "use": "billing",
        "type": "postal",
        "line": [ "P.O. Box 660044" ],
        "city": "Dallas",
        "state": "TX",
        "postalCode": "75266-0044",
        "country": "USA"
      } ]
    },
    "request": {
      "method": "PUT",
      "url": "Organization/18d51fc9-457a-49bd-8b3a-08d780f5704c"
    }
  }, {
    "fullUrl": "https://madie.cms.gov/Practitioner/7e3b10d7-a3b0-493b-b236-67fb7609a7f5",
    "resource": {
      "resourceType": "Practitioner",
      "id": "7e3b10d7-a3b0-493b-b236-67fb7609a7f5",
      "meta": {
        "profile": [ "http://hl7.org/fhir/us/qicore/StructureDefinition/qicore-practitioner" ]
      },
      "identifier": [ {
        "system": "http://hl7.org/fhir/sid/us-npi",
        "value": "9999999896"
      } ],
      "name": [ {
        "family": "Evil",
        "prefix": [ "Dr" ]
      } ]
    },
    "request": {
      "method": "PUT",
      "url": "Practitioner/7e3b10d7-a3b0-493b-b236-67fb7609a7f5"
    }
  }, {
    "fullUrl": "https://madie.cms.gov/MeasureReport/0ec95046-aedf-44fb-b9ba-28d47d43806a",
    "resource": {
      "resourceType": "MeasureReport",
      "id": "0ec95046-aedf-44fb-b9ba-28d47d43806a",
      "meta": {
        "profile": [ "http://hl7.org/fhir/us/cqfmeasures/StructureDefinition/test-case-cqfm" ]
      },
      "contained": [ {
        "resourceType": "Parameters",
        "id": "295e49ed-725f-4ca3-ab58-e89812c516fa-parameters",
        "parameter": [ {
          "name": "subject",
          "valueString": "30bd1c93-a76f-46ac-9c74-b4499428cf94"
        } ]
      } ],
      "extension": [ {
        "url": "http://hl7.org/fhir/StructureDefinition/cqf-inputParameters",
        "valueReference": {
          "reference": "#295e49ed-725f-4ca3-ab58-e89812c516fa-parameters"
        }
      }, {
        "url": "http://hl7.org/fhir/us/cqfmeasures/StructureDefinition/cqfm-testCaseDescription",
        "valueMarkdown": "Adult, mental diagnosis, LOS 8+ hours. Triage overlap EM start"
      } ],
      "modifierExtension": [ {
        "url": "http://hl7.org/fhir/us/cqfmeasures/StructureDefinition/cqfm-isTestCase",
        "valueBoolean": true
      } ],
      "status": "complete",
      "type": "individual",
      "measure": "https://madie.cms.gov/Measure/CMS1244FHIRECATHOQR",
      "period": {
        "start": "2027-01-01",
        "end": "2027-12-31"
      },
      "group": [ {
        "id": "Group_1",
        "population": [ {
          "id": "InitialPopulation_1",
          "code": {
            "coding": [ {
              "system": "http://terminology.hl7.org/CodeSystem/measure-population",
              "code": "initial-population",
              "display": "Initial Population"
            } ]
          },
          "count": 1
        }, {
          "id": "Denominator_1",
          "code": {
            "coding": [ {
              "system": "http://terminology.hl7.org/CodeSystem/measure-population",
              "code": "denominator",
              "display": "Denominator"
            } ]
          },
          "count": 1
        }, {
          "id": "Numerator_1",
          "code": {
            "coding": [ {
              "system": "http://terminology.hl7.org/CodeSystem/measure-population",
              "code": "numerator",
              "display": "Numerator"
            } ]
          },
          "count": 1
        } ],
        "measureScore": {
          "value": 0.0
        },
        "stratifier": [ {
          "id": "Stratification_1_1",
          "code": [ {
            "text": "Strata-1"
          } ],
          "stratum": [ {
            "value": {
              "text": "Strata-1"
            },
            "population": [ {
              "id": "InitialPopulation_1",
              "code": {
                "coding": [ {
                  "system": "http://terminology.hl7.org/CodeSystem/measure-population",
                  "code": "initial-population",
                  "display": "Initial Population"
                } ]
              },
              "count": 0
            }, {
              "id": "Denominator_1",
              "code": {
                "coding": [ {
                  "system": "http://terminology.hl7.org/CodeSystem/measure-population",
                  "code": "denominator",
                  "display": "Denominator"
                } ]
              },
              "count": 0
            }, {
              "id": "Numerator_1",
              "code": {
                "coding": [ {
                  "system": "http://terminology.hl7.org/CodeSystem/measure-population",
                  "code": "numerator",
                  "display": "Numerator"
                } ]
              },
              "count": 0
            } ]
          } ]
        }, {
          "id": "Stratification_1_2",
          "code": [ {
            "text": "Strata-2"
          } ],
          "stratum": [ {
            "value": {
              "text": "Strata-2"
            },
            "population": [ {
              "id": "InitialPopulation_1",
              "code": {
                "coding": [ {
                  "system": "http://terminology.hl7.org/CodeSystem/measure-population",
                  "code": "initial-population",
                  "display": "Initial Population"
                } ]
              },
              "count": 0
            }, {
              "id": "Denominator_1",
              "code": {
                "coding": [ {
                  "system": "http://terminology.hl7.org/CodeSystem/measure-population",
                  "code": "denominator",
                  "display": "Denominator"
                } ]
              },
              "count": 0
            }, {
              "id": "Numerator_1",
              "code": {
                "coding": [ {
                  "system": "http://terminology.hl7.org/CodeSystem/measure-population",
                  "code": "numerator",
                  "display": "Numerator"
                } ]
              },
              "count": 0
            } ]
          } ]
        }, {
          "id": "Stratification_1_3",
          "code": [ {
            "text": "Strata-3"
          } ],
          "stratum": [ {
            "value": {
              "text": "Strata-3"
            },
            "population": [ {
              "id": "InitialPopulation_1",
              "code": {
                "coding": [ {
                  "system": "http://terminology.hl7.org/CodeSystem/measure-population",
                  "code": "initial-population",
                  "display": "Initial Population"
                } ]
              },
              "count": 0
            }, {
              "id": "Denominator_1",
              "code": {
                "coding": [ {
                  "system": "http://terminology.hl7.org/CodeSystem/measure-population",
                  "code": "denominator",
                  "display": "Denominator"
                } ]
              },
              "count": 0
            }, {
              "id": "Numerator_1",
              "code": {
                "coding": [ {
                  "system": "http://terminology.hl7.org/CodeSystem/measure-population",
                  "code": "numerator",
                  "display": "Numerator"
                } ]
              },
              "count": 0
            } ]
          } ]
        }, {
          "id": "Stratification_1_4",
          "code": [ {
            "text": "Strata-4"
          } ],
          "stratum": [ {
            "value": {
              "text": "Strata-4"
            },
            "population": [ {
              "id": "InitialPopulation_1",
              "code": {
                "coding": [ {
                  "system": "http://terminology.hl7.org/CodeSystem/measure-population",
                  "code": "initial-population",
                  "display": "Initial Population"
                } ]
              },
              "count": 1
            }, {
              "id": "Denominator_1",
              "code": {
                "coding": [ {
                  "system": "http://terminology.hl7.org/CodeSystem/measure-population",
                  "code": "denominator",
                  "display": "Denominator"
                } ]
              },
              "count": 1
            }, {
              "id": "Numerator_1",
              "code": {
                "coding": [ {
                  "system": "http://terminology.hl7.org/CodeSystem/measure-population",
                  "code": "numerator",
                  "display": "Numerator"
                } ]
              },
              "count": 1
            } ]
          } ]
        } ]
      } ],
      "evaluatedResource": [ {
        "reference": "Patient/30bd1c93-a76f-46ac-9c74-b4499428cf94"
      }, {
        "reference": "Encounter/06838407-a905-47f4-9601-26ed0e00936d"
      }, {
        "reference": "Encounter/36783636-bad6-4710-a429-350e0d364fd8"
      }, {
        "reference": "Location/c3f7ef46-25d2-414b-b3de-4d0b8b477882"
      }, {
        "reference": "Location/1f4815a7-b1a7-4dd0-8b92-3b0d0fd2bc84"
      }, {
        "reference": "Condition/ad77578d-6676-4c16-bf74-f6cf4f05d215"
      }, {
        "reference": "Location/0d22366a-2024-4dbc-b585-80034eed1385"
      }, {
        "reference": "Location/5c6bae38-1c10-4357-85c3-9e2f5bc5d273"
      }, {
        "reference": "Claim/ClaimBehavior-NotSubsAbuse"
      }, {
        "reference": "Coverage/13f58d98-f9b2-4521-a04c-805ce18b771b"
      }, {
        "reference": "Organization/18d51fc9-457a-49bd-8b3a-08d780f5704c"
      }, {
        "reference": "Practitioner/7e3b10d7-a3b0-493b-b236-67fb7609a7f5"
      } ]
    },
    "request": {
      "method": "PUT",
      "url": "MeasureReport/0ec95046-aedf-44fb-b9ba-28d47d43806a"
    }
  } ]
}