{
  "resourceType": "Bundle",
  "id": "tests-DENOMPass-EncWithDiabetesDiagnosis-bundle",
  "type": "transaction",
  "entry": [ {
    "fullUrl": "https://madie.cms.gov/Condition/855c4f69-83de-4aa3-84b5-76bd3713c57e",
    "resource": {
      "resourceType": "Condition",
      "id": "855c4f69-83de-4aa3-84b5-76bd3713c57e",
      "meta": {
        "profile": [ "http://hl7.org/fhir/us/qicore/StructureDefinition/qicore-condition-encounter-diagnosis" ]
      },
      "clinicalStatus": {
        "coding": [ {
          "system": "http://terminology.hl7.org/CodeSystem/condition-clinical",
          "code": "active"
        } ]
      },
      "category": [ {
        "coding": [ {
          "system": "http://terminology.hl7.org/CodeSystem/condition-category",
          "code": "encounter-diagnosis",
          "display": "Encounter Diagnosis"
        } ]
      } ],
      "code": {
        "coding": [ {
          "system": "http://hl7.org/fhir/sid/icd-10-cm",
          "version": "2024",
          "code": "E10.21",
          "display": "Type 1 diabetes mellitus with diabetic nephropathy"
        } ]
      },
      "subject": {
        "reference": "Patient/f4e6ce4f-8209-4f79-a9ab-2678d3e0ded8"
      },
      "onsetDateTime": "2011-01-02"
    },
    "request": {
      "method": "PUT",
      "url": "Condition/855c4f69-83de-4aa3-84b5-76bd3713c57e"
    }
  }, {
    "fullUrl": "https://madie.cms.gov/Encounter/26416a41-a2ca-4c54-85e2-a2ce0b7dd17f",
    "resource": {
      "resourceType": "Encounter",
      "id": "26416a41-a2ca-4c54-85e2-a2ce0b7dd17f",
      "meta": {
        "profile": [ "http://hl7.org/fhir/us/qicore/StructureDefinition/qicore-encounter" ]
      },
      "status": "finished",
      "class": {
        "system": "http://terminology.hl7.org/CodeSystem/v3-ActCode",
        "code": "IMP",
        "display": "inpatient encounter"
      },
      "type": [ {
        "coding": [ {
          "system": "http://snomed.info/sct",
          "code": "183452005"
        } ]
      } ],
      "subject": {
        "reference": "Patient/f4e6ce4f-8209-4f79-a9ab-2678d3e0ded8"
      },
      "period": {
        "start": "2026-04-07T08:00:00.000+00:00",
        "end": "2026-04-12T08:15:00.000+00:00"
      },
      "reasonReference": [ {
        "reference": "Condition/855c4f69-83de-4aa3-84b5-76bd3713c57e"
      } ]
    },
    "request": {
      "method": "PUT",
      "url": "Encounter/26416a41-a2ca-4c54-85e2-a2ce0b7dd17f"
    }
  }, {
    "fullUrl": "https://madie.cms.gov/Patient/f4e6ce4f-8209-4f79-a9ab-2678d3e0ded8",
    "resource": {
      "resourceType": "Patient",
      "id": "f4e6ce4f-8209-4f79-a9ab-2678d3e0ded8",
      "meta": {
        "profile": [ "http://hl7.org/fhir/us/qicore/StructureDefinition/qicore-patient" ]
      },
      "extension": [ {
        "url": "http://hl7.org/fhir/us/core/StructureDefinition/us-core-race",
        "extension": [ {
          "url": "ombCategory",
          "valueCoding": {
            "system": "urn:oid:2.16.840.1.113883.6.238",
            "code": "2106-3",
            "display": "White"
          }
        }, {
          "url": "text",
          "valueString": "White"
        } ]
      }, {
        "url": "http://hl7.org/fhir/us/core/StructureDefinition/us-core-ethnicity",
        "extension": [ {
          "url": "ombCategory",
          "valueCoding": {
            "system": "urn:oid:2.16.840.1.113883.6.238",
            "code": "2135-2",
            "display": "Hispanic or Latino"
          }
        }, {
          "url": "text",
          "valueString": "Hispanic or Latino"
        } ]
      } ],
      "identifier": [ {
        "system": "http://hospital.smarthealthit.org",
        "value": "999999999"
      } ],
      "name": [ {
        "family": "Example",
        "given": [ "Patient" ]
      } ],
      "gender": "other",
      "birthDate": "1956-01-01"
    },
    "request": {
      "method": "PUT",
      "url": "Patient/f4e6ce4f-8209-4f79-a9ab-2678d3e0ded8"
    }
  }, {
    "fullUrl": "https://madie.cms.gov/MeasureReport/9c64659f-b043-4a04-a74d-08159ec625eb",
    "resource": {
      "resourceType": "MeasureReport",
      "id": "9c64659f-b043-4a04-a74d-08159ec625eb",
      "meta": {
        "profile": [ "http://hl7.org/fhir/us/cqfmeasures/StructureDefinition/test-case-cqfm" ]
      },
      "contained": [ {
        "resourceType": "Parameters",
        "id": "b55d41db-a456-4e7a-8b5c-8f2d4c0a3782-parameters",
        "parameter": [ {
          "name": "subject",
          "valueString": "f4e6ce4f-8209-4f79-a9ab-2678d3e0ded8"
        } ]
      } ],
      "extension": [ {
        "url": "http://hl7.org/fhir/StructureDefinition/cqf-inputParameters",
        "valueReference": {
          "reference": "#b55d41db-a456-4e7a-8b5c-8f2d4c0a3782-parameters"
        }
      }, {
        "url": "http://hl7.org/fhir/us/cqfmeasures/StructureDefinition/cqfm-testCaseDescription",
        "valueMarkdown": "Encounter that has a Diabetes Condition Diagnosis, satisfying Denominator"
      } ],
      "modifierExtension": [ {
        "url": "http://hl7.org/fhir/us/cqfmeasures/StructureDefinition/cqfm-isTestCase",
        "valueBoolean": true
      } ],
      "status": "complete",
      "type": "individual",
      "measure": "https://madie.cms.gov/Measure/CMS871FHIRHHHyper",
      "period": {
        "start": "2026-01-01",
        "end": "2026-12-31"
      },
      "group": [ {
        "id": "Group_1",
        "population": [ {
          "id": "InitialPopulation_1",
          "code": {
            "coding": [ {
              "system": "http://terminology.hl7.org/CodeSystem/measure-population",
              "code": "initial-population",
              "display": "Initial Population"
            } ]
          },
          "count": 1
        }, {
          "id": "Denominator_1",
          "code": {
            "coding": [ {
              "system": "http://terminology.hl7.org/CodeSystem/measure-population",
              "code": "denominator",
              "display": "Denominator"
            } ]
          },
          "count": 1
        }, {
          "id": "DenominatorExclusion_1",
          "code": {
            "coding": [ {
              "system": "http://terminology.hl7.org/CodeSystem/measure-population",
              "code": "denominator-exclusion",
              "display": "Denominator Exclusion"
            } ]
          },
          "count": 0
        }, {
          "id": "Numerator_1",
          "code": {
            "coding": [ {
              "system": "http://terminology.hl7.org/CodeSystem/measure-population",
              "code": "numerator",
              "display": "Numerator"
            } ]
          },
          "count": 0
        }, {
          "id": "NumeratorExclusion_1",
          "code": {
            "coding": [ {
              "system": "http://terminology.hl7.org/CodeSystem/measure-population",
              "code": "numerator-exclusion",
              "display": "Numerator Exclusion"
            } ]
          },
          "count": 0
        }, {
          "id": "MeasureObservation_1_1_1",
          "code": {
            "coding": [ {
              "system": "http://terminology.hl7.org/CodeSystem/measure-population",
              "code": "measure-observation",
              "display": "Measure Observation"
            } ]
          },
          "count": 4
        } ],
        "measureScore": {
          "value": 0.0
        }
      } ],
      "evaluatedResource": [ {
        "reference": "Condition/855c4f69-83de-4aa3-84b5-76bd3713c57e"
      }, {
        "reference": "Encounter/26416a41-a2ca-4c54-85e2-a2ce0b7dd17f"
      }, {
        "reference": "Patient/f4e6ce4f-8209-4f79-a9ab-2678d3e0ded8"
      } ]
    },
    "request": {
      "method": "PUT",
      "url": "MeasureReport/9c64659f-b043-4a04-a74d-08159ec625eb"
    }
  } ]
}