{
  "resourceType": "Bundle",
  "id": "DENEXFail-PalliativeCareSurveyStatusNotFinal",
  "type": "transaction",
  "entry": [ {
    "fullUrl": "https://madie.cms.gov/Patient/43efb820-9e6e-4180-9a4d-2d7459896e5f",
    "resource": {
      "resourceType": "Patient",
      "id": "43efb820-9e6e-4180-9a4d-2d7459896e5f",
      "meta": {
        "profile": [ "http://hl7.org/fhir/us/qicore/StructureDefinition/qicore-patient" ]
      },
      "extension": [ {
        "url": "http://hl7.org/fhir/us/core/StructureDefinition/us-core-race",
        "extension": [ {
          "url": "ombCategory",
          "valueCoding": {
            "system": "urn:oid:2.16.840.1.113883.6.238",
            "code": "2028-9",
            "display": "Asian"
          }
        }, {
          "url": "text",
          "valueString": "Asian"
        } ]
      }, {
        "url": "http://hl7.org/fhir/us/core/StructureDefinition/us-core-ethnicity",
        "extension": [ {
          "url": "ombCategory",
          "valueCoding": {
            "system": "urn:oid:2.16.840.1.113883.6.238",
            "code": "2135-2",
            "display": "Hispanic or Latino"
          }
        }, {
          "url": "text",
          "valueString": "Hispanic or Latino"
        } ]
      } ],
      "identifier": [ {
        "system": "http://hospital.smarthealthit.org",
        "value": "999999995"
      } ],
      "name": [ {
        "family": "DENEXFail",
        "given": [ "PalliativeCareSurveyStatusNotFinal" ]
      } ],
      "gender": "female",
      "birthDate": "2007-12-31"
    },
    "request": {
      "method": "PUT",
      "url": "Patient/43efb820-9e6e-4180-9a4d-2d7459896e5f"
    }
  }, {
    "fullUrl": "https://madie.cms.gov/Encounter/0e7ad596-925d-4191-a835-b96938204d1a",
    "resource": {
      "resourceType": "Encounter",
      "id": "0e7ad596-925d-4191-a835-b96938204d1a",
      "meta": {
        "profile": [ "http://hl7.org/fhir/us/qicore/StructureDefinition/qicore-encounter" ]
      },
      "status": "finished",
      "class": {
        "system": "http://terminology.hl7.org/CodeSystem/v3-ActCode",
        "code": "AMB",
        "display": "ambulatory"
      },
      "type": [ {
        "coding": [ {
          "system": "http://snomed.info/sct",
          "code": "3391000175108",
          "display": "Office visit for pediatric care and assessment (procedure)"
        } ]
      } ],
      "subject": {
        "reference": "Patient/43efb820-9e6e-4180-9a4d-2d7459896e5f"
      },
      "period": {
        "start": "2026-01-01T00:00:00.000+00:00",
        "end": "2026-01-01T01:00:00.000+00:00"
      }
    },
    "request": {
      "method": "PUT",
      "url": "Encounter/0e7ad596-925d-4191-a835-b96938204d1a"
    }
  }, {
    "fullUrl": "https://madie.cms.gov/Condition/f19b57ea-a672-474d-b016-ada4b3be69b9",
    "resource": {
      "resourceType": "Condition",
      "id": "f19b57ea-a672-474d-b016-ada4b3be69b9",
      "meta": {
        "profile": [ "http://hl7.org/fhir/us/qicore/StructureDefinition/qicore-condition-problems-health-concerns" ]
      },
      "clinicalStatus": {
        "coding": [ {
          "system": "http://terminology.hl7.org/CodeSystem/condition-clinical",
          "code": "active"
        } ]
      },
      "category": [ {
        "coding": [ {
          "system": "http://terminology.hl7.org/CodeSystem/condition-category",
          "code": "problem-list-item",
          "display": "Problem List Item"
        } ]
      } ],
      "code": {
        "coding": [ {
          "system": "http://snomed.info/sct",
          "code": "371125006",
          "display": "Labile essential hypertension (disorder)"
        } ]
      },
      "subject": {
        "reference": "Patient/43efb820-9e6e-4180-9a4d-2d7459896e5f"
      },
      "onsetDateTime": "2026-06-30T23:59:59.000+00:00"
    },
    "request": {
      "method": "PUT",
      "url": "Condition/f19b57ea-a672-474d-b016-ada4b3be69b9"
    }
  }, {
    "fullUrl": "https://madie.cms.gov/Observation/31f7fd23-a8a6-479f-8eb0-6d7cb5d479d8",
    "resource": {
      "resourceType": "Observation",
      "id": "31f7fd23-a8a6-479f-8eb0-6d7cb5d479d8",
      "meta": {
        "profile": [ "http://hl7.org/fhir/us/qicore/StructureDefinition/qicore-observation" ]
      },
      "status": "entered-in-error",
      "category": [ {
        "coding": [ {
          "system": "http://terminology.hl7.org/CodeSystem/observation-category",
          "code": "survey"
        } ]
      } ],
      "code": {
        "coding": [ {
          "system": "http://loinc.org",
          "code": "71007-9",
          "display": "Functional Assessment of Chronic Illness Therapy - Palliative Care Questionnaire (FACIT-Pal)"
        } ]
      },
      "subject": {
        "reference": "Patient/43efb820-9e6e-4180-9a4d-2d7459896e5f"
      },
      "effectivePeriod": {
        "start": "2025-12-31T00:00:00.000+00:00",
        "end": "2026-01-01T01:00:00.000+00:00"
      },
      "valueCodeableConcept": {
        "coding": [ {
          "system": "http://snomed.info/sct",
          "code": "373066001",
          "display": "Yes (qualifier value)"
        } ]
      }
    },
    "request": {
      "method": "PUT",
      "url": "Observation/31f7fd23-a8a6-479f-8eb0-6d7cb5d479d8"
    }
  }, {
    "fullUrl": "https://madie.cms.gov/MeasureReport/2bc454a5-ec02-45c8-b84c-a0a772bcba9f",
    "resource": {
      "resourceType": "MeasureReport",
      "id": "2bc454a5-ec02-45c8-b84c-a0a772bcba9f",
      "meta": {
        "profile": [ "http://hl7.org/fhir/us/cqfmeasures/StructureDefinition/test-case-cqfm" ]
      },
      "contained": [ {
        "resourceType": "Parameters",
        "id": "ef240fcc-00c4-41a0-ab98-23a4337a794b-parameters",
        "parameter": [ {
          "name": "subject",
          "valueString": "43efb820-9e6e-4180-9a4d-2d7459896e5f"
        } ]
      } ],
      "extension": [ {
        "url": "http://hl7.org/fhir/StructureDefinition/cqf-inputParameters",
        "valueReference": {
          "reference": "#ef240fcc-00c4-41a0-ab98-23a4337a794b-parameters"
        }
      }, {
        "url": "http://hl7.org/fhir/us/cqfmeasures/StructureDefinition/cqfm-testCaseDescription",
        "valueMarkdown": "Palliative care survey status not final"
      } ],
      "modifierExtension": [ {
        "url": "http://hl7.org/fhir/us/cqfmeasures/StructureDefinition/cqfm-isTestCase",
        "valueBoolean": true
      } ],
      "status": "complete",
      "type": "individual",
      "measure": "https://madie.cms.gov/Measure/CMS165FHIRControllingHighBP",
      "period": {
        "start": "2026-01-01",
        "end": "2026-12-31"
      },
      "group": [ {
        "id": "Group_1",
        "population": [ {
          "id": "InitialPopulation_1",
          "code": {
            "coding": [ {
              "system": "http://terminology.hl7.org/CodeSystem/measure-population",
              "code": "initial-population",
              "display": "Initial Population"
            } ]
          },
          "count": 1
        }, {
          "id": "Denominator_1",
          "code": {
            "coding": [ {
              "system": "http://terminology.hl7.org/CodeSystem/measure-population",
              "code": "denominator",
              "display": "Denominator"
            } ]
          },
          "count": 1
        }, {
          "id": "DenominatorExclusion_1",
          "code": {
            "coding": [ {
              "system": "http://terminology.hl7.org/CodeSystem/measure-population",
              "code": "denominator-exclusion",
              "display": "Denominator Exclusion"
            } ]
          },
          "count": 0
        }, {
          "id": "Numerator_1",
          "code": {
            "coding": [ {
              "system": "http://terminology.hl7.org/CodeSystem/measure-population",
              "code": "numerator",
              "display": "Numerator"
            } ]
          },
          "count": 0
        } ],
        "measureScore": {
          "value": 1.0
        }
      } ],
      "evaluatedResource": [ {
        "reference": "Patient/43efb820-9e6e-4180-9a4d-2d7459896e5f"
      }, {
        "reference": "Encounter/0e7ad596-925d-4191-a835-b96938204d1a"
      }, {
        "reference": "Condition/f19b57ea-a672-474d-b016-ada4b3be69b9"
      }, {
        "reference": "Observation/31f7fd23-a8a6-479f-8eb0-6d7cb5d479d8"
      } ]
    },
    "request": {
      "method": "PUT",
      "url": "MeasureReport/2bc454a5-ec02-45c8-b84c-a0a772bcba9f"
    }
  } ]
}