{
  "resourceType": "Bundle",
  "id": "Patient-9-NumPass-StrepLabResult",
  "type": "transaction",
  "entry": [ {
    "fullUrl": "https://madie.cms.gov/Patient/83b0a3c4-e2bc-457a-a536-6efef724e768",
    "resource": {
      "resourceType": "Patient",
      "id": "83b0a3c4-e2bc-457a-a536-6efef724e768",
      "meta": {
        "profile": [ "http://hl7.org/fhir/us/qicore/StructureDefinition/qicore-patient" ]
      },
      "extension": [ {
        "url": "http://hl7.org/fhir/us/core/StructureDefinition/us-core-race",
        "extension": [ {
          "url": "ombCategory",
          "valueCoding": {
            "system": "urn:oid:2.16.840.1.113883.6.238",
            "code": "2028-9",
            "display": "Asian"
          }
        }, {
          "url": "text",
          "valueString": "Asian"
        } ]
      }, {
        "url": "http://hl7.org/fhir/us/core/StructureDefinition/us-core-ethnicity",
        "extension": [ {
          "url": "ombCategory",
          "valueCoding": {
            "system": "urn:oid:2.16.840.1.113883.6.238",
            "code": "2135-2",
            "display": "Hispanic or Latino"
          }
        }, {
          "url": "text",
          "valueString": "Hispanic or Latino"
        } ]
      } ],
      "identifier": [ {
        "system": "http://hospital.smarthealthit.org",
        "value": "999999995"
      } ],
      "name": [ {
        "family": "Bertha",
        "given": [ "Betty" ]
      } ],
      "gender": "female",
      "birthDate": "2023-01-01"
    },
    "request": {
      "method": "PUT",
      "url": "Patient/83b0a3c4-e2bc-457a-a536-6efef724e768"
    }
  }, {
    "fullUrl": "https://madie.cms.gov/Encounter/9c8050ae-7a35-4f30-a411-7f9574aa330d",
    "resource": {
      "resourceType": "Encounter",
      "id": "9c8050ae-7a35-4f30-a411-7f9574aa330d",
      "meta": {
        "profile": [ "http://hl7.org/fhir/us/qicore/StructureDefinition/qicore-encounter" ]
      },
      "status": "finished",
      "class": {
        "system": "http://terminology.hl7.org/CodeSystem/v3-ActCode",
        "code": "AMB",
        "display": "ambulatory"
      },
      "type": [ {
        "coding": [ {
          "system": "http://snomed.info/sct",
          "code": "185317003",
          "display": "Telephone encounter (procedure)"
        } ]
      } ],
      "subject": {
        "reference": "Patient/83b0a3c4-e2bc-457a-a536-6efef724e768"
      },
      "period": {
        "start": "2026-01-02T00:00:00.000+00:00",
        "end": "2026-01-02T01:15:00.000+00:00"
      }
    },
    "request": {
      "method": "PUT",
      "url": "Encounter/9c8050ae-7a35-4f30-a411-7f9574aa330d"
    }
  }, {
    "fullUrl": "https://madie.cms.gov/MedicationRequest/c59f4079-ffc9-4efe-9db4-34fd867e24dc",
    "resource": {
      "resourceType": "MedicationRequest",
      "id": "c59f4079-ffc9-4efe-9db4-34fd867e24dc",
      "meta": {
        "profile": [ "http://hl7.org/fhir/us/qicore/StructureDefinition/qicore-medicationrequest" ]
      },
      "status": "active",
      "intent": "order",
      "category": [ {
        "coding": [ {
          "system": "http://terminology.hl7.org/CodeSystem/medicationrequest-category",
          "code": "discharge",
          "display": "Discharge"
        } ]
      } ],
      "medicationCodeableConcept": {
        "coding": [ {
          "system": "http://www.nlm.nih.gov/research/umls/rxnorm",
          "code": "1043022",
          "display": "cefixime 100 MG Chewable Tablet",
          "userSelected": true
        } ]
      },
      "subject": {
        "reference": "Patient/83b0a3c4-e2bc-457a-a536-6efef724e768"
      },
      "authoredOn": "2026-01-04T00:00:00.000+00:00",
      "requester": {
        "reference": "Practitioner/example"
      }
    },
    "request": {
      "method": "PUT",
      "url": "MedicationRequest/c59f4079-ffc9-4efe-9db4-34fd867e24dc"
    }
  }, {
    "fullUrl": "https://madie.cms.gov/Condition/24b6fb07-3638-482f-9e64-8575004d7ada",
    "resource": {
      "resourceType": "Condition",
      "id": "24b6fb07-3638-482f-9e64-8575004d7ada",
      "meta": {
        "profile": [ "http://hl7.org/fhir/us/qicore/StructureDefinition/qicore-condition-encounter-diagnosis" ]
      },
      "clinicalStatus": {
        "coding": [ {
          "system": "http://terminology.hl7.org/CodeSystem/condition-clinical",
          "code": "active"
        } ]
      },
      "category": [ {
        "coding": [ {
          "system": "http://terminology.hl7.org/CodeSystem/condition-category",
          "code": "encounter-diagnosis",
          "display": "Encounter Diagnosis"
        } ]
      } ],
      "code": {
        "coding": [ {
          "system": "http://snomed.info/sct",
          "code": "1532007",
          "display": "Viral pharyngitis (disorder)"
        } ]
      },
      "subject": {
        "reference": "Patient/83b0a3c4-e2bc-457a-a536-6efef724e768"
      },
      "onsetDateTime": "2026-01-02T00:00:00.000+00:00"
    },
    "request": {
      "method": "PUT",
      "url": "Condition/24b6fb07-3638-482f-9e64-8575004d7ada"
    }
  }, {
    "fullUrl": "https://madie.cms.gov/Observation/a740bc1c-ae71-40cf-84c7-547af669b5a9",
    "resource": {
      "resourceType": "Observation",
      "id": "a740bc1c-ae71-40cf-84c7-547af669b5a9",
      "meta": {
        "profile": [ "http://hl7.org/fhir/us/qicore/StructureDefinition/qicore-observation-lab" ]
      },
      "status": "final",
      "category": [ {
        "coding": [ {
          "system": "http://terminology.hl7.org/CodeSystem/observation-category",
          "code": "laboratory",
          "display": "Laboratory"
        } ],
        "text": "Laboratory"
      } ],
      "code": {
        "coding": [ {
          "system": "http://loinc.org",
          "code": "17898-8",
          "display": "Bacteria identified in Throat by Aerobe culture"
        } ]
      },
      "subject": {
        "reference": "Patient/83b0a3c4-e2bc-457a-a536-6efef724e768"
      },
      "effectiveDateTime": "2026-01-05T00:00:00.000+00:00",
      "valueString": "Positive"
    },
    "request": {
      "method": "PUT",
      "url": "Observation/a740bc1c-ae71-40cf-84c7-547af669b5a9"
    }
  }, {
    "fullUrl": "https://madie.cms.gov/MeasureReport/48da1251-d9cd-43ee-88fb-691367d5ffec",
    "resource": {
      "resourceType": "MeasureReport",
      "id": "48da1251-d9cd-43ee-88fb-691367d5ffec",
      "meta": {
        "profile": [ "http://hl7.org/fhir/us/cqfmeasures/StructureDefinition/test-case-cqfm" ]
      },
      "contained": [ {
        "resourceType": "Parameters",
        "id": "0c5b0445-dce5-4bb9-b196-e3001382963c-parameters",
        "parameter": [ {
          "name": "subject",
          "valueString": "83b0a3c4-e2bc-457a-a536-6efef724e768"
        } ]
      } ],
      "extension": [ {
        "url": "http://hl7.org/fhir/StructureDefinition/cqf-inputParameters",
        "valueReference": {
          "reference": "#0c5b0445-dce5-4bb9-b196-e3001382963c-parameters"
        }
      }, {
        "url": "http://hl7.org/fhir/us/cqfmeasures/StructureDefinition/cqfm-testCaseDescription",
        "valueMarkdown": "Strep lab result 3 days after qualifying encounter"
      } ],
      "modifierExtension": [ {
        "url": "http://hl7.org/fhir/us/cqfmeasures/StructureDefinition/cqfm-isTestCase",
        "valueBoolean": true
      } ],
      "status": "complete",
      "type": "individual",
      "measure": "https://madie.cms.gov/Measure/CMS146FHIRApproTestPharyngitis",
      "period": {
        "start": "2026-01-01",
        "end": "2026-12-31"
      },
      "group": [ {
        "id": "Group_1",
        "population": [ {
          "id": "InitialPopulation_1",
          "code": {
            "coding": [ {
              "system": "http://terminology.hl7.org/CodeSystem/measure-population",
              "code": "initial-population",
              "display": "Initial Population"
            } ]
          },
          "count": 1
        }, {
          "id": "Denominator_1",
          "code": {
            "coding": [ {
              "system": "http://terminology.hl7.org/CodeSystem/measure-population",
              "code": "denominator",
              "display": "Denominator"
            } ]
          },
          "count": 1
        }, {
          "id": "DenominatorExclusion_1",
          "code": {
            "coding": [ {
              "system": "http://terminology.hl7.org/CodeSystem/measure-population",
              "code": "denominator-exclusion",
              "display": "Denominator Exclusion"
            } ]
          },
          "count": 0
        }, {
          "id": "Numerator_1",
          "code": {
            "coding": [ {
              "system": "http://terminology.hl7.org/CodeSystem/measure-population",
              "code": "numerator",
              "display": "Numerator"
            } ]
          },
          "count": 1
        } ],
        "measureScore": {
          "value": 0.0
        },
        "stratifier": [ {
          "id": "Stratification_1_1",
          "code": [ {
            "text": "Strata-1"
          } ],
          "stratum": [ {
            "value": {
              "text": "Strata-1"
            },
            "population": [ {
              "id": "InitialPopulation_1",
              "code": {
                "coding": [ {
                  "system": "http://terminology.hl7.org/CodeSystem/measure-population",
                  "code": "initial-population",
                  "display": "Initial Population"
                } ]
              },
              "count": 1
            } ]
          } ]
        }, {
          "id": "Stratification_1_2",
          "code": [ {
            "text": "Strata-2"
          } ],
          "stratum": [ {
            "value": {
              "text": "Strata-2"
            },
            "population": [ {
              "id": "InitialPopulation_1",
              "code": {
                "coding": [ {
                  "system": "http://terminology.hl7.org/CodeSystem/measure-population",
                  "code": "initial-population",
                  "display": "Initial Population"
                } ]
              },
              "count": 1
            } ]
          } ]
        }, {
          "id": "Stratification_1_3",
          "code": [ {
            "text": "Strata-3"
          } ],
          "stratum": [ {
            "value": {
              "text": "Strata-3"
            },
            "population": [ {
              "id": "InitialPopulation_1",
              "code": {
                "coding": [ {
                  "system": "http://terminology.hl7.org/CodeSystem/measure-population",
                  "code": "initial-population",
                  "display": "Initial Population"
                } ]
              },
              "count": 1
            } ]
          } ]
        } ]
      } ],
      "evaluatedResource": [ {
        "reference": "Patient/83b0a3c4-e2bc-457a-a536-6efef724e768"
      }, {
        "reference": "Encounter/9c8050ae-7a35-4f30-a411-7f9574aa330d"
      }, {
        "reference": "MedicationRequest/c59f4079-ffc9-4efe-9db4-34fd867e24dc"
      }, {
        "reference": "Condition/24b6fb07-3638-482f-9e64-8575004d7ada"
      }, {
        "reference": "Observation/a740bc1c-ae71-40cf-84c7-547af669b5a9"
      } ]
    },
    "request": {
      "method": "PUT",
      "url": "MeasureReport/48da1251-d9cd-43ee-88fb-691367d5ffec"
    }
  } ]
}