{
  "resourceType": "Bundle",
  "id": "OBSERVFail-DenomMOFailsLT12HrIPStayWithFall",
  "type": "transaction",
  "entry": [ {
    "fullUrl": "https://madie.cms.gov/Encounter/d10b0725-8b84-43db-916f-e24dc386259f",
    "resource": {
      "resourceType": "Encounter",
      "id": "d10b0725-8b84-43db-916f-e24dc386259f",
      "meta": {
        "profile": [ "http://hl7.org/fhir/us/qicore/StructureDefinition/qicore-encounter" ]
      },
      "status": "finished",
      "class": {
        "system": "http://terminology.hl7.org/CodeSystem/v3-ActCode",
        "code": "IMP",
        "display": "inpatient encounter"
      },
      "type": [ {
        "coding": [ {
          "system": "http://snomed.info/sct",
          "code": "183452005"
        } ]
      } ],
      "subject": {
        "reference": "Patient/3c34a5af-1ef1-4b86-a41f-ac1d44e96ca0"
      },
      "period": {
        "start": "2026-11-09T11:00:00.000+00:00",
        "end": "2026-11-10T08:15:00.000+00:00"
      },
      "reasonReference": [ {
        "reference": "Condition/bd56a0bb-8b90-4717-afb9-795b84fcf660"
      } ]
    },
    "request": {
      "method": "PUT",
      "url": "Encounter/d10b0725-8b84-43db-916f-e24dc386259f"
    }
  }, {
    "fullUrl": "https://madie.cms.gov/Condition/bd56a0bb-8b90-4717-afb9-795b84fcf660",
    "resource": {
      "resourceType": "Condition",
      "id": "bd56a0bb-8b90-4717-afb9-795b84fcf660",
      "meta": {
        "profile": [ "http://hl7.org/fhir/us/qicore/StructureDefinition/qicore-condition-encounter-diagnosis" ]
      },
      "clinicalStatus": {
        "coding": [ {
          "system": "http://terminology.hl7.org/CodeSystem/condition-clinical",
          "code": "active"
        } ]
      },
      "verificationStatus": {
        "coding": [ {
          "system": "http://terminology.hl7.org/CodeSystem/condition-ver-status",
          "code": "confirmed"
        } ]
      },
      "category": [ {
        "coding": [ {
          "system": "http://terminology.hl7.org/CodeSystem/condition-category",
          "code": "encounter-diagnosis",
          "display": "Encounter Diagnosis"
        } ]
      } ],
      "code": {
        "coding": [ {
          "system": "http://snomed.info/sct",
          "code": "56307009"
        } ]
      },
      "subject": {
        "reference": "Patient/3c34a5af-1ef1-4b86-a41f-ac1d44e96ca0"
      },
      "encounter": {
        "reference": "Encounter/d10b0725-8b84-43db-916f-e24dc386259f"
      }
    },
    "request": {
      "method": "PUT",
      "url": "Condition/bd56a0bb-8b90-4717-afb9-795b84fcf660"
    }
  }, {
    "fullUrl": "https://madie.cms.gov/Condition/3eb87fc9-c868-4380-a1ef-743647c37c15",
    "resource": {
      "resourceType": "Condition",
      "id": "3eb87fc9-c868-4380-a1ef-743647c37c15",
      "meta": {
        "profile": [ "http://hl7.org/fhir/us/qicore/StructureDefinition/qicore-condition-encounter-diagnosis" ]
      },
      "clinicalStatus": {
        "coding": [ {
          "system": "http://terminology.hl7.org/CodeSystem/condition-clinical",
          "code": "active"
        } ]
      },
      "verificationStatus": {
        "coding": [ {
          "system": "http://terminology.hl7.org/CodeSystem/condition-ver-status",
          "code": "confirmed"
        } ]
      },
      "category": [ {
        "coding": [ {
          "system": "http://terminology.hl7.org/CodeSystem/condition-category",
          "code": "encounter-diagnosis",
          "display": "Encounter Diagnosis"
        } ]
      } ],
      "code": {
        "coding": [ {
          "system": "http://hl7.org/fhir/sid/icd-10-cm",
          "code": "S01.00XA"
        } ]
      },
      "subject": {
        "reference": "Patient/3c34a5af-1ef1-4b86-a41f-ac1d44e96ca0"
      },
      "encounter": {
        "reference": "Encounter/d10b0725-8b84-43db-916f-e24dc386259f"
      }
    },
    "request": {
      "method": "PUT",
      "url": "Condition/3eb87fc9-c868-4380-a1ef-743647c37c15"
    }
  }, {
    "fullUrl": "https://madie.cms.gov/Patient/3c34a5af-1ef1-4b86-a41f-ac1d44e96ca0",
    "resource": {
      "resourceType": "Patient",
      "id": "3c34a5af-1ef1-4b86-a41f-ac1d44e96ca0",
      "meta": {
        "profile": [ "http://hl7.org/fhir/us/qicore/StructureDefinition/qicore-patient" ]
      },
      "extension": [ {
        "url": "http://hl7.org/fhir/us/core/StructureDefinition/us-core-race",
        "extension": [ {
          "url": "ombCategory",
          "valueCoding": {
            "system": "urn:oid:2.16.840.1.113883.6.238",
            "code": "2054-5",
            "display": "Black or African American",
            "userSelected": true
          }
        }, {
          "url": "text",
          "valueString": "Black or African American"
        } ]
      }, {
        "url": "http://hl7.org/fhir/us/core/StructureDefinition/us-core-ethnicity",
        "extension": [ {
          "url": "ombCategory",
          "valueCoding": {
            "system": "urn:oid:2.16.840.1.113883.6.238",
            "code": "2186-5",
            "display": "Not Hispanic or Latino",
            "userSelected": true
          }
        }, {
          "url": "text",
          "valueString": "Not Hispanic or Latino"
        } ]
      } ],
      "identifier": [ {
        "type": {
          "coding": [ {
            "system": "http://terminology.hl7.org/CodeSystem/v2-0203",
            "code": "MR"
          } ]
        },
        "system": "https://bonnie-fhir.healthit.gov/",
        "value": "61152a3b98086b7a79cbd7c1"
      } ],
      "active": true,
      "name": [ {
        "use": "usual",
        "family": "OBSERVFail",
        "given": [ "DenomMOFailsLT12HrIPStayWithFall" ]
      } ],
      "gender": "male",
      "birthDate": "1964-12-11"
    },
    "request": {
      "method": "PUT",
      "url": "Patient/3c34a5af-1ef1-4b86-a41f-ac1d44e96ca0"
    }
  }, {
    "fullUrl": "https://madie.cms.gov/AdverseEvent/c0401f14-2729-42b5-9ee7-cef189eb0b4b",
    "resource": {
      "resourceType": "AdverseEvent",
      "id": "c0401f14-2729-42b5-9ee7-cef189eb0b4b",
      "meta": {
        "profile": [ "http://hl7.org/fhir/us/qicore/StructureDefinition/qicore-adverseevent" ]
      },
      "actuality": "actual",
      "event": {
        "coding": [ {
          "system": "http://snomed.info/sct",
          "code": "56307009"
        } ]
      },
      "subject": {
        "reference": "Patient/3c34a5af-1ef1-4b86-a41f-ac1d44e96ca0"
      },
      "date": "2026-11-10T08:00:00.000+00:00"
    },
    "request": {
      "method": "PUT",
      "url": "AdverseEvent/c0401f14-2729-42b5-9ee7-cef189eb0b4b"
    }
  }, {
    "fullUrl": "https://madie.cms.gov/Claim/3ea5dc18-dc4b-4ae8-a07f-5ede1a58ad37",
    "resource": {
      "resourceType": "Claim",
      "id": "3ea5dc18-dc4b-4ae8-a07f-5ede1a58ad37",
      "meta": {
        "profile": [ "http://hl7.org/fhir/us/qicore/StructureDefinition/qicore-claim" ]
      },
      "status": "active",
      "type": {
        "coding": [ {
          "system": "http://terminology.hl7.org/CodeSystem/claim-type",
          "code": "professional",
          "display": "Professional"
        } ]
      },
      "use": "claim",
      "patient": {
        "reference": "Patient/3c34a5af-1ef1-4b86-a41f-ac1d44e96ca0"
      },
      "created": "2026-11-10",
      "provider": {
        "reference": "Practitioner/df665734-8182-4cb7-8aea-9569620d77de"
      },
      "priority": {
        "coding": [ {
          "system": "http://terminology.hl7.org/CodeSystem/processpriority",
          "code": "normal"
        } ]
      },
      "diagnosis": [ {
        "sequence": 1,
        "diagnosisCodeableConcept": {
          "coding": [ {
            "system": "http://snomed.info/sct",
            "code": "56307009"
          } ]
        },
        "onAdmission": {
          "coding": [ {
            "system": "https://www.cms.gov/Medicare/Medicare-Fee-for-Service-Payment/HospitalAcqCond/Coding",
            "code": "N"
          } ]
        }
      } ],
      "insurance": [ {
        "sequence": 1,
        "focal": true,
        "coverage": {
          "reference": "Coverage/febf2a45-c3ef-43ab-9950-21ccef1a4a7f"
        }
      } ],
      "item": [ {
        "sequence": 1,
        "diagnosisSequence": [ 1, 2 ],
        "productOrService": {
          "coding": [ {
            "system": "http://terminology.hl7.org/CodeSystem/ex-USCLS",
            "code": "1101"
          } ]
        },
        "encounter": [ {
          "reference": "Encounter/d10b0725-8b84-43db-916f-e24dc386259f"
        } ]
      } ]
    },
    "request": {
      "method": "PUT",
      "url": "Claim/3ea5dc18-dc4b-4ae8-a07f-5ede1a58ad37"
    }
  }, {
    "fullUrl": "https://madie.cms.gov/Claim/1d90ef35-750e-40cd-8816-624940be094d",
    "resource": {
      "resourceType": "Claim",
      "id": "1d90ef35-750e-40cd-8816-624940be094d",
      "meta": {
        "profile": [ "http://hl7.org/fhir/us/qicore/StructureDefinition/qicore-claim" ]
      },
      "status": "active",
      "type": {
        "coding": [ {
          "system": "http://terminology.hl7.org/CodeSystem/claim-type",
          "code": "professional",
          "display": "Professional"
        } ]
      },
      "use": "claim",
      "patient": {
        "reference": "Patient/3c34a5af-1ef1-4b86-a41f-ac1d44e96ca0"
      },
      "created": "2026-11-10",
      "provider": {
        "reference": "Practitioner/df665734-8182-4cb7-8aea-9569620d77de"
      },
      "priority": {
        "coding": [ {
          "system": "http://terminology.hl7.org/CodeSystem/processpriority",
          "code": "normal"
        } ]
      },
      "diagnosis": [ {
        "sequence": 2,
        "diagnosisCodeableConcept": {
          "coding": [ {
            "system": "http://hl7.org/fhir/sid/icd-10-cm",
            "code": "S01.00XA"
          } ]
        },
        "onAdmission": {
          "coding": [ {
            "system": "https://www.cms.gov/Medicare/Medicare-Fee-for-Service-Payment/HospitalAcqCond/Coding",
            "code": "N"
          } ]
        }
      } ],
      "insurance": [ {
        "sequence": 1,
        "focal": true,
        "coverage": {
          "reference": "Coverage/febf2a45-c3ef-43ab-9950-21ccef1a4a7f"
        }
      } ],
      "item": [ {
        "sequence": 1,
        "diagnosisSequence": [ 1, 2 ],
        "productOrService": {
          "coding": [ {
            "system": "http://terminology.hl7.org/CodeSystem/ex-USCLS",
            "code": "1101"
          } ]
        },
        "encounter": [ {
          "reference": "Encounter/d10b0725-8b84-43db-916f-e24dc386259f"
        } ]
      } ]
    },
    "request": {
      "method": "PUT",
      "url": "Claim/1d90ef35-750e-40cd-8816-624940be094d"
    }
  }, {
    "fullUrl": "https://madie.cms.gov/Practitioner/df665734-8182-4cb7-8aea-9569620d77de",
    "resource": {
      "resourceType": "Practitioner",
      "id": "df665734-8182-4cb7-8aea-9569620d77de",
      "meta": {
        "profile": [ "http://hl7.org/fhir/us/qicore/StructureDefinition/qicore-practitioner" ]
      },
      "identifier": [ {
        "system": "http://www.cms.gov/identifiers/pracitioners",
        "value": "P12345"
      } ],
      "name": [ {
        "use": "official",
        "family": "Smith",
        "given": [ "John" ]
      } ],
      "qualification": [ {
        "identifier": [ {
          "system": "http://hl7.org/fhir/sid/us-npi",
          "value": "1234567890"
        } ],
        "code": {
          "coding": [ {
            "system": "http://terminology.hl7.org/CodeSystem/v2-0203",
            "code": "MD",
            "display": "Medical License number"
          } ]
        }
      } ]
    },
    "request": {
      "method": "PUT",
      "url": "Practitioner/df665734-8182-4cb7-8aea-9569620d77de"
    }
  }, {
    "fullUrl": "https://madie.cms.gov/Coverage/febf2a45-c3ef-43ab-9950-21ccef1a4a7f",
    "resource": {
      "resourceType": "Coverage",
      "id": "febf2a45-c3ef-43ab-9950-21ccef1a4a7f",
      "meta": {
        "profile": [ "http://hl7.org/fhir/us/qicore/StructureDefinition/qicore-coverage" ]
      },
      "identifier": [ {
        "use": "official",
        "type": {
          "coding": [ {
            "system": "http://terminology.hl7.org/CodeSystem/v2-0203",
            "code": "MB"
          } ]
        },
        "system": "http://insuranceNumber.org/",
        "value": "123456789"
      } ],
      "status": "active",
      "beneficiary": {
        "reference": "Patient/3c34a5af-1ef1-4b86-a41f-ac1d44e96ca0"
      },
      "relationship": {
        "coding": [ {
          "system": "http://terminology.hl7.org/CodeSystem/subscriber-relationship",
          "code": "self",
          "display": "Self"
        } ]
      },
      "payor": [ {
        "reference": "Organization/324d0a08-f212-406f-ab58-207d798461f4"
      } ]
    },
    "request": {
      "method": "PUT",
      "url": "Coverage/febf2a45-c3ef-43ab-9950-21ccef1a4a7f"
    }
  }, {
    "fullUrl": "https://madie.cms.gov/Organization/324d0a08-f212-406f-ab58-207d798461f4",
    "resource": {
      "resourceType": "Organization",
      "id": "324d0a08-f212-406f-ab58-207d798461f4",
      "meta": {
        "profile": [ "http://hl7.org/fhir/us/qicore/StructureDefinition/qicore-organization" ]
      },
      "identifier": [ {
        "system": "http://cms.gov/insurance-ids",
        "value": "AET12345"
      } ],
      "active": true,
      "type": [ {
        "coding": [ {
          "system": "http://terminology.hl7.org/CodeSystem/organization-type",
          "code": "prov",
          "display": "Healthcare Provider"
        } ]
      } ],
      "name": "Aetna Insurance",
      "telecom": [ {
        "system": "phone",
        "value": "+1-800-123-4567"
      } ],
      "address": [ {
        "line": [ "123 Main Street" ],
        "city": "Cityville",
        "state": "CA",
        "postalCode": "12345",
        "country": "USA"
      } ]
    },
    "request": {
      "method": "PUT",
      "url": "Organization/324d0a08-f212-406f-ab58-207d798461f4"
    }
  }, {
    "fullUrl": "https://madie.cms.gov/MeasureReport/1edcc821-5daf-4930-bad1-a323f0437344",
    "resource": {
      "resourceType": "MeasureReport",
      "id": "1edcc821-5daf-4930-bad1-a323f0437344",
      "meta": {
        "profile": [ "http://hl7.org/fhir/us/cqfmeasures/StructureDefinition/test-case-cqfm" ]
      },
      "contained": [ {
        "resourceType": "Parameters",
        "id": "d7dd87fc-09b7-40c5-9b63-941502c39294-parameters",
        "parameter": [ {
          "name": "subject",
          "valueString": "3c34a5af-1ef1-4b86-a41f-ac1d44e96ca0"
        } ]
      } ],
      "extension": [ {
        "url": "http://hl7.org/fhir/StructureDefinition/cqf-inputParameters",
        "valueReference": {
          "reference": "#d7dd87fc-09b7-40c5-9b63-941502c39294-parameters"
        }
      }, {
        "url": "http://hl7.org/fhir/us/cqfmeasures/StructureDefinition/cqfm-testCaseDescription",
        "valueMarkdown": "Encounter IP of less than 12 hours with adverse event fall during encounter,  and encounter dx of injury NPOA. Meets numerator but since LOS <24 hrs, denom MO = 0."
      } ],
      "modifierExtension": [ {
        "url": "http://hl7.org/fhir/us/cqfmeasures/StructureDefinition/cqfm-isTestCase",
        "valueBoolean": true
      } ],
      "status": "complete",
      "type": "individual",
      "measure": "https://madie.cms.gov/Measure/CMS1017FHIRHHFI",
      "period": {
        "start": "2026-01-01",
        "end": "2026-12-31"
      },
      "group": [ {
        "id": "Group_1",
        "population": [ {
          "id": "InitialPopulation_1",
          "code": {
            "coding": [ {
              "system": "http://terminology.hl7.org/CodeSystem/measure-population",
              "code": "initial-population",
              "display": "Initial Population"
            } ]
          },
          "count": 1
        }, {
          "id": "Denominator_1",
          "code": {
            "coding": [ {
              "system": "http://terminology.hl7.org/CodeSystem/measure-population",
              "code": "denominator",
              "display": "Denominator"
            } ]
          },
          "count": 1
        }, {
          "id": "DenominatorExclusion_1",
          "code": {
            "coding": [ {
              "system": "http://terminology.hl7.org/CodeSystem/measure-population",
              "code": "denominator-exclusion",
              "display": "Denominator Exclusion"
            } ]
          },
          "count": 0
        }, {
          "id": "Numerator_1",
          "code": {
            "coding": [ {
              "system": "http://terminology.hl7.org/CodeSystem/measure-population",
              "code": "numerator",
              "display": "Numerator"
            } ]
          },
          "count": 1
        }, {
          "id": "NumeratorExclusion_1",
          "code": {
            "coding": [ {
              "system": "http://terminology.hl7.org/CodeSystem/measure-population",
              "code": "numerator-exclusion",
              "display": "Numerator Exclusion"
            } ]
          },
          "count": 0
        }, {
          "id": "MeasureObservation_1_1_1",
          "code": {
            "coding": [ {
              "system": "http://terminology.hl7.org/CodeSystem/measure-population",
              "code": "measure-observation",
              "display": "Measure Observation"
            } ]
          },
          "count": 0
        }, {
          "id": "MeasureObservation_1_2_1",
          "code": {
            "coding": [ {
              "system": "http://terminology.hl7.org/CodeSystem/measure-population",
              "code": "measure-observation",
              "display": "Measure Observation"
            } ]
          },
          "count": 1
        } ],
        "measureScore": {
          "value": 0.0
        }
      } ],
      "evaluatedResource": [ {
        "reference": "Encounter/d10b0725-8b84-43db-916f-e24dc386259f"
      }, {
        "reference": "Condition/bd56a0bb-8b90-4717-afb9-795b84fcf660"
      }, {
        "reference": "Condition/3eb87fc9-c868-4380-a1ef-743647c37c15"
      }, {
        "reference": "Patient/3c34a5af-1ef1-4b86-a41f-ac1d44e96ca0"
      }, {
        "reference": "AdverseEvent/c0401f14-2729-42b5-9ee7-cef189eb0b4b"
      }, {
        "reference": "Claim/3ea5dc18-dc4b-4ae8-a07f-5ede1a58ad37"
      }, {
        "reference": "Claim/1d90ef35-750e-40cd-8816-624940be094d"
      }, {
        "reference": "Practitioner/df665734-8182-4cb7-8aea-9569620d77de"
      }, {
        "reference": "Coverage/febf2a45-c3ef-43ab-9950-21ccef1a4a7f"
      }, {
        "reference": "Organization/324d0a08-f212-406f-ab58-207d798461f4"
      } ]
    },
    "request": {
      "method": "PUT",
      "url": "MeasureReport/1edcc821-5daf-4930-bad1-a323f0437344"
    }
  } ]
}