{
  "resourceType": "Bundle",
  "id": "62c880ed0111a60120dc2220",
  "type": "transaction",
  "entry": [ {
    "fullUrl": "https://madie.cms.gov/Patient/21096f8d-bfa3-4abe-a9b0-150e6dd8a615",
    "resource": {
      "resourceType": "Patient",
      "id": "21096f8d-bfa3-4abe-a9b0-150e6dd8a615",
      "meta": {
        "profile": [ "http://hl7.org/fhir/us/qicore/StructureDefinition/qicore-patient" ]
      },
      "extension": [ {
        "url": "http://hl7.org/fhir/us/core/StructureDefinition/us-core-race",
        "extension": [ {
          "url": "ombCategory",
          "valueCoding": {
            "system": "urn:oid:2.16.840.1.113883.6.238",
            "code": "1002-5",
            "display": "American Indian or Alaska Native"
          }
        }, {
          "url": "text",
          "valueString": "American Indian or Alaska Native"
        } ]
      }, {
        "url": "http://hl7.org/fhir/us/core/StructureDefinition/us-core-ethnicity",
        "extension": [ {
          "url": "ombCategory",
          "valueCoding": {
            "system": "urn:oid:2.16.840.1.113883.6.238",
            "code": "2135-2",
            "display": "Hispanic or Latino"
          }
        }, {
          "url": "text",
          "valueString": "Hispanic or Latino"
        } ]
      } ],
      "identifier": [ {
        "type": {
          "coding": [ {
            "system": "http://terminology.hl7.org/CodeSystem/v2-0203",
            "code": "MR"
          } ]
        },
        "system": "https://bonnie-fhir.healthit.gov/",
        "value": "62c880ed0111a60120dc2220"
      } ],
      "active": true,
      "name": [ {
        "use": "usual",
        "family": "NUMERFailPop1",
        "given": [ "PainAssessPriorEnc" ]
      } ],
      "gender": "female",
      "birthDate": "1957-01-09"
    },
    "request": {
      "method": "PUT",
      "url": "Patient/21096f8d-bfa3-4abe-a9b0-150e6dd8a615"
    }
  }, {
    "fullUrl": "https://madie.cms.gov/Observation/af297542-39f1-4404-8619-c0221264d1e8",
    "resource": {
      "resourceType": "Observation",
      "id": "af297542-39f1-4404-8619-c0221264d1e8",
      "meta": {
        "profile": [ "http://hl7.org/fhir/us/qicore/StructureDefinition/qicore-observation-screening-assessment" ]
      },
      "status": "final",
      "category": [ {
        "coding": [ {
          "system": "http://terminology.hl7.org/CodeSystem/observation-category",
          "code": "survey",
          "display": "Survey"
        } ],
        "text": "Survey"
      } ],
      "code": {
        "coding": [ {
          "system": "http://loinc.org",
          "code": "38208-5",
          "display": "Pain severity - Reported"
        } ],
        "text": "Pain severity - Reported"
      },
      "subject": {
        "reference": "Patient/21096f8d-bfa3-4abe-a9b0-150e6dd8a615"
      },
      "effectiveDateTime": "2026-02-10T08:00:00.000+00:00",
      "valueInteger": 6
    },
    "request": {
      "method": "PUT",
      "url": "Observation/af297542-39f1-4404-8619-c0221264d1e8"
    }
  }, {
    "fullUrl": "https://madie.cms.gov/Condition/44c21bd1-2d14-4574-b8f9-554c1dfa4850",
    "resource": {
      "resourceType": "Condition",
      "id": "44c21bd1-2d14-4574-b8f9-554c1dfa4850",
      "meta": {
        "profile": [ "http://hl7.org/fhir/us/qicore/StructureDefinition/qicore-condition-problems-health-concerns" ]
      },
      "clinicalStatus": {
        "coding": [ {
          "system": "http://terminology.hl7.org/CodeSystem/condition-clinical",
          "code": "active",
          "display": "active"
        } ]
      },
      "verificationStatus": {
        "coding": [ {
          "system": "http://terminology.hl7.org/CodeSystem/condition-ver-status",
          "code": "confirmed",
          "display": "Confirmed"
        } ]
      },
      "category": [ {
        "coding": [ {
          "system": "http://terminology.hl7.org/CodeSystem/condition-category",
          "code": "problem-list-item",
          "display": "Problem List Item"
        } ]
      } ],
      "code": {
        "coding": [ {
          "system": "http://snomed.info/sct",
          "code": "107691000119101"
        } ]
      },
      "subject": {
        "reference": "Patient/21096f8d-bfa3-4abe-a9b0-150e6dd8a615"
      },
      "onsetDateTime": "2026-01-11T14:45:00.000+00:00"
    },
    "request": {
      "method": "PUT",
      "url": "Condition/44c21bd1-2d14-4574-b8f9-554c1dfa4850"
    }
  }, {
    "fullUrl": "https://madie.cms.gov/Encounter/21de1b5d-38b9-434f-ad10-6487088fd94d",
    "resource": {
      "resourceType": "Encounter",
      "id": "21de1b5d-38b9-434f-ad10-6487088fd94d",
      "meta": {
        "profile": [ "http://hl7.org/fhir/us/qicore/StructureDefinition/qicore-encounter" ]
      },
      "status": "finished",
      "class": {
        "system": "http://terminology.hl7.org/CodeSystem/v3-ActCode",
        "code": "AMB",
        "display": "ambulatory",
        "userSelected": true
      },
      "type": [ {
        "coding": [ {
          "system": "http://www.ama-assn.org/go/cpt",
          "code": "99202"
        } ]
      } ],
      "subject": {
        "reference": "Patient/21096f8d-bfa3-4abe-a9b0-150e6dd8a615"
      },
      "period": {
        "start": "2026-07-01T14:45:00.000+00:00",
        "end": "2026-07-01T14:45:00.000+00:00"
      }
    },
    "request": {
      "method": "PUT",
      "url": "Encounter/21de1b5d-38b9-434f-ad10-6487088fd94d"
    }
  }, {
    "fullUrl": "https://madie.cms.gov/Coverage/1b2273c6-331f-4eac-b620-cb0a7079794c",
    "resource": {
      "resourceType": "Coverage",
      "id": "1b2273c6-331f-4eac-b620-cb0a7079794c",
      "meta": {
        "profile": [ "http://hl7.org/fhir/us/qicore/StructureDefinition/qicore-coverage" ]
      },
      "status": "active",
      "beneficiary": {
        "reference": "Patient/21096f8d-bfa3-4abe-a9b0-150e6dd8a615"
      },
      "period": {
        "start": "1957-01-09T08:00:00.000+00:00"
      },
      "payor": [ {
        "reference": "Organization/5145ce58-bcf4-4966-b3b3-ce810bbb663b"
      } ]
    },
    "request": {
      "method": "PUT",
      "url": "Coverage/1b2273c6-331f-4eac-b620-cb0a7079794c"
    }
  }, {
    "fullUrl": "https://madie.cms.gov/Procedure/c3af102e-f9ec-4573-85a9-bea2c8d902c5",
    "resource": {
      "resourceType": "Procedure",
      "id": "c3af102e-f9ec-4573-85a9-bea2c8d902c5",
      "meta": {
        "profile": [ "http://hl7.org/fhir/us/qicore/StructureDefinition/qicore-procedure" ]
      },
      "extension": [ {
        "url": "http://hl7.org/fhir/us/qicore/StructureDefinition/qicore-recorded",
        "valueDateTime": "2026-06-02T14:35:00.000+00:00"
      } ],
      "status": "completed",
      "code": {
        "coding": [ {
          "system": "http://www.ama-assn.org/go/cpt",
          "code": "96409"
        } ]
      },
      "subject": {
        "reference": "Patient/21096f8d-bfa3-4abe-a9b0-150e6dd8a615"
      },
      "performedPeriod": {
        "start": "2026-06-02T14:00:00.000+00:00",
        "end": "2026-06-02T14:00:00.000+00:00"
      }
    },
    "request": {
      "method": "PUT",
      "url": "Procedure/c3af102e-f9ec-4573-85a9-bea2c8d902c5"
    }
  }, {
    "fullUrl": "https://madie.cms.gov/Procedure/b3bb42d5-0f34-42f2-8db7-8954f55b4a60",
    "resource": {
      "resourceType": "Procedure",
      "id": "b3bb42d5-0f34-42f2-8db7-8954f55b4a60",
      "meta": {
        "profile": [ "http://hl7.org/fhir/us/qicore/StructureDefinition/qicore-procedure" ]
      },
      "extension": [ {
        "url": "http://hl7.org/fhir/us/qicore/StructureDefinition/qicore-recorded",
        "valueDateTime": "2026-07-30T09:35:00.000+00:00"
      } ],
      "status": "completed",
      "code": {
        "coding": [ {
          "system": "http://www.ama-assn.org/go/cpt",
          "code": "96409"
        } ]
      },
      "subject": {
        "reference": "Patient/21096f8d-bfa3-4abe-a9b0-150e6dd8a615"
      },
      "performedPeriod": {
        "start": "2026-07-30T09:30:00.000+00:00",
        "end": "2026-07-30T09:30:00.000+00:00"
      }
    },
    "request": {
      "method": "PUT",
      "url": "Procedure/b3bb42d5-0f34-42f2-8db7-8954f55b4a60"
    }
  }, {
    "fullUrl": "https://madie.cms.gov/Organization/5145ce58-bcf4-4966-b3b3-ce810bbb663b",
    "resource": {
      "resourceType": "Organization",
      "id": "5145ce58-bcf4-4966-b3b3-ce810bbb663b",
      "meta": {
        "profile": [ "http://hl7.org/fhir/us/qicore/StructureDefinition/qicore-organization" ]
      },
      "identifier": [ {
        "use": "temp",
        "system": "urn:oid:2.16.840.1.113883.4.4",
        "value": "21-3259825"
      } ],
      "active": true,
      "type": [ {
        "coding": [ {
          "system": "http://terminology.hl7.org/CodeSystem/organization-type",
          "code": "pay",
          "display": "Payer"
        } ]
      } ],
      "name": "Blue Cross Blue Shield of Texas",
      "telecom": [ {
        "system": "phone",
        "value": "(+1) 972-766-6900"
      } ],
      "address": [ {
        "use": "billing",
        "type": "postal",
        "line": [ "P.O. Box 660044" ],
        "city": "Dallas",
        "state": "TX",
        "postalCode": "75266-0044",
        "country": "USA"
      } ]
    },
    "request": {
      "method": "PUT",
      "url": "Organization/5145ce58-bcf4-4966-b3b3-ce810bbb663b"
    }
  }, {
    "fullUrl": "https://madie.cms.gov/Practitioner/453dbbc3-8282-41bb-83e8-5d0bd5128940",
    "resource": {
      "resourceType": "Practitioner",
      "id": "453dbbc3-8282-41bb-83e8-5d0bd5128940",
      "meta": {
        "profile": [ "http://hl7.org/fhir/us/qicore/StructureDefinition/qicore-practitioner" ]
      },
      "identifier": [ {
        "system": "http://hl7.org/fhir/sid/us-npi",
        "value": "1234567890"
      } ],
      "name": [ {
        "family": "Evil",
        "prefix": [ "Dr" ]
      } ]
    },
    "request": {
      "method": "PUT",
      "url": "Practitioner/453dbbc3-8282-41bb-83e8-5d0bd5128940"
    }
  }, {
    "fullUrl": "https://madie.cms.gov/MeasureReport/86d76718-ffc0-4e21-9783-254ed0e35f20",
    "resource": {
      "resourceType": "MeasureReport",
      "id": "86d76718-ffc0-4e21-9783-254ed0e35f20",
      "meta": {
        "profile": [ "http://hl7.org/fhir/us/cqfmeasures/StructureDefinition/test-case-cqfm" ]
      },
      "contained": [ {
        "resourceType": "Parameters",
        "id": "f664c46c-40dc-49e4-89d2-ac1686776f66-parameters",
        "parameter": [ {
          "name": "subject",
          "valueString": "21096f8d-bfa3-4abe-a9b0-150e6dd8a615"
        } ]
      } ],
      "extension": [ {
        "url": "http://hl7.org/fhir/StructureDefinition/cqf-inputParameters",
        "valueReference": {
          "reference": "#f664c46c-40dc-49e4-89d2-ac1686776f66-parameters"
        }
      }, {
        "url": "http://hl7.org/fhir/us/cqfmeasures/StructureDefinition/cqfm-testCaseDescription",
        "valueMarkdown": "Patient with cancer diagnosis overlaps the office visit during measurement period. Chemotherapy administered but pain intensity assessment was performed prior to the office visit.   \n"
      } ],
      "modifierExtension": [ {
        "url": "http://hl7.org/fhir/us/cqfmeasures/StructureDefinition/cqfm-isTestCase",
        "valueBoolean": true
      } ],
      "status": "complete",
      "type": "individual",
      "measure": "https://madie.cms.gov/Measure/CMS157FHIRPainIntensityQuantified",
      "period": {
        "start": "2026-01-01",
        "end": "2026-12-31"
      },
      "group": [ {
        "id": "Group_1",
        "population": [ {
          "id": "InitialPopulation_1",
          "code": {
            "coding": [ {
              "system": "http://terminology.hl7.org/CodeSystem/measure-population",
              "code": "initial-population",
              "display": "Initial Population"
            } ]
          },
          "count": 1
        }, {
          "id": "Denominator_1",
          "code": {
            "coding": [ {
              "system": "http://terminology.hl7.org/CodeSystem/measure-population",
              "code": "denominator",
              "display": "Denominator"
            } ]
          },
          "count": 1
        }, {
          "id": "Numerator_1",
          "code": {
            "coding": [ {
              "system": "http://terminology.hl7.org/CodeSystem/measure-population",
              "code": "numerator",
              "display": "Numerator"
            } ]
          },
          "count": 0
        } ],
        "measureScore": {
          "value": 0.0
        }
      }, {
        "id": "Group_2",
        "population": [ {
          "id": "InitialPopulation_2",
          "code": {
            "coding": [ {
              "system": "http://terminology.hl7.org/CodeSystem/measure-population",
              "code": "initial-population",
              "display": "Initial Population"
            } ]
          },
          "count": 0
        }, {
          "id": "Denominator_2",
          "code": {
            "coding": [ {
              "system": "http://terminology.hl7.org/CodeSystem/measure-population",
              "code": "denominator",
              "display": "Denominator"
            } ]
          },
          "count": 0
        }, {
          "id": "Numerator_2",
          "code": {
            "coding": [ {
              "system": "http://terminology.hl7.org/CodeSystem/measure-population",
              "code": "numerator",
              "display": "Numerator"
            } ]
          },
          "count": 0
        } ],
        "measureScore": {
          "value": 0.0
        }
      } ],
      "evaluatedResource": [ {
        "reference": "Patient/21096f8d-bfa3-4abe-a9b0-150e6dd8a615"
      }, {
        "reference": "Observation/af297542-39f1-4404-8619-c0221264d1e8"
      }, {
        "reference": "Condition/44c21bd1-2d14-4574-b8f9-554c1dfa4850"
      }, {
        "reference": "Encounter/21de1b5d-38b9-434f-ad10-6487088fd94d"
      }, {
        "reference": "Coverage/1b2273c6-331f-4eac-b620-cb0a7079794c"
      }, {
        "reference": "Procedure/c3af102e-f9ec-4573-85a9-bea2c8d902c5"
      }, {
        "reference": "Procedure/b3bb42d5-0f34-42f2-8db7-8954f55b4a60"
      }, {
        "reference": "Organization/5145ce58-bcf4-4966-b3b3-ce810bbb663b"
      }, {
        "reference": "Practitioner/453dbbc3-8282-41bb-83e8-5d0bd5128940"
      } ]
    },
    "request": {
      "method": "PUT",
      "url": "MeasureReport/86d76718-ffc0-4e21-9783-254ed0e35f20"
    }
  } ]
}