{
  "resourceType": "Bundle",
  "id": "71353541641654",
  "type": "collection",
  "entry": [ {
    "fullUrl": "https://madie.cms.gov/Patient/cba5a449-1c45-4e11-ae0b-ba3974b410f7",
    "resource": {
      "resourceType": "Patient",
      "id": "cba5a449-1c45-4e11-ae0b-ba3974b410f7",
      "meta": {
        "profile": [ "http://hl7.org/fhir/us/qicore/StructureDefinition/qicore-patient" ]
      },
      "extension": [ {
        "url": "http://hl7.org/fhir/us/core/StructureDefinition/us-core-race",
        "extension": [ {
          "url": "ombCategory",
          "valueCoding": {
            "system": "urn:oid:2.16.840.1.113883.6.238",
            "code": "1002-5",
            "display": "American Indian or Alaska Native"
          }
        }, {
          "url": "text",
          "valueString": "American Indian or Alaska Native"
        } ]
      }, {
        "url": "http://hl7.org/fhir/us/core/StructureDefinition/us-core-ethnicity",
        "extension": [ {
          "url": "ombCategory",
          "valueCoding": {
            "system": "urn:oid:2.16.840.1.113883.6.238",
            "code": "2135-2",
            "display": "Hispanic or Latino"
          }
        }, {
          "url": "text",
          "valueString": "Hispanic or Latino"
        } ]
      } ],
      "identifier": [ {
        "type": {
          "coding": [ {
            "system": "http://terminology.hl7.org/CodeSystem/v2-0203",
            "code": "MR"
          } ]
        },
        "system": "https://bonnie-fhir.healthit.gov/",
        "value": "9871563684351313"
      } ],
      "name": [ {
        "family": "NUMERFail",
        "given": [ "ACEARBActAfterEnc" ]
      } ],
      "gender": "female",
      "birthDate": "1933-01-21"
    }
  }, {
    "fullUrl": "https://madie.cms.gov/Encounter/69c8006d-27f0-472d-a52b-4002e8cc9664",
    "resource": {
      "resourceType": "Encounter",
      "id": "69c8006d-27f0-472d-a52b-4002e8cc9664",
      "meta": {
        "profile": [ "http://hl7.org/fhir/us/qicore/StructureDefinition/qicore-encounter" ]
      },
      "status": "finished",
      "class": {
        "system": "http://terminology.hl7.org/CodeSystem/v3-ActCode",
        "code": "AMB",
        "display": "ambulatory"
      },
      "type": [ {
        "coding": [ {
          "system": "http://snomed.info/sct",
          "version": "http://snomed.info/sct/731000124108/version/20250301",
          "code": "185463005",
          "display": "Visit out of hours"
        } ]
      } ],
      "subject": {
        "reference": "Patient/cba5a449-1c45-4e11-ae0b-ba3974b410f7"
      },
      "period": {
        "start": "2026-06-08T08:00:00.000+00:00",
        "end": "2026-06-08T08:15:00.000+00:00"
      }
    }
  }, {
    "fullUrl": "https://madie.cms.gov/Encounter/adff6f02-3776-473c-8049-900dcd4849a6",
    "resource": {
      "resourceType": "Encounter",
      "id": "adff6f02-3776-473c-8049-900dcd4849a6",
      "meta": {
        "profile": [ "http://hl7.org/fhir/us/qicore/StructureDefinition/qicore-encounter" ]
      },
      "status": "finished",
      "class": {
        "system": "http://terminology.hl7.org/CodeSystem/v3-ActCode",
        "code": "AMB",
        "display": "ambulatory"
      },
      "type": [ {
        "coding": [ {
          "system": "http://snomed.info/sct",
          "version": "http://snomed.info/sct/731000124108/version/20250301",
          "code": "185316007",
          "display": "Indirect encounter (procedure)"
        } ]
      } ],
      "subject": {
        "reference": "Patient/cba5a449-1c45-4e11-ae0b-ba3974b410f7"
      },
      "period": {
        "start": "2026-07-17T08:00:00.000+00:00",
        "end": "2026-07-17T08:15:00.000+00:00"
      }
    }
  }, {
    "fullUrl": "https://madie.cms.gov/Condition/2e54a0cd-d9d6-4f91-894e-72c8fdfdc7c6",
    "resource": {
      "resourceType": "Condition",
      "id": "2e54a0cd-d9d6-4f91-894e-72c8fdfdc7c6",
      "meta": {
        "profile": [ "http://hl7.org/fhir/us/qicore/StructureDefinition/qicore-condition-problems-health-concerns" ]
      },
      "clinicalStatus": {
        "coding": [ {
          "system": "http://terminology.hl7.org/CodeSystem/condition-clinical",
          "code": "active",
          "display": "active"
        } ]
      },
      "verificationStatus": {
        "coding": [ {
          "system": "http://terminology.hl7.org/CodeSystem/condition-ver-status",
          "code": "confirmed",
          "display": "Confirmed"
        } ]
      },
      "category": [ {
        "coding": [ {
          "system": "http://terminology.hl7.org/CodeSystem/condition-category",
          "code": "problem-list-item",
          "display": "Problem List Item"
        } ]
      } ],
      "code": {
        "coding": [ {
          "system": "http://snomed.info/sct",
          "version": "http://snomed.info/sct/731000124108/version/20250301",
          "code": "10091002",
          "display": "High output heart failure (disorder)"
        } ]
      },
      "subject": {
        "reference": "Patient/cba5a449-1c45-4e11-ae0b-ba3974b410f7"
      },
      "onsetPeriod": {
        "start": "2026-06-08T08:00:00.000+00:00"
      }
    }
  }, {
    "fullUrl": "https://madie.cms.gov/Condition/89ebf38a-3d53-445f-a0f4-41cfd02596da",
    "resource": {
      "resourceType": "Condition",
      "id": "89ebf38a-3d53-445f-a0f4-41cfd02596da",
      "meta": {
        "profile": [ "http://hl7.org/fhir/us/qicore/StructureDefinition/qicore-condition-problems-health-concerns" ]
      },
      "clinicalStatus": {
        "coding": [ {
          "system": "http://terminology.hl7.org/CodeSystem/condition-clinical",
          "code": "active",
          "display": "active"
        } ]
      },
      "verificationStatus": {
        "coding": [ {
          "system": "http://terminology.hl7.org/CodeSystem/condition-ver-status",
          "code": "confirmed",
          "display": "Confirmed"
        } ]
      },
      "category": [ {
        "coding": [ {
          "system": "http://terminology.hl7.org/CodeSystem/condition-category",
          "code": "problem-list-item",
          "display": "Problem List Item"
        } ]
      } ],
      "code": {
        "coding": [ {
          "system": "http://snomed.info/sct",
          "version": "http://snomed.info/sct/731000124108/version/20250301",
          "code": "981000124106",
          "display": "Moderate left ventricular systolic dysfunction (disorder)"
        } ]
      },
      "subject": {
        "reference": "Patient/cba5a449-1c45-4e11-ae0b-ba3974b410f7"
      },
      "onsetPeriod": {
        "start": "2026-05-22T08:00:00.000+00:00"
      }
    }
  }, {
    "fullUrl": "https://madie.cms.gov/MedicationRequest/e8cff8cf-1488-4257-8ec4-61acfff11141",
    "resource": {
      "resourceType": "MedicationRequest",
      "id": "e8cff8cf-1488-4257-8ec4-61acfff11141",
      "meta": {
        "profile": [ "http://hl7.org/fhir/us/qicore/StructureDefinition/qicore-medicationrequest" ]
      },
      "status": "completed",
      "intent": "order",
      "medicationReference": {
        "reference": "Medication/18f4385f-0d2d-47cb-9228-bd92861abb73"
      },
      "subject": {
        "reference": "Patient/cba5a449-1c45-4e11-ae0b-ba3974b410f7"
      },
      "authoredOn": "2026-06-15T08:00:00.000+00:00",
      "requester": {
        "reference": "Practitioner/bdcc671a-c859-46b5-9315-c7a7263b4d7d"
      }
    }
  }, {
    "fullUrl": "https://madie.cms.gov/Practitioner/bdcc671a-c859-46b5-9315-c7a7263b4d7d",
    "resource": {
      "resourceType": "Practitioner",
      "id": "bdcc671a-c859-46b5-9315-c7a7263b4d7d",
      "meta": {
        "profile": [ "http://hl7.org/fhir/us/qicore/StructureDefinition/qicore-practitioner" ]
      },
      "identifier": [ {
        "use": "temp",
        "system": "urn:oid:2.16.840.1.113883.4.336",
        "value": "Practitioner-23"
      } ],
      "active": true,
      "name": [ {
        "family": "Careful",
        "given": [ "Adam" ],
        "prefix": [ "Dr" ]
      } ],
      "address": [ {
        "use": "home",
        "line": [ "534 Erewhon St" ],
        "city": "PleasantVille",
        "state": "UT",
        "postalCode": "84414"
      } ],
      "qualification": [ {
        "identifier": [ {
          "system": "http://goodhealthcare.org/UniversityIdentifier",
          "value": "12345"
        } ],
        "code": {
          "coding": [ {
            "system": "http://terminology.hl7.org/CodeSystem/v2-0360|2.7",
            "code": "BS",
            "display": "Bachelor of Science"
          } ],
          "text": "Bachelor of Science"
        },
        "period": {
          "start": "1996"
        },
        "issuer": {
          "display": "Good Healthcare"
        }
      } ]
    }
  }, {
    "fullUrl": "https://madie.cms.gov/Medication/18f4385f-0d2d-47cb-9228-bd92861abb73",
    "resource": {
      "resourceType": "Medication",
      "id": "18f4385f-0d2d-47cb-9228-bd92861abb73",
      "meta": {
        "profile": [ "http://hl7.org/fhir/us/qicore/StructureDefinition/qicore-medication" ]
      },
      "code": {
        "coding": [ {
          "system": "http://www.nlm.nih.gov/research/umls/rxnorm",
          "version": "06052023",
          "code": "1000001",
          "display": "amlodipine 5 MG / hydrochlorothiazide 25 MG / olmesartan medoxomil 40 MG Oral Tablet"
        } ]
      }
    }
  }, {
    "fullUrl": "https://madie.cms.gov/MeasureReport/ae8c4b99-af76-4577-b66d-b1230ac09aa3",
    "resource": {
      "resourceType": "MeasureReport",
      "id": "ae8c4b99-af76-4577-b66d-b1230ac09aa3",
      "meta": {
        "profile": [ "http://hl7.org/fhir/us/cqfmeasures/StructureDefinition/test-case-cqfm" ]
      },
      "contained": [ {
        "resourceType": "Parameters",
        "id": "62233196-189c-49de-9c44-60f6d1b98b28-parameters",
        "parameter": [ {
          "name": "subject",
          "valueString": "cba5a449-1c45-4e11-ae0b-ba3974b410f7"
        } ]
      } ],
      "extension": [ {
        "url": "http://hl7.org/fhir/StructureDefinition/cqf-inputParameters",
        "valueReference": {
          "reference": "#62233196-189c-49de-9c44-60f6d1b98b28-parameters"
        }
      }, {
        "url": "http://hl7.org/fhir/us/cqfmeasures/StructureDefinition/cqfm-testCaseDescription",
        "valueMarkdown": "Test case fails numerator because the Medication Request for Ace/Arb falls after Heart Failure encounter period"
      } ],
      "modifierExtension": [ {
        "url": "http://hl7.org/fhir/us/cqfmeasures/StructureDefinition/cqfm-isTestCase",
        "valueBoolean": true
      } ],
      "status": "complete",
      "type": "individual",
      "measure": "https://madie.cms.gov/Measure/CMS135FHIRACEIorARBorARNIforHF",
      "period": {
        "start": "2026-01-01",
        "end": "2026-12-31"
      },
      "group": [ {
        "id": "Group_1",
        "population": [ {
          "id": "InitialPopulation_1",
          "code": {
            "coding": [ {
              "system": "http://terminology.hl7.org/CodeSystem/measure-population",
              "code": "initial-population",
              "display": "Initial Population"
            } ]
          },
          "count": 1
        }, {
          "id": "Denominator_1",
          "code": {
            "coding": [ {
              "system": "http://terminology.hl7.org/CodeSystem/measure-population",
              "code": "denominator",
              "display": "Denominator"
            } ]
          },
          "count": 1
        }, {
          "id": "DenominatorExclusion_1",
          "code": {
            "coding": [ {
              "system": "http://terminology.hl7.org/CodeSystem/measure-population",
              "code": "denominator-exclusion",
              "display": "Denominator Exclusion"
            } ]
          },
          "count": 0
        }, {
          "id": "Numerator_1",
          "code": {
            "coding": [ {
              "system": "http://terminology.hl7.org/CodeSystem/measure-population",
              "code": "numerator",
              "display": "Numerator"
            } ]
          },
          "count": 0
        }, {
          "id": "DenominatorException_1",
          "code": {
            "coding": [ {
              "system": "http://terminology.hl7.org/CodeSystem/measure-population",
              "code": "denominator-exception",
              "display": "Denominator Exception"
            } ]
          },
          "count": 0
        } ],
        "measureScore": {
          "value": 1.0
        }
      } ],
      "evaluatedResource": [ {
        "reference": "Patient/cba5a449-1c45-4e11-ae0b-ba3974b410f7"
      }, {
        "reference": "Encounter/69c8006d-27f0-472d-a52b-4002e8cc9664"
      }, {
        "reference": "Encounter/adff6f02-3776-473c-8049-900dcd4849a6"
      }, {
        "reference": "Condition/2e54a0cd-d9d6-4f91-894e-72c8fdfdc7c6"
      }, {
        "reference": "Condition/89ebf38a-3d53-445f-a0f4-41cfd02596da"
      }, {
        "reference": "MedicationRequest/e8cff8cf-1488-4257-8ec4-61acfff11141"
      }, {
        "reference": "Practitioner/bdcc671a-c859-46b5-9315-c7a7263b4d7d"
      }, {
        "reference": "Medication/18f4385f-0d2d-47cb-9228-bd92861abb73"
      } ]
    }
  } ]
}