{
  "resourceType": "Bundle",
  "id": "612e6f7402c62a011f2f1eb0",
  "type": "transaction",
  "entry": [ {
    "fullUrl": "https://madie.cms.gov/Patient/06b5bb95-e5d2-42aa-ab7c-6bfa4ae302c6",
    "resource": {
      "resourceType": "Patient",
      "id": "06b5bb95-e5d2-42aa-ab7c-6bfa4ae302c6",
      "meta": {
        "profile": [ "http://hl7.org/fhir/us/qicore/StructureDefinition/qicore-patient" ]
      },
      "text": {
        "status": "generated",
        "div": "<div xmlns=\"http://www.w3.org/1999/xhtml\"><div class=\"hapiHeaderText\">HipFxEndDayofBFICUAdmTm <b>DENEXPASS </b></div><table class=\"hapiPropertyTable\"><tbody><tr><td>Identifier</td><td>c86bf4d45e0ace80da93806dc6ebb45b</td></tr><tr><td>Date of birth</td><td><span>03 March 1974</span></td></tr></tbody></table></div>"
      },
      "extension": [ {
        "url": "http://hl7.org/fhir/us/core/StructureDefinition/us-core-race",
        "extension": [ {
          "url": "ombCategory",
          "valueCoding": {
            "system": "urn:oid:2.16.840.1.113883.6.238",
            "code": "1002-5",
            "display": "American Indian or Alaska Native",
            "userSelected": true
          }
        }, {
          "url": "text",
          "valueString": "American Indian or Alaska Native"
        } ]
      }, {
        "url": "http://hl7.org/fhir/us/core/StructureDefinition/us-core-ethnicity",
        "extension": [ {
          "url": "ombCategory",
          "valueCoding": {
            "system": "urn:oid:2.16.840.1.113883.6.238",
            "code": "2135-2",
            "display": "Hispanic or Latino",
            "userSelected": true
          }
        }, {
          "url": "text",
          "valueString": "Hispanic or Latino"
        } ]
      } ],
      "identifier": [ {
        "type": {
          "coding": [ {
            "system": "http://terminology.hl7.org/CodeSystem/v2-0203",
            "code": "MR"
          } ]
        },
        "system": "https://bonnie-fhir.healthit.gov/",
        "value": "612e6f7402c62a011f2f1eb0"
      } ],
      "active": true,
      "name": [ {
        "use": "usual",
        "family": "DENEXPass",
        "given": [ "HipFxEndDayofBFICUAdmTm" ]
      } ],
      "gender": "female",
      "birthDate": "1975-03-03"
    },
    "request": {
      "method": "PUT",
      "url": "Patient/06b5bb95-e5d2-42aa-ab7c-6bfa4ae302c6"
    }
  }, {
    "fullUrl": "https://madie.cms.gov/Encounter/c7b8b8a6-6ede-4bd9-afe1-9f988bd74797",
    "resource": {
      "resourceType": "Encounter",
      "id": "c7b8b8a6-6ede-4bd9-afe1-9f988bd74797",
      "meta": {
        "profile": [ "http://hl7.org/fhir/us/qicore/StructureDefinition/qicore-encounter" ]
      },
      "status": "finished",
      "class": {
        "system": "http://terminology.hl7.org/CodeSystem/v3-ActCode",
        "code": "IMP",
        "display": "inpatient encounter"
      },
      "type": [ {
        "coding": [ {
          "system": "http://snomed.info/sct",
          "code": "8715000"
        } ]
      } ],
      "subject": {
        "reference": "Patient/06b5bb95-e5d2-42aa-ab7c-6bfa4ae302c6"
      },
      "period": {
        "start": "2026-12-04T08:00:00.000+00:00",
        "end": "2026-12-30T08:15:00.000+00:00"
      },
      "length": {
        "value": 26,
        "unit": "days"
      },
      "location": [ {
        "location": {
          "reference": "Location/0eb3e08d-5549-4c26-8c56-da627483fe3b"
        },
        "period": {
          "start": "2026-12-06T08:00:00.000+00:00",
          "end": "2026-12-08T08:15:00.000+00:00"
        }
      } ]
    },
    "request": {
      "method": "PUT",
      "url": "Encounter/c7b8b8a6-6ede-4bd9-afe1-9f988bd74797"
    }
  }, {
    "fullUrl": "https://madie.cms.gov/claim/5ca62962b8484628b8de1ec5",
    "resource": {
      "resourceType": "Claim",
      "id": "5ca62962b8484628b8de1ec5",
      "meta": {
        "profile": [ "http://hl7.org/fhir/us/qicore/StructureDefinition/qicore-claim" ]
      },
      "status": "active",
      "type": {
        "coding": [ {
          "system": "http://terminology.hl7.org/CodeSystem/claim-type",
          "code": "institutional"
        } ]
      },
      "use": "claim",
      "patient": {
        "reference": "Patient/06b5bb95-e5d2-42aa-ab7c-6bfa4ae302c6"
      },
      "created": "2026-12-01",
      "provider": {
        "reference": "Practitioner/cc148493-7937-46ba-a481-4741e16a9ce1"
      },
      "priority": {
        "coding": [ {
          "system": "http://terminology.hl7.org/CodeSystem/processpriority",
          "code": "normal"
        } ]
      },
      "procedure": [ {
        "sequence": 1,
        "type": [ {
          "coding": [ {
            "system": "http://terminology.hl7.org/CodeSystem/ex-procedure-type",
            "code": "primary"
          } ]
        } ],
        "procedureCodeableConcept": {
          "coding": [ {
            "system": "http://www.cms.gov/Medicare/Coding/ICD10",
            "code": "0SQ90ZZ"
          } ]
        }
      } ],
      "insurance": [ {
        "sequence": 1,
        "focal": true,
        "coverage": {
          "reference": "Coverage/f9b90031-91c0-4b56-8321-166b5be78ec8"
        }
      } ],
      "item": [ {
        "sequence": 1,
        "procedureSequence": [ 1 ],
        "productOrService": {
          "coding": [ {
            "system": "http://terminology.hl7.org/CodeSystem/ex-USCLS",
            "code": "99555"
          } ]
        },
        "encounter": [ {
          "reference": "Encounter/c7b8b8a6-6ede-4bd9-afe1-9f988bd74797"
        } ]
      } ]
    },
    "request": {
      "method": "PUT",
      "url": "Claim/5ca62962b8484628b8de1ec5"
    }
  }, {
    "fullUrl": "https://madie.cms.gov/Coverage/f9b90031-91c0-4b56-8321-166b5be78ec8",
    "resource": {
      "resourceType": "Coverage",
      "id": "f9b90031-91c0-4b56-8321-166b5be78ec8",
      "status": "active",
      "beneficiary": {
        "reference": "Patient/06b5bb95-e5d2-42aa-ab7c-6bfa4ae302c6"
      },
      "period": {
        "start": "1975-03-03T08:00:00.000+00:00"
      },
      "payor": [ {
        "reference": "Organization/55f03da3-20da-4e1a-9371-e5b7cd15f7ac"
      } ]
    },
    "request": {
      "method": "PUT",
      "url": "Coverage/f9b90031-91c0-4b56-8321-166b5be78ec8"
    }
  }, {
    "fullUrl": "https://madie.cms.gov/Procedure/c98181ff-d45f-4246-94ef-1f58652b4a9b",
    "resource": {
      "resourceType": "Procedure",
      "id": "c98181ff-d45f-4246-94ef-1f58652b4a9b",
      "meta": {
        "profile": [ "http://hl7.org/fhir/us/qicore/StructureDefinition/qicore-procedure" ]
      },
      "extension": [ {
        "url": "http://hl7.org/fhir/us/qicore/StructureDefinition/qicore-recorded",
        "valueDateTime": "2013-12-04T13:35:00.000+00:00"
      } ],
      "status": "completed",
      "code": {
        "coding": [ {
          "system": "http://www.cms.gov/Medicare/Coding/ICD10",
          "code": "0SQ90ZZ"
        } ]
      },
      "subject": {
        "reference": "Patient/06b5bb95-e5d2-42aa-ab7c-6bfa4ae302c6"
      },
      "performedPeriod": {
        "start": "2026-12-06T06:00:00.000+00:00",
        "end": "2026-12-06T07:15:00.000+00:00"
      }
    },
    "request": {
      "method": "PUT",
      "url": "Procedure/c98181ff-d45f-4246-94ef-1f58652b4a9b"
    }
  }, {
    "fullUrl": "https://madie.cms.gov/Location/0eb3e08d-5549-4c26-8c56-da627483fe3b",
    "resource": {
      "resourceType": "Location",
      "id": "0eb3e08d-5549-4c26-8c56-da627483fe3b",
      "meta": {
        "profile": [ "http://hl7.org/fhir/us/qicore/StructureDefinition/qicore-location" ]
      },
      "identifier": [ {
        "use": "usual",
        "system": "http://exampleoflocation.com",
        "value": "B1-S.F2"
      } ],
      "name": "Medical Surgical East, first floor",
      "type": [ {
        "coding": [ {
          "system": "https://www.cdc.gov/nhsn/cdaportal/terminology/codesystem/hsloc.html",
          "code": "1025-6",
          "display": "Trauma Critical Care",
          "userSelected": true
        } ]
      } ]
    },
    "request": {
      "method": "PUT",
      "url": "Location/0eb3e08d-5549-4c26-8c56-da627483fe3b"
    }
  }, {
    "fullUrl": "https://madie.cms.gov/Organization/55f03da3-20da-4e1a-9371-e5b7cd15f7ac",
    "resource": {
      "resourceType": "Organization",
      "id": "55f03da3-20da-4e1a-9371-e5b7cd15f7ac",
      "meta": {
        "profile": [ "http://hl7.org/fhir/us/qicore/StructureDefinition/qicore-organization" ]
      },
      "identifier": [ {
        "use": "temp",
        "system": "urn:oid:2.16.840.1.113883.4.4",
        "value": "21-3259825"
      } ],
      "active": true,
      "type": [ {
        "coding": [ {
          "system": "http://terminology.hl7.org/CodeSystem/organization-type",
          "code": "pay",
          "display": "Payer"
        } ]
      } ],
      "name": "Blue Cross Blue Shield of Texas",
      "telecom": [ {
        "system": "phone",
        "value": "(+1) 972-766-6900"
      } ],
      "address": [ {
        "use": "billing",
        "type": "postal",
        "line": [ "P.O. Box 660044" ],
        "city": "Dallas",
        "state": "TX",
        "postalCode": "75266-0044",
        "country": "USA"
      } ]
    },
    "request": {
      "method": "PUT",
      "url": "Organization/55f03da3-20da-4e1a-9371-e5b7cd15f7ac"
    }
  }, {
    "fullUrl": "https://madie.cms.gov/Practitioner/cc148493-7937-46ba-a481-4741e16a9ce1",
    "resource": {
      "resourceType": "Practitioner",
      "id": "cc148493-7937-46ba-a481-4741e16a9ce1",
      "identifier": [ {
        "system": "http://hl7.org/fhir/sid/us-npi",
        "value": "123456"
      } ],
      "name": [ {
        "family": "Evil",
        "prefix": [ "Dr" ]
      } ]
    },
    "request": {
      "method": "PUT",
      "url": "Practitioner/cc148493-7937-46ba-a481-4741e16a9ce1"
    }
  }, {
    "fullUrl": "https://madie.cms.gov/MeasureReport/23388db3-7cf8-4b0c-8e08-8781217e75b0",
    "resource": {
      "resourceType": "MeasureReport",
      "id": "23388db3-7cf8-4b0c-8e08-8781217e75b0",
      "meta": {
        "profile": [ "http://hl7.org/fhir/us/cqfmeasures/StructureDefinition/test-case-cqfm" ]
      },
      "contained": [ {
        "resourceType": "Parameters",
        "id": "02631163-fcf9-435e-8284-28184f6cc1dd-parameters",
        "parameter": [ {
          "name": "subject",
          "valueString": "06b5bb95-e5d2-42aa-ab7c-6bfa4ae302c6"
        } ]
      } ],
      "extension": [ {
        "url": "http://hl7.org/fhir/StructureDefinition/cqf-inputParameters",
        "valueReference": {
          "reference": "#02631163-fcf9-435e-8284-28184f6cc1dd-parameters"
        }
      }, {
        "url": "http://hl7.org/fhir/us/cqfmeasures/StructureDefinition/cqfm-testCaseDescription",
        "valueMarkdown": "Hip Fx surgery end same calendar Day of start of ICU admission.But the time is before ICU Adm time.The case still passing due to Function of \"CalendarDayOfOrDayAfter\"\n"
      } ],
      "modifierExtension": [ {
        "url": "http://hl7.org/fhir/us/cqfmeasures/StructureDefinition/cqfm-isTestCase",
        "valueBoolean": true
      } ],
      "status": "complete",
      "type": "individual",
      "measure": "https://madie.cms.gov/Measure/CMS190FHIRVTEProphylaxisICU",
      "period": {
        "start": "2026-01-01",
        "end": "2026-12-31"
      },
      "group": [ {
        "id": "Group_1",
        "population": [ {
          "id": "InitialPopulation_1",
          "code": {
            "coding": [ {
              "system": "http://terminology.hl7.org/CodeSystem/measure-population",
              "code": "initial-population",
              "display": "Initial Population"
            } ]
          },
          "count": 1
        }, {
          "id": "Denominator_1",
          "code": {
            "coding": [ {
              "system": "http://terminology.hl7.org/CodeSystem/measure-population",
              "code": "denominator",
              "display": "Denominator"
            } ]
          },
          "count": 1
        }, {
          "id": "DenominatorExclusion_1",
          "code": {
            "coding": [ {
              "system": "http://terminology.hl7.org/CodeSystem/measure-population",
              "code": "denominator-exclusion",
              "display": "Denominator Exclusion"
            } ]
          },
          "count": 1
        }, {
          "id": "Numerator_1",
          "code": {
            "coding": [ {
              "system": "http://terminology.hl7.org/CodeSystem/measure-population",
              "code": "numerator",
              "display": "Numerator"
            } ]
          },
          "count": 0
        }, {
          "id": "DenominatorException_1",
          "code": {
            "coding": [ {
              "system": "http://terminology.hl7.org/CodeSystem/measure-population",
              "code": "denominator-exception",
              "display": "Denominator Exception"
            } ]
          },
          "count": 0
        } ],
        "measureScore": {
          "value": 0.0
        }
      } ],
      "evaluatedResource": [ {
        "reference": "Patient/06b5bb95-e5d2-42aa-ab7c-6bfa4ae302c6"
      }, {
        "reference": "Encounter/c7b8b8a6-6ede-4bd9-afe1-9f988bd74797"
      }, {
        "reference": "Claim/5ca62962b8484628b8de1ec5"
      }, {
        "reference": "Coverage/f9b90031-91c0-4b56-8321-166b5be78ec8"
      }, {
        "reference": "Procedure/c98181ff-d45f-4246-94ef-1f58652b4a9b"
      }, {
        "reference": "Location/0eb3e08d-5549-4c26-8c56-da627483fe3b"
      }, {
        "reference": "Organization/55f03da3-20da-4e1a-9371-e5b7cd15f7ac"
      }, {
        "reference": "Practitioner/cc148493-7937-46ba-a481-4741e16a9ce1"
      } ]
    },
    "request": {
      "method": "PUT",
      "url": "MeasureReport/23388db3-7cf8-4b0c-8e08-8781217e75b0"
    }
  } ]
}