{
  "resourceType": "Bundle",
  "id": "62f660475efef5272905e70d",
  "type": "collection",
  "entry": [ {
    "fullUrl": "https://madie.cms.gov/Patient/6078e73e-3265-4022-ae63-216c096b6246",
    "resource": {
      "resourceType": "Patient",
      "id": "6078e73e-3265-4022-ae63-216c096b6246",
      "meta": {
        "profile": [ "http://hl7.org/fhir/us/qicore/StructureDefinition/qicore-patient" ]
      },
      "extension": [ {
        "url": "http://hl7.org/fhir/us/core/StructureDefinition/us-core-race",
        "extension": [ {
          "url": "ombCategory",
          "valueCoding": {
            "system": "urn:oid:2.16.840.1.113883.6.238",
            "code": "1002-5",
            "display": "American Indian or Alaska Native",
            "userSelected": true
          }
        }, {
          "url": "text",
          "valueString": "American Indian or Alaska Native"
        } ]
      }, {
        "url": "http://hl7.org/fhir/us/core/StructureDefinition/us-core-ethnicity",
        "extension": [ {
          "url": "ombCategory",
          "valueCoding": {
            "system": "urn:oid:2.16.840.1.113883.6.238",
            "code": "2135-2",
            "display": "Hispanic or Latino",
            "userSelected": true
          }
        }, {
          "url": "text",
          "valueString": "Hispanic or Latino"
        } ]
      }, {
        "url": "http://hl7.org/fhir/us/core/StructureDefinition/us-core-sex",
        "valueCode": "248153007"
      } ],
      "identifier": [ {
        "type": {
          "coding": [ {
            "system": "http://terminology.hl7.org/CodeSystem/v2-0203",
            "code": "MR"
          } ]
        },
        "system": "https://bonnie-fhir.healthit.gov/",
        "value": "62f660475efef5272905e70d"
      } ],
      "name": [ {
        "family": "DENEXCEPPass",
        "given": [ "AdolescentPatientReasonForNoDepressionScreenAge12" ]
      } ],
      "gender": "male",
      "birthDate": "2013-12-31"
    }
  }, {
    "fullUrl": "https://madie.cms.gov/Encounter/5486d87f-38dc-4519-a266-8977bce4e5c8",
    "resource": {
      "resourceType": "Encounter",
      "id": "5486d87f-38dc-4519-a266-8977bce4e5c8",
      "meta": {
        "profile": [ "http://hl7.org/fhir/us/qicore/StructureDefinition/qicore-encounter" ]
      },
      "status": "finished",
      "class": {
        "system": "http://terminology.hl7.org/CodeSystem/v3-ActCode",
        "code": "AMB",
        "display": "ambulatory"
      },
      "type": [ {
        "coding": [ {
          "system": "http://snomed.info/sct",
          "code": "10197000",
          "display": "Psychiatric interview and evaluation (procedure)",
          "userSelected": true
        } ]
      } ],
      "subject": {
        "reference": "Patient/6078e73e-3265-4022-ae63-216c096b6246"
      },
      "period": {
        "start": "2026-01-01T08:00:00.000Z",
        "end": "2026-01-01T08:15:00.000Z"
      }
    }
  }, {
    "fullUrl": "https://madie.cms.gov/Coverage/f464490f-5cc9-4b35-a1f9-92cdec5fca22",
    "resource": {
      "resourceType": "Coverage",
      "id": "f464490f-5cc9-4b35-a1f9-92cdec5fca22",
      "meta": {
        "profile": [ "http://hl7.org/fhir/us/qicore/StructureDefinition/qicore-coverage" ]
      },
      "status": "active",
      "type": {
        "coding": [ {
          "system": "https://nahdo.org/sopt",
          "code": "113",
          "display": "Medicare POS",
          "userSelected": true
        } ]
      },
      "subscriberId": "123456789",
      "beneficiary": {
        "reference": "Patient/6078e73e-3265-4022-ae63-216c096b6246"
      },
      "relationship": {
        "coding": [ {
          "system": "http://terminology.hl7.org/CodeSystem/subscriber-relationship",
          "code": "self",
          "display": "Self",
          "userSelected": true
        } ]
      },
      "period": {
        "start": "2021-01-01T08:00:00.000Z",
        "end": "2026-01-01T08:15:00.000Z"
      },
      "payor": [ {
        "reference": "Organization/523cb9fd-8a98-4f49-b6ff-719217de53ed"
      } ]
    }
  }, {
    "fullUrl": "https://madie.cms.gov/Organization/18751372-c862-4f11-a27a-4d088df3f0c5",
    "resource": {
      "resourceType": "Organization",
      "id": "18751372-c862-4f11-a27a-4d088df3f0c5",
      "meta": {
        "profile": [ "http://hl7.org/fhir/us/qicore/StructureDefinition/qicore-organization" ]
      },
      "identifier": [ {
        "use": "temp",
        "system": "urn:oid:2.16.840.1.113883.4.4",
        "value": "21-3259825"
      } ],
      "active": true,
      "type": [ {
        "coding": [ {
          "system": "http://terminology.hl7.org/CodeSystem/organization-type",
          "code": "pay",
          "display": "Payer"
        } ]
      } ],
      "name": "Blue Cross Blue Shield of Texas",
      "telecom": [ {
        "system": "phone",
        "value": "(+1) 972-766-6900"
      } ],
      "address": [ {
        "use": "billing",
        "type": "postal",
        "line": [ "P.O. Box 660044" ],
        "city": "Dallas",
        "state": "TX",
        "postalCode": "75266-0044",
        "country": "USA"
      } ]
    }
  }, {
    "fullUrl": "https://madie.cms.gov/Observation/cd4be9f9-8771-4c4e-81cf-69063a9fbe6a",
    "resource": {
      "resourceType": "Observation",
      "id": "cd4be9f9-8771-4c4e-81cf-69063a9fbe6a",
      "meta": {
        "profile": [ "http://hl7.org/fhir/us/qicore/StructureDefinition/qicore-observationcancelled" ]
      },
      "extension": [ {
        "url": "http://hl7.org/fhir/us/qicore/StructureDefinition/qicore-notDoneReason",
        "valueCodeableConcept": {
          "coding": [ {
            "system": "http://snomed.info/sct",
            "code": "720834000",
            "display": "Depression screening declined (situation)",
            "userSelected": true
          } ]
        }
      } ],
      "status": "cancelled",
      "category": [ {
        "coding": [ {
          "system": "http://terminology.hl7.org/CodeSystem/observation-category",
          "code": "procedure",
          "display": "Procedure"
        } ]
      } ],
      "code": {
        "coding": [ {
          "system": "http://loinc.org",
          "code": "73831-0",
          "display": "Adolescent depression screening assessment",
          "userSelected": true
        } ]
      },
      "subject": {
        "reference": "Patient/6078e73e-3265-4022-ae63-216c096b6246"
      },
      "issued": "2026-01-01T08:01:00.000Z",
      "valueBoolean": true
    }
  }, {
    "fullUrl": "https://madie.cms.gov/MeasureReport/dfcfbb31-9da9-4947-8444-53a25c8b8121",
    "resource": {
      "resourceType": "MeasureReport",
      "id": "dfcfbb31-9da9-4947-8444-53a25c8b8121",
      "meta": {
        "profile": [ "http://hl7.org/fhir/us/cqfmeasures/StructureDefinition/test-case-cqfm" ]
      },
      "contained": [ {
        "resourceType": "Parameters",
        "id": "6822f4e7-712b-4ca9-9bc0-b569bba21fdc-parameters",
        "parameter": [ {
          "name": "subject",
          "valueString": "6078e73e-3265-4022-ae63-216c096b6246"
        } ]
      } ],
      "extension": [ {
        "url": "http://hl7.org/fhir/StructureDefinition/cqf-inputParameters",
        "valueReference": {
          "reference": "#6822f4e7-712b-4ca9-9bc0-b569bba21fdc-parameters"
        }
      }, {
        "url": "http://hl7.org/fhir/us/cqfmeasures/StructureDefinition/cqfm-testCaseDescription",
        "valueMarkdown": "12 yo male with patient reason for not screening for depression - 12 on first day MP."
      } ],
      "modifierExtension": [ {
        "url": "http://hl7.org/fhir/us/cqfmeasures/StructureDefinition/cqfm-isTestCase",
        "valueBoolean": true
      } ],
      "status": "complete",
      "type": "individual",
      "measure": "https://madie.cms.gov/Measure/CMS2FHIRPCSDepScreenAndFollowUp",
      "period": {
        "start": "2026-01-01",
        "end": "2026-12-31"
      },
      "group": [ {
        "id": "Group_1",
        "population": [ {
          "id": "InitialPopulation_1",
          "code": {
            "coding": [ {
              "system": "http://terminology.hl7.org/CodeSystem/measure-population",
              "code": "initial-population",
              "display": "Initial Population"
            } ]
          },
          "count": 1
        }, {
          "id": "Denominator_1",
          "code": {
            "coding": [ {
              "system": "http://terminology.hl7.org/CodeSystem/measure-population",
              "code": "denominator",
              "display": "Denominator"
            } ]
          },
          "count": 1
        }, {
          "id": "DenominatorExclusion_1",
          "code": {
            "coding": [ {
              "system": "http://terminology.hl7.org/CodeSystem/measure-population",
              "code": "denominator-exclusion",
              "display": "Denominator Exclusion"
            } ]
          },
          "count": 0
        }, {
          "id": "Numerator_1",
          "code": {
            "coding": [ {
              "system": "http://terminology.hl7.org/CodeSystem/measure-population",
              "code": "numerator",
              "display": "Numerator"
            } ]
          },
          "count": 0
        }, {
          "id": "DenominatorException_1",
          "code": {
            "coding": [ {
              "system": "http://terminology.hl7.org/CodeSystem/measure-population",
              "code": "denominator-exception",
              "display": "Denominator Exception"
            } ]
          },
          "count": 1
        } ],
        "measureScore": {
          "value": 1.0
        }
      } ],
      "evaluatedResource": [ {
        "reference": "Patient/6078e73e-3265-4022-ae63-216c096b6246"
      }, {
        "reference": "Encounter/5486d87f-38dc-4519-a266-8977bce4e5c8"
      }, {
        "reference": "Coverage/f464490f-5cc9-4b35-a1f9-92cdec5fca22"
      }, {
        "reference": "Organization/18751372-c862-4f11-a27a-4d088df3f0c5"
      }, {
        "reference": "Observation/cd4be9f9-8771-4c4e-81cf-69063a9fbe6a"
      } ]
    }
  } ]
}