{
  "resourceType": "Bundle",
  "id": "6109650598086b538055a0fe",
  "type": "transaction",
  "entry": [ {
    "fullUrl": "https://madie.cms.gov/Patient/b46f442c-e46e-488d-8c80-1f91492c759b",
    "resource": {
      "resourceType": "Patient",
      "id": "b46f442c-e46e-488d-8c80-1f91492c759b",
      "meta": {
        "profile": [ "http://hl7.org/fhir/us/qicore/StructureDefinition/qicore-patient" ]
      },
      "text": {
        "status": "generated",
        "div": "<div xmlns=\"http://www.w3.org/1999/xhtml\"><div class=\"hapiHeaderText\">PtCorAgeDepDxInOVEnc <b>DENOMPASS </b></div><table class=\"hapiPropertyTable\"><tbody><tr><td>Identifier</td><td>8bd8d45d92ff2bbf257cc266fc1c9dbb</td></tr><tr><td>Date of birth</td><td><span>02 January 2005</span></td></tr></tbody></table></div>"
      },
      "extension": [ {
        "url": "http://hl7.org/fhir/us/core/StructureDefinition/us-core-race",
        "extension": [ {
          "url": "http://hl7.org/fhir/us/core/StructureDefinition/us-core-sex",
          "valueCode": "248153007"
        }, {
          "url": "ombCategory",
          "valueCoding": {
            "system": "urn:oid:2.16.840.1.113883.6.238",
            "code": "1002-5",
            "display": "American Indian or Alaska Native",
            "userSelected": true
          }
        }, {
          "url": "detailed",
          "valueCoding": {
            "system": "urn:oid:2.16.840.1.113883.6.238",
            "code": "1586-7",
            "display": "Shoshone"
          }
        }, {
          "url": "text",
          "valueString": "American Indian or Alaska Native"
        } ]
      }, {
        "url": "http://hl7.org/fhir/us/core/StructureDefinition/us-core-ethnicity",
        "extension": [ {
          "url": "ombCategory",
          "valueCoding": {
            "system": "urn:oid:2.16.840.1.113883.6.238",
            "code": "2186-5",
            "display": "Not Hispanic or Latino",
            "userSelected": true
          }
        }, {
          "url": "detailed",
          "valueCoding": {
            "system": "urn:oid:2.16.840.1.113883.6.238",
            "code": "2148-5",
            "display": "Mexican"
          }
        }, {
          "url": "text",
          "valueString": "Not Hispanic or Latino"
        } ]
      }, {
        "url": "detailed",
        "valueCoding": {
          "system": "urn:oid:2.16.840.1.113883.6.238",
          "code": "2184-0",
          "display": "Dominican"
        }
      }, {
        "url": "http://hl7.org/fhir/us/core/StructureDefinition/us-core-sex",
        "valueCode": "248153007"
      } ],
      "identifier": [ {
        "type": {
          "coding": [ {
            "system": "http://terminology.hl7.org/CodeSystem/v2-0203",
            "code": "MR"
          } ]
        },
        "system": "https://bonnie-fhir.healthit.gov/",
        "value": "6109650598086b538055a0fe"
      } ],
      "active": true,
      "name": [ {
        "use": "usual",
        "family": "IPPass",
        "given": [ "MDDDxInOPEnc" ]
      } ],
      "gender": "female",
      "birthDate": "2018-01-02"
    },
    "request": {
      "method": "PUT",
      "url": "Patient/b46f442c-e46e-488d-8c80-1f91492c759b"
    }
  }, {
    "fullUrl": "https://madie.cms.gov/Encounter/f28e9532-92f4-4327-a995-70e2f5d87789",
    "resource": {
      "resourceType": "Encounter",
      "id": "f28e9532-92f4-4327-a995-70e2f5d87789",
      "meta": {
        "profile": [ "http://hl7.org/fhir/us/qicore/StructureDefinition/qicore-encounter" ]
      },
      "status": "finished",
      "class": {
        "system": "http://terminology.hl7.org/CodeSystem/v3-ActCode",
        "code": "AMB",
        "display": "ambulatory",
        "userSelected": true
      },
      "type": [ {
        "coding": [ {
          "system": "http://snomed.info/sct",
          "code": "281036007"
        } ]
      } ],
      "subject": {
        "reference": "Patient/b46f442c-e46e-488d-8c80-1f91492c759b"
      },
      "period": {
        "start": "2026-02-11T08:00:00.000+00:00",
        "end": "2026-02-11T08:30:00.000+00:00"
      },
      "reasonCode": [ {
        "coding": [ {
          "system": "http://snomed.info/sct",
          "version": "2023-09",
          "code": "191610000",
          "display": "Recurrent major depressive episodes, mild (disorder)",
          "userSelected": true
        } ]
      } ],
      "diagnosis": [ {
        "condition": {
          "reference": "Condition/14255fa2-6189-441e-bd91-8966277fdec1"
        },
        "use": {
          "coding": [ {
            "system": "http://hl7.org/fhir/sid/icd-10-cm",
            "code": "F32.89",
            "display": "Other specified depressive episodes"
          } ]
        }
      } ]
    },
    "request": {
      "method": "PUT",
      "url": "Encounter/f28e9532-92f4-4327-a995-70e2f5d87789"
    }
  }, {
    "fullUrl": "https://madie.cms.gov/Condition/14255fa2-6189-441e-bd91-8966277fdec1",
    "resource": {
      "resourceType": "Condition",
      "id": "14255fa2-6189-441e-bd91-8966277fdec1",
      "meta": {
        "profile": [ "http://hl7.org/fhir/us/qicore/StructureDefinition/qicore-condition" ]
      },
      "clinicalStatus": {
        "coding": [ {
          "system": "http://terminology.hl7.org/CodeSystem/condition-clinical",
          "code": "active",
          "display": "Active",
          "userSelected": true
        } ]
      },
      "verificationStatus": {
        "coding": [ {
          "system": "http://terminology.hl7.org/CodeSystem/condition-ver-status",
          "code": "confirmed",
          "display": "Confirmed",
          "userSelected": true
        } ]
      },
      "category": [ {
        "coding": [ {
          "system": "http://terminology.hl7.org/CodeSystem/condition-category",
          "code": "encounter-diagnosis",
          "display": "Encounter Diagnosis",
          "userSelected": true
        } ]
      } ],
      "code": {
        "coding": [ {
          "system": "http://hl7.org/fhir/sid/icd-10-cm",
          "code": "F32.89",
          "display": "Other specified depressive episodes",
          "userSelected": true
        } ]
      },
      "subject": {
        "reference": "Patient/b46f442c-e46e-488d-8c80-1f91492c759b"
      },
      "onsetDateTime": "2026-02-11T08:00:00.000+00:00",
      "recordedDate": "2026-02-11T08:00:00.000+00:00"
    },
    "request": {
      "method": "PUT",
      "url": "Condition/14255fa2-6189-441e-bd91-8966277fdec1"
    }
  }, {
    "fullUrl": "https://madie.cms.gov/Coverage/6672a6bb-0165-47e7-a4ce-f52a4fd3a8ce",
    "resource": {
      "resourceType": "Coverage",
      "id": "6672a6bb-0165-47e7-a4ce-f52a4fd3a8ce",
      "meta": {
        "profile": [ "http://hl7.org/fhir/us/qicore/StructureDefinition/qicore-coverage" ]
      },
      "status": "active",
      "type": {
        "coding": [ {
          "system": "https://nahdo.org/sopt",
          "version": "9.2",
          "code": "1",
          "display": "MEDICARE",
          "userSelected": true
        } ]
      },
      "beneficiary": {
        "reference": "Patient/b46f442c-e46e-488d-8c80-1f91492c759b"
      },
      "period": {
        "start": "2026-01-29T08:00:00.000+00:00",
        "end": "2026-09-29T08:15:00.000+00:00"
      },
      "payor": [ {
        "reference": "Organization/9ab7969c-86f3-4cf9-8c5f-627c200bf882"
      } ]
    },
    "request": {
      "method": "PUT",
      "url": "Coverage/6672a6bb-0165-47e7-a4ce-f52a4fd3a8ce"
    }
  }, {
    "fullUrl": "https://madie.cms.gov/Organization/9ab7969c-86f3-4cf9-8c5f-627c200bf882",
    "resource": {
      "resourceType": "Organization",
      "id": "9ab7969c-86f3-4cf9-8c5f-627c200bf882",
      "meta": {
        "profile": [ "http://hl7.org/fhir/us/qicore/StructureDefinition/qicore-organization" ]
      },
      "identifier": [ {
        "use": "temp",
        "system": "urn:oid:2.16.840.1.113883.4.4",
        "value": "21-3259825"
      } ],
      "active": true,
      "type": [ {
        "coding": [ {
          "system": "http://terminology.hl7.org/CodeSystem/organization-type",
          "code": "pay",
          "display": "Payer"
        } ]
      } ],
      "name": "Blue Cross Blue Shield of Texas",
      "telecom": [ {
        "system": "phone",
        "value": "(+1) 972-766-6900"
      } ],
      "address": [ {
        "use": "billing",
        "type": "postal",
        "line": [ "P.O. Box 660044" ],
        "city": "Dallas",
        "state": "TX",
        "postalCode": "75266-0044",
        "country": "USA"
      } ]
    },
    "request": {
      "method": "PUT",
      "url": "Organization/9ab7969c-86f3-4cf9-8c5f-627c200bf882"
    }
  }, {
    "fullUrl": "https://madie.cms.gov/Practitioner/d7d8a11f-187b-4dba-8d04-61ebe2ce3459",
    "resource": {
      "resourceType": "Practitioner",
      "id": "d7d8a11f-187b-4dba-8d04-61ebe2ce3459",
      "meta": {
        "profile": [ "http://hl7.org/fhir/us/qicore/StructureDefinition/qicore-practitioner" ]
      },
      "identifier": [ {
        "system": "http://hl7.org/fhir/sid/us-npi",
        "value": "1467472159"
      } ],
      "name": [ {
        "family": "Evil",
        "prefix": [ "Dr" ]
      } ]
    },
    "request": {
      "method": "PUT",
      "url": "Practitioner/d7d8a11f-187b-4dba-8d04-61ebe2ce3459"
    }
  }, {
    "fullUrl": "https://madie.cms.gov/MeasureReport/60b08842-f434-4880-8b97-951b97e22046",
    "resource": {
      "resourceType": "MeasureReport",
      "id": "60b08842-f434-4880-8b97-951b97e22046",
      "meta": {
        "profile": [ "http://hl7.org/fhir/us/cqfmeasures/StructureDefinition/test-case-cqfm" ]
      },
      "contained": [ {
        "resourceType": "Parameters",
        "id": "53068595-b735-49a6-9395-c1ea2d68b5ca-parameters",
        "parameter": [ {
          "name": "subject",
          "valueString": "b46f442c-e46e-488d-8c80-1f91492c759b"
        } ]
      } ],
      "extension": [ {
        "url": "http://hl7.org/fhir/StructureDefinition/cqf-inputParameters",
        "valueReference": {
          "reference": "#53068595-b735-49a6-9395-c1ea2d68b5ca-parameters"
        }
      }, {
        "url": "http://hl7.org/fhir/us/cqfmeasures/StructureDefinition/cqfm-testCaseDescription",
        "valueMarkdown": "Patient completed Outpatient Consultation with Major Depressive Disorder diagnosis during the MP"
      } ],
      "modifierExtension": [ {
        "url": "http://hl7.org/fhir/us/cqfmeasures/StructureDefinition/cqfm-isTestCase",
        "valueBoolean": true
      } ],
      "status": "complete",
      "type": "individual",
      "measure": "https://madie.cms.gov/Measure/CMS177FHIRChildMDDSuicideAssmt",
      "period": {
        "start": "2026-01-01",
        "end": "2026-12-31"
      },
      "group": [ {
        "id": "Group_1",
        "population": [ {
          "id": "InitialPopulation_1",
          "code": {
            "coding": [ {
              "system": "http://terminology.hl7.org/CodeSystem/measure-population",
              "code": "initial-population",
              "display": "Initial Population"
            } ]
          },
          "count": 1
        }, {
          "id": "Denominator_1",
          "code": {
            "coding": [ {
              "system": "http://terminology.hl7.org/CodeSystem/measure-population",
              "code": "denominator",
              "display": "Denominator"
            } ]
          },
          "count": 1
        }, {
          "id": "Numerator_1",
          "code": {
            "coding": [ {
              "system": "http://terminology.hl7.org/CodeSystem/measure-population",
              "code": "numerator",
              "display": "Numerator"
            } ]
          },
          "count": 0
        } ],
        "measureScore": {
          "value": 0.0
        }
      } ],
      "evaluatedResource": [ {
        "reference": "Patient/b46f442c-e46e-488d-8c80-1f91492c759b"
      }, {
        "reference": "Encounter/f28e9532-92f4-4327-a995-70e2f5d87789"
      }, {
        "reference": "Condition/14255fa2-6189-441e-bd91-8966277fdec1"
      }, {
        "reference": "Coverage/6672a6bb-0165-47e7-a4ce-f52a4fd3a8ce"
      }, {
        "reference": "Organization/9ab7969c-86f3-4cf9-8c5f-627c200bf882"
      }, {
        "reference": "Practitioner/d7d8a11f-187b-4dba-8d04-61ebe2ce3459"
      } ]
    },
    "request": {
      "method": "PUT",
      "url": "MeasureReport/60b08842-f434-4880-8b97-951b97e22046"
    }
  } ]
}