{
  "resourceType": "Bundle",
  "id": "tests-DENOMPass-EncWithDiabetesHealthConcern-bundle",
  "type": "transaction",
  "entry": [ {
    "fullUrl": "https://madie.cms.gov/Condition/aad1c1f4-e91b-4229-8da4-11d93195939d",
    "resource": {
      "resourceType": "Condition",
      "id": "aad1c1f4-e91b-4229-8da4-11d93195939d",
      "meta": {
        "profile": [ "http://hl7.org/fhir/us/qicore/StructureDefinition/qicore-condition-problems-health-concerns" ]
      },
      "clinicalStatus": {
        "coding": [ {
          "system": "http://terminology.hl7.org/CodeSystem/condition-clinical",
          "code": "active"
        } ]
      },
      "verificationStatus": {
        "coding": [ {
          "system": "http://terminology.hl7.org/CodeSystem/condition-ver-status",
          "code": "confirmed",
          "display": "Confirmed"
        } ]
      },
      "category": [ {
        "coding": [ {
          "system": "http://terminology.hl7.org/CodeSystem/condition-category",
          "code": "encounter-diagnosis",
          "display": "Encounter Diagnosis"
        } ]
      } ],
      "code": {
        "coding": [ {
          "system": "http://hl7.org/fhir/sid/icd-10-cm",
          "version": "2024",
          "code": "E10.21",
          "display": "Type 1 diabetes mellitus with diabetic nephropathy"
        } ]
      },
      "subject": {
        "reference": "Patient/cb54c026-6ec9-4db5-b8ac-7cb713138ca8"
      },
      "onsetDateTime": "2011-01-02"
    },
    "request": {
      "method": "PUT",
      "url": "Condition/aad1c1f4-e91b-4229-8da4-11d93195939d"
    }
  }, {
    "fullUrl": "https://madie.cms.gov/Patient/cb54c026-6ec9-4db5-b8ac-7cb713138ca8",
    "resource": {
      "resourceType": "Patient",
      "id": "cb54c026-6ec9-4db5-b8ac-7cb713138ca8",
      "meta": {
        "profile": [ "http://hl7.org/fhir/us/qicore/StructureDefinition/qicore-patient" ]
      },
      "extension": [ {
        "url": "http://hl7.org/fhir/us/core/StructureDefinition/us-core-race",
        "extension": [ {
          "url": "ombCategory",
          "valueCoding": {
            "system": "urn:oid:2.16.840.1.113883.6.238",
            "code": "2106-3",
            "display": "White"
          }
        }, {
          "url": "text",
          "valueString": "White"
        } ]
      }, {
        "url": "http://hl7.org/fhir/us/core/StructureDefinition/us-core-ethnicity",
        "extension": [ {
          "url": "ombCategory",
          "valueCoding": {
            "system": "urn:oid:2.16.840.1.113883.6.238",
            "code": "2135-2",
            "display": "Hispanic or Latino"
          }
        }, {
          "url": "text",
          "valueString": "Hispanic or Latino"
        } ]
      } ],
      "identifier": [ {
        "system": "http://hospital.smarthealthit.org",
        "value": "999999999"
      } ],
      "name": [ {
        "family": "Example",
        "given": [ "Patient" ]
      } ],
      "gender": "other",
      "birthDate": "1956-01-01"
    },
    "request": {
      "method": "PUT",
      "url": "Patient/cb54c026-6ec9-4db5-b8ac-7cb713138ca8"
    }
  }, {
    "fullUrl": "https://madie.cms.gov/Encounter/afac3bc6-64bd-4d20-8140-79c4a91fee65",
    "resource": {
      "resourceType": "Encounter",
      "id": "afac3bc6-64bd-4d20-8140-79c4a91fee65",
      "meta": {
        "profile": [ "http://hl7.org/fhir/us/qicore/StructureDefinition/qicore-encounter" ]
      },
      "status": "finished",
      "class": {
        "system": "http://terminology.hl7.org/CodeSystem/v3-ActCode",
        "code": "IMP",
        "display": "inpatient encounter"
      },
      "type": [ {
        "coding": [ {
          "system": "http://snomed.info/sct",
          "code": "183452005"
        } ]
      } ],
      "subject": {
        "reference": "Patient/cb54c026-6ec9-4db5-b8ac-7cb713138ca8"
      },
      "period": {
        "start": "2026-04-07T08:00:00.000Z",
        "end": "2026-04-12T08:15:00.000Z"
      },
      "reasonReference": [ {
        "reference": "Condition/aad1c1f4-e91b-4229-8da4-11d93195939d"
      } ]
    },
    "request": {
      "method": "PUT",
      "url": "Encounter/afac3bc6-64bd-4d20-8140-79c4a91fee65"
    }
  }, {
    "fullUrl": "https://madie.cms.gov/MeasureReport/e5b2180c-cc9f-4942-acf3-0f53caf9e904",
    "resource": {
      "resourceType": "MeasureReport",
      "id": "e5b2180c-cc9f-4942-acf3-0f53caf9e904",
      "meta": {
        "profile": [ "http://hl7.org/fhir/us/cqfmeasures/StructureDefinition/test-case-cqfm" ]
      },
      "contained": [ {
        "resourceType": "Parameters",
        "id": "16644850-84ec-4a4b-9482-cdaa32622d98-parameters",
        "parameter": [ {
          "name": "subject",
          "valueString": "cb54c026-6ec9-4db5-b8ac-7cb713138ca8"
        } ]
      } ],
      "extension": [ {
        "url": "http://hl7.org/fhir/StructureDefinition/cqf-inputParameters",
        "valueReference": {
          "reference": "#16644850-84ec-4a4b-9482-cdaa32622d98-parameters"
        }
      }, {
        "url": "http://hl7.org/fhir/us/cqfmeasures/StructureDefinition/cqfm-testCaseDescription",
        "valueMarkdown": "Encounter with Diabetes Health Concern condition. Satisfies Denominator"
      } ],
      "modifierExtension": [ {
        "url": "http://hl7.org/fhir/us/cqfmeasures/StructureDefinition/cqfm-isTestCase",
        "valueBoolean": true
      } ],
      "status": "complete",
      "type": "individual",
      "measure": "https://madie.cms.gov/Measure/CMS871FHIRHHHyper",
      "period": {
        "start": "2026-01-01",
        "end": "2026-12-31"
      },
      "group": [ {
        "id": "Group_1",
        "population": [ {
          "id": "InitialPopulation_1",
          "code": {
            "coding": [ {
              "system": "http://terminology.hl7.org/CodeSystem/measure-population",
              "code": "initial-population",
              "display": "Initial Population"
            } ]
          },
          "count": 1
        }, {
          "id": "Denominator_1",
          "code": {
            "coding": [ {
              "system": "http://terminology.hl7.org/CodeSystem/measure-population",
              "code": "denominator",
              "display": "Denominator"
            } ]
          },
          "count": 1
        }, {
          "id": "DenominatorExclusion_1",
          "code": {
            "coding": [ {
              "system": "http://terminology.hl7.org/CodeSystem/measure-population",
              "code": "denominator-exclusion",
              "display": "Denominator Exclusion"
            } ]
          },
          "count": 0
        }, {
          "id": "Numerator_1",
          "code": {
            "coding": [ {
              "system": "http://terminology.hl7.org/CodeSystem/measure-population",
              "code": "numerator",
              "display": "Numerator"
            } ]
          },
          "count": 0
        }, {
          "id": "NumeratorExclusion_1",
          "code": {
            "coding": [ {
              "system": "http://terminology.hl7.org/CodeSystem/measure-population",
              "code": "numerator-exclusion",
              "display": "Numerator Exclusion"
            } ]
          },
          "count": 0
        }, {
          "id": "MeasureObservation_1_1_1",
          "code": {
            "coding": [ {
              "system": "http://terminology.hl7.org/CodeSystem/measure-population",
              "code": "measure-observation",
              "display": "Measure Observation"
            } ]
          },
          "count": 4
        } ],
        "measureScore": {
          "value": 0.0
        }
      } ],
      "evaluatedResource": [ {
        "reference": "Condition/aad1c1f4-e91b-4229-8da4-11d93195939d"
      }, {
        "reference": "Patient/cb54c026-6ec9-4db5-b8ac-7cb713138ca8"
      }, {
        "reference": "Encounter/afac3bc6-64bd-4d20-8140-79c4a91fee65"
      } ]
    },
    "request": {
      "method": "PUT",
      "url": "MeasureReport/e5b2180c-cc9f-4942-acf3-0f53caf9e904"
    }
  } ]
}