{
  "resourceType": "Bundle",
  "id": "NUMERPass-SBP139DBP89DuringMP",
  "type": "transaction",
  "entry": [ {
    "fullUrl": "https://madie.cms.gov/Patient/f2d1fd7e-35ae-45cd-86e6-8b874c3e3fb9",
    "resource": {
      "resourceType": "Patient",
      "id": "f2d1fd7e-35ae-45cd-86e6-8b874c3e3fb9",
      "meta": {
        "profile": [ "http://hl7.org/fhir/us/qicore/StructureDefinition/qicore-patient" ]
      },
      "extension": [ {
        "url": "http://hl7.org/fhir/us/core/StructureDefinition/us-core-race",
        "extension": [ {
          "url": "ombCategory",
          "valueCoding": {
            "system": "urn:oid:2.16.840.1.113883.6.238",
            "code": "2028-9",
            "display": "Asian"
          }
        }, {
          "url": "text",
          "valueString": "Asian"
        } ]
      }, {
        "url": "http://hl7.org/fhir/us/core/StructureDefinition/us-core-ethnicity",
        "extension": [ {
          "url": "ombCategory",
          "valueCoding": {
            "system": "urn:oid:2.16.840.1.113883.6.238",
            "code": "2135-2",
            "display": "Hispanic or Latino"
          }
        }, {
          "url": "text",
          "valueString": "Hispanic or Latino"
        } ]
      } ],
      "identifier": [ {
        "system": "http://hospital.smarthealthit.org",
        "value": "999999995"
      } ],
      "name": [ {
        "family": "NUMERPass",
        "given": [ "SBP139DBP89DuringMP" ]
      } ],
      "gender": "female",
      "birthDate": "2007-12-31"
    },
    "request": {
      "method": "PUT",
      "url": "Patient/f2d1fd7e-35ae-45cd-86e6-8b874c3e3fb9"
    }
  }, {
    "fullUrl": "https://madie.cms.gov/Encounter/cba802f0-c4c2-42a9-b431-5ca97dbfe0c2",
    "resource": {
      "resourceType": "Encounter",
      "id": "cba802f0-c4c2-42a9-b431-5ca97dbfe0c2",
      "meta": {
        "profile": [ "http://hl7.org/fhir/us/qicore/StructureDefinition/qicore-encounter" ]
      },
      "status": "finished",
      "class": {
        "system": "http://terminology.hl7.org/CodeSystem/v3-ActCode",
        "code": "AMB",
        "display": "ambulatory"
      },
      "type": [ {
        "coding": [ {
          "system": "http://snomed.info/sct",
          "code": "3391000175108",
          "display": "Office visit for pediatric care and assessment (procedure)"
        } ]
      } ],
      "subject": {
        "reference": "Patient/f2d1fd7e-35ae-45cd-86e6-8b874c3e3fb9"
      },
      "period": {
        "start": "2026-01-01T00:00:00.000+00:00",
        "end": "2026-01-01T01:00:00.000+00:00"
      }
    },
    "request": {
      "method": "PUT",
      "url": "Encounter/cba802f0-c4c2-42a9-b431-5ca97dbfe0c2"
    }
  }, {
    "fullUrl": "https://madie.cms.gov/Condition/ac3f90c0-2c8e-4117-89c6-27a8b85ced96",
    "resource": {
      "resourceType": "Condition",
      "id": "ac3f90c0-2c8e-4117-89c6-27a8b85ced96",
      "meta": {
        "profile": [ "http://hl7.org/fhir/us/qicore/StructureDefinition/qicore-condition-encounter-diagnosis" ]
      },
      "clinicalStatus": {
        "coding": [ {
          "system": "http://terminology.hl7.org/CodeSystem/condition-clinical",
          "code": "active"
        } ]
      },
      "category": [ {
        "coding": [ {
          "system": "http://terminology.hl7.org/CodeSystem/condition-category",
          "code": "encounter-diagnosis",
          "display": "Encounter Diagnosis"
        } ]
      } ],
      "code": {
        "coding": [ {
          "system": "http://snomed.info/sct",
          "code": "371125006",
          "display": "Labile essential hypertension (disorder)"
        } ]
      },
      "subject": {
        "reference": "Patient/f2d1fd7e-35ae-45cd-86e6-8b874c3e3fb9"
      },
      "onsetDateTime": "2026-06-29T23:59:59.000+00:00"
    },
    "request": {
      "method": "PUT",
      "url": "Condition/ac3f90c0-2c8e-4117-89c6-27a8b85ced96"
    }
  }, {
    "fullUrl": "https://madie.cms.gov/Observation/28078bb7-d5db-48a9-8dce-d94ec7fba606",
    "resource": {
      "resourceType": "Observation",
      "id": "28078bb7-d5db-48a9-8dce-d94ec7fba606",
      "meta": {
        "profile": [ "http://hl7.org/fhir/us/core/StructureDefinition/us-core-blood-pressure" ]
      },
      "status": "final",
      "category": [ {
        "coding": [ {
          "system": "http://terminology.hl7.org/CodeSystem/observation-category",
          "code": "vital-signs",
          "display": "Vital Signs"
        } ],
        "text": "Vital Signs"
      } ],
      "code": {
        "coding": [ {
          "system": "http://loinc.org",
          "code": "85354-9",
          "display": "Blood pressure panel with all children optional"
        } ]
      },
      "subject": {
        "reference": "Patient/f2d1fd7e-35ae-45cd-86e6-8b874c3e3fb9"
      },
      "encounter": {
        "reference": "Encounter/cba802f0-c4c2-42a9-b431-5ca97dbfe0c2-1"
      },
      "effectiveDateTime": "2026-01-02T00:00:00.000+00:00",
      "component": [ {
        "code": {
          "coding": [ {
            "system": "http://loinc.org",
            "code": "8480-6",
            "display": "Systolic blood pressure"
          } ]
        },
        "valueQuantity": {
          "value": 139,
          "unit": "mmHg",
          "system": "http://unitsofmeasure.org",
          "code": "mm[Hg]"
        }
      }, {
        "code": {
          "coding": [ {
            "system": "http://loinc.org",
            "code": "8462-4",
            "display": "Diastolic blood pressure"
          } ]
        },
        "valueQuantity": {
          "value": 89,
          "unit": "mmHg",
          "system": "http://unitsofmeasure.org",
          "code": "mm[Hg]"
        }
      } ]
    },
    "request": {
      "method": "PUT",
      "url": "Observation/28078bb7-d5db-48a9-8dce-d94ec7fba606"
    }
  }, {
    "fullUrl": "https://madie.cms.gov/Encounter/cba802f0-c4c2-42a9-b431-5ca97dbfe0c2-1",
    "resource": {
      "resourceType": "Encounter",
      "id": "cba802f0-c4c2-42a9-b431-5ca97dbfe0c2-1",
      "meta": {
        "profile": [ "http://hl7.org/fhir/us/qicore/StructureDefinition/qicore-encounter" ]
      },
      "status": "finished",
      "class": {
        "system": "http://terminology.hl7.org/CodeSystem/v3-ActCode",
        "code": "AMB",
        "display": "ambulatory"
      },
      "type": [ {
        "coding": [ {
          "system": "http://snomed.info/sct",
          "code": "3391000175108",
          "display": "Office visit for pediatric care and assessment (procedure)"
        } ]
      } ],
      "subject": {
        "reference": "Patient/f2d1fd7e-35ae-45cd-86e6-8b874c3e3fb9"
      },
      "period": {
        "start": "2026-01-01T00:00:00.000+00:00",
        "end": "2026-01-01T01:00:00.000+00:00"
      }
    },
    "request": {
      "method": "PUT",
      "url": "Encounter/cba802f0-c4c2-42a9-b431-5ca97dbfe0c2-1"
    }
  }, {
    "fullUrl": "https://madie.cms.gov/MeasureReport/657791f1-242d-40ee-8b6a-1fdb4d85c849",
    "resource": {
      "resourceType": "MeasureReport",
      "id": "657791f1-242d-40ee-8b6a-1fdb4d85c849",
      "meta": {
        "profile": [ "http://hl7.org/fhir/us/cqfmeasures/StructureDefinition/test-case-cqfm" ]
      },
      "contained": [ {
        "resourceType": "Parameters",
        "id": "7b73e8f0-e558-493c-8755-606cd960f037-parameters",
        "parameter": [ {
          "name": "subject",
          "valueString": "f2d1fd7e-35ae-45cd-86e6-8b874c3e3fb9"
        } ]
      } ],
      "extension": [ {
        "url": "http://hl7.org/fhir/StructureDefinition/cqf-inputParameters",
        "valueReference": {
          "reference": "#7b73e8f0-e558-493c-8755-606cd960f037-parameters"
        }
      }, {
        "url": "http://hl7.org/fhir/us/cqfmeasures/StructureDefinition/cqfm-testCaseDescription",
        "valueMarkdown": "BP 139/89 during MP"
      } ],
      "modifierExtension": [ {
        "url": "http://hl7.org/fhir/us/cqfmeasures/StructureDefinition/cqfm-isTestCase",
        "valueBoolean": true
      } ],
      "status": "complete",
      "type": "individual",
      "measure": "https://madie.cms.gov/Measure/CMS165FHIRControllingHighBP",
      "period": {
        "start": "2026-01-01",
        "end": "2026-12-31"
      },
      "group": [ {
        "id": "Group_1",
        "population": [ {
          "id": "InitialPopulation_1",
          "code": {
            "coding": [ {
              "system": "http://terminology.hl7.org/CodeSystem/measure-population",
              "code": "initial-population",
              "display": "Initial Population"
            } ]
          },
          "count": 1
        }, {
          "id": "Denominator_1",
          "code": {
            "coding": [ {
              "system": "http://terminology.hl7.org/CodeSystem/measure-population",
              "code": "denominator",
              "display": "Denominator"
            } ]
          },
          "count": 1
        }, {
          "id": "DenominatorExclusion_1",
          "code": {
            "coding": [ {
              "system": "http://terminology.hl7.org/CodeSystem/measure-population",
              "code": "denominator-exclusion",
              "display": "Denominator Exclusion"
            } ]
          },
          "count": 0
        }, {
          "id": "Numerator_1",
          "code": {
            "coding": [ {
              "system": "http://terminology.hl7.org/CodeSystem/measure-population",
              "code": "numerator",
              "display": "Numerator"
            } ]
          },
          "count": 1
        } ],
        "measureScore": {
          "value": 1.0
        }
      } ],
      "evaluatedResource": [ {
        "reference": "Patient/f2d1fd7e-35ae-45cd-86e6-8b874c3e3fb9"
      }, {
        "reference": "Encounter/cba802f0-c4c2-42a9-b431-5ca97dbfe0c2"
      }, {
        "reference": "Condition/ac3f90c0-2c8e-4117-89c6-27a8b85ced96"
      }, {
        "reference": "Observation/28078bb7-d5db-48a9-8dce-d94ec7fba606"
      }, {
        "reference": "Encounter/cba802f0-c4c2-42a9-b431-5ca97dbfe0c2-1"
      } ]
    },
    "request": {
      "method": "PUT",
      "url": "MeasureReport/657791f1-242d-40ee-8b6a-1fdb4d85c849"
    }
  } ]
}