{
  "resourceType": "Bundle",
  "id": "649f3586ee658463ed0fd36b",
  "type": "collection",
  "entry": [ {
    "fullUrl": "https://madie.cms.gov/Patient/6e5d5e93-aaf8-440f-9f99-7fbb105dce3c",
    "resource": {
      "resourceType": "Patient",
      "id": "6e5d5e93-aaf8-440f-9f99-7fbb105dce3c",
      "meta": {
        "profile": [ "http://hl7.org/fhir/us/qicore/StructureDefinition/qicore-patient" ]
      },
      "extension": [ {
        "url": "http://hl7.org/fhir/us/core/StructureDefinition/us-core-race",
        "extension": [ {
          "url": "ombCategory",
          "valueCoding": {
            "system": "urn:oid:2.16.840.1.113883.6.238",
            "code": "2054-5",
            "display": "Black or African American",
            "userSelected": true
          }
        }, {
          "url": "text",
          "valueString": "Black or African American"
        } ]
      }, {
        "url": "http://hl7.org/fhir/us/core/StructureDefinition/us-core-ethnicity",
        "extension": [ {
          "url": "ombCategory",
          "valueCoding": {
            "system": "urn:oid:2.16.840.1.113883.6.238",
            "code": "2186-5",
            "display": "Not Hispanic or Latino",
            "userSelected": true
          }
        }, {
          "url": "text",
          "valueString": "Not Hispanic or Latino"
        } ]
      } ],
      "identifier": [ {
        "type": {
          "coding": [ {
            "system": "http://terminology.hl7.org/CodeSystem/v2-0203",
            "code": "MR"
          } ]
        },
        "system": "https://bonnie-fhir.healthit.gov/",
        "value": "649f3586ee658463ed0fd36b"
      } ],
      "name": [ {
        "family": "NUMFail",
        "given": [ "2LabBeforeMP1LabDuringMP" ]
      } ],
      "gender": "female",
      "birthDate": "2001-02-04"
    }
  }, {
    "fullUrl": "https://madie.cms.gov/Condition/dbb529a3-91d9-4419-9637-a6c3dbdccfda",
    "resource": {
      "resourceType": "Condition",
      "id": "dbb529a3-91d9-4419-9637-a6c3dbdccfda",
      "meta": {
        "profile": [ "http://hl7.org/fhir/us/qicore/StructureDefinition/qicore-condition-problems-health-concerns" ]
      },
      "clinicalStatus": {
        "coding": [ {
          "system": "http://terminology.hl7.org/CodeSystem/condition-clinical",
          "code": "active",
          "display": "active",
          "userSelected": true
        } ]
      },
      "category": [ {
        "coding": [ {
          "system": "http://terminology.hl7.org/CodeSystem/condition-category",
          "code": "problem-list-item",
          "display": "Problem List Item"
        } ]
      } ],
      "code": {
        "coding": [ {
          "system": "http://hl7.org/fhir/sid/icd-9-cm",
          "version": "2013",
          "code": "042",
          "display": "Human immunodeficiency virus [HIV] disease",
          "userSelected": true
        }, {
          "system": "http://snomed.info/sct",
          "version": "http://snomed.info/sct/731000124108/version/20250301",
          "code": "165816005",
          "userSelected": true
        } ]
      },
      "subject": {
        "reference": "Patient/6e5d5e93-aaf8-440f-9f99-7fbb105dce3c"
      },
      "onsetDateTime": "2018-09-28T08:00:00.000+00:00",
      "recordedDate": "2018-09-28T08:00:00.000+00:00"
    }
  }, {
    "fullUrl": "https://madie.cms.gov/Encounter/630c373d-6195-4021-a52b-b45a07f0d7b9",
    "resource": {
      "resourceType": "Encounter",
      "id": "630c373d-6195-4021-a52b-b45a07f0d7b9",
      "meta": {
        "profile": [ "http://hl7.org/fhir/us/qicore/StructureDefinition/qicore-encounter" ]
      },
      "status": "finished",
      "class": {
        "system": "http://terminology.hl7.org/CodeSystem/v3-ActCode",
        "code": "AMB",
        "display": "ambulatory"
      },
      "type": [ {
        "coding": [ {
          "system": "http://www.ama-assn.org/go/cpt",
          "code": "99429",
          "display": "Unlisted preventive medicine service",
          "userSelected": true
        } ]
      } ],
      "subject": {
        "reference": "Patient/6e5d5e93-aaf8-440f-9f99-7fbb105dce3c"
      },
      "period": {
        "start": "2026-10-31T08:00:00.000+00:00",
        "end": "2026-10-31T08:15:00.000+00:00"
      }
    }
  }, {
    "fullUrl": "https://madie.cms.gov/Observation/64ca5d92-8f44-41eb-98f9-cc0f920fab04",
    "resource": {
      "resourceType": "Observation",
      "id": "64ca5d92-8f44-41eb-98f9-cc0f920fab04",
      "meta": {
        "profile": [ "http://hl7.org/fhir/us/qicore/StructureDefinition/qicore-observation-lab" ]
      },
      "status": "final",
      "category": [ {
        "coding": [ {
          "system": "http://terminology.hl7.org/CodeSystem/observation-category",
          "code": "laboratory",
          "display": "Laboratory"
        } ]
      }, {
        "coding": [ {
          "system": "http://terminology.hl7.org/CodeSystem/observation-category",
          "code": "survey"
        } ]
      } ],
      "code": {
        "coding": [ {
          "system": "http://loinc.org",
          "version": "2.73",
          "code": "11084-1",
          "display": "Reagin Ab [Titer] in Serum",
          "userSelected": true
        } ]
      },
      "subject": {
        "reference": "Patient/6e5d5e93-aaf8-440f-9f99-7fbb105dce3c"
      },
      "effectiveDateTime": "2024-10-31T08:16:00.000+00:00",
      "issued": "2024-10-31T08:16:00.000+00:00",
      "dataAbsentReason": {
        "coding": [ {
          "system": "http://terminology.hl7.org/CodeSystem/data-absent-reason",
          "code": "unknown",
          "display": "Unknown"
        } ]
      }
    }
  }, {
    "fullUrl": "https://madie.cms.gov/Observation/7a576ae7-b517-449a-84bc-92e988c1ca9c",
    "resource": {
      "resourceType": "Observation",
      "id": "7a576ae7-b517-449a-84bc-92e988c1ca9c",
      "meta": {
        "profile": [ "http://hl7.org/fhir/us/qicore/StructureDefinition/qicore-observation-lab" ]
      },
      "status": "final",
      "category": [ {
        "coding": [ {
          "system": "http://terminology.hl7.org/CodeSystem/observation-category",
          "code": "laboratory",
          "display": "Laboratory"
        } ]
      }, {
        "coding": [ {
          "system": "http://terminology.hl7.org/CodeSystem/observation-category",
          "code": "survey"
        } ]
      } ],
      "code": {
        "coding": [ {
          "system": "http://loinc.org",
          "version": "2.73",
          "code": "21414-8",
          "display": "Neisseria gonorrhoeae DNA [Presence] in Cervical mucus by NAA with probe detection",
          "userSelected": true
        } ]
      },
      "subject": {
        "reference": "Patient/6e5d5e93-aaf8-440f-9f99-7fbb105dce3c"
      },
      "effectiveDateTime": "2024-10-31T08:00:00.000+00:00",
      "issued": "2024-10-31T08:00:00.000+00:00",
      "dataAbsentReason": {
        "coding": [ {
          "system": "http://terminology.hl7.org/CodeSystem/data-absent-reason",
          "code": "unknown",
          "display": "Unknown"
        } ]
      }
    }
  }, {
    "fullUrl": "https://madie.cms.gov/Observation/006bcb4d-4211-41be-9048-1a181ac4fccc",
    "resource": {
      "resourceType": "Observation",
      "id": "006bcb4d-4211-41be-9048-1a181ac4fccc",
      "meta": {
        "profile": [ "http://hl7.org/fhir/us/qicore/StructureDefinition/qicore-observation-lab" ]
      },
      "status": "final",
      "category": [ {
        "coding": [ {
          "system": "http://terminology.hl7.org/CodeSystem/observation-category",
          "code": "laboratory",
          "display": "Laboratory"
        } ]
      }, {
        "coding": [ {
          "system": "http://terminology.hl7.org/CodeSystem/observation-category",
          "code": "survey"
        } ]
      } ],
      "code": {
        "coding": [ {
          "system": "http://loinc.org",
          "version": "2.73",
          "code": "14463-4",
          "display": "Chlamydia trachomatis [Presence] in Cervix by Organism specific culture",
          "userSelected": true
        } ]
      },
      "subject": {
        "reference": "Patient/6e5d5e93-aaf8-440f-9f99-7fbb105dce3c"
      },
      "effectivePeriod": {
        "start": "2026-10-31T08:16:00.000+00:00",
        "end": "2026-10-31T08:17:00.000+00:00"
      },
      "issued": "2026-10-31T08:16:00.000+00:00",
      "dataAbsentReason": {
        "coding": [ {
          "system": "http://terminology.hl7.org/CodeSystem/data-absent-reason",
          "code": "unknown",
          "display": "Unknown"
        } ]
      }
    }
  }, {
    "fullUrl": "https://madie.cms.gov/Coverage/03481aff-5d72-432d-bb76-a30efd966b76",
    "resource": {
      "resourceType": "Coverage",
      "id": "03481aff-5d72-432d-bb76-a30efd966b76",
      "meta": {
        "profile": [ "http://hl7.org/fhir/us/qicore/StructureDefinition/qicore-coverage" ]
      },
      "status": "active",
      "subscriberId": "123456",
      "beneficiary": {
        "reference": "Patient/6e5d5e93-aaf8-440f-9f99-7fbb105dce3c"
      },
      "relationship": {
        "coding": [ {
          "system": "http://terminology.hl7.org/CodeSystem/subscriber-relationship",
          "code": "self",
          "display": "Self"
        } ]
      },
      "payor": [ {
        "reference": "Organization/9854604c-4591-483c-bd11-f9ba8e0794a5"
      } ]
    }
  }, {
    "fullUrl": "https://madie.cms.gov/Organization/9854604c-4591-483c-bd11-f9ba8e0794a5",
    "resource": {
      "resourceType": "Organization",
      "id": "9854604c-4591-483c-bd11-f9ba8e0794a5",
      "meta": {
        "profile": [ "http://hl7.org/fhir/us/qicore/StructureDefinition/qicore-organization" ]
      },
      "identifier": [ {
        "use": "temp",
        "system": "urn:oid:2.16.840.1.113883.4.4",
        "value": "21-3259825"
      } ],
      "active": true,
      "type": [ {
        "coding": [ {
          "system": "http://terminology.hl7.org/CodeSystem/organization-type",
          "code": "pay",
          "display": "Payer"
        } ]
      } ],
      "name": "Blue Cross Blue Shield of Texas",
      "telecom": [ {
        "system": "phone",
        "value": "(+1) 972-766-6900"
      } ],
      "address": [ {
        "use": "billing",
        "type": "postal",
        "line": [ "P.O. Box 660044" ],
        "city": "Dallas",
        "state": "TX",
        "postalCode": "75266-0044",
        "country": "USA"
      } ]
    }
  }, {
    "fullUrl": "https://madie.cms.gov/Practitioner/92a096c3-244c-4496-85bf-197eb4fbd4b2",
    "resource": {
      "resourceType": "Practitioner",
      "id": "92a096c3-244c-4496-85bf-197eb4fbd4b2",
      "meta": {
        "profile": [ "http://hl7.org/fhir/us/qicore/StructureDefinition/qicore-practitioner" ]
      },
      "identifier": [ {
        "system": "http://hl7.org/fhir/sid/us-npi",
        "value": "1689411712"
      } ],
      "name": [ {
        "family": "Evil",
        "prefix": [ "Dr" ]
      } ]
    }
  }, {
    "fullUrl": "https://madie.cms.gov/MeasureReport/32037068-9b78-4778-bc9a-fd4cdb55554e",
    "resource": {
      "resourceType": "MeasureReport",
      "id": "32037068-9b78-4778-bc9a-fd4cdb55554e",
      "meta": {
        "profile": [ "http://hl7.org/fhir/us/cqfmeasures/StructureDefinition/test-case-cqfm" ]
      },
      "contained": [ {
        "resourceType": "Parameters",
        "id": "ff524a82-caf0-485d-a281-7b5b7e5455fa-parameters",
        "parameter": [ {
          "name": "subject",
          "valueString": "6e5d5e93-aaf8-440f-9f99-7fbb105dce3c"
        } ]
      } ],
      "extension": [ {
        "url": "http://hl7.org/fhir/StructureDefinition/cqf-inputParameters",
        "valueReference": {
          "reference": "#ff524a82-caf0-485d-a281-7b5b7e5455fa-parameters"
        }
      }, {
        "url": "http://hl7.org/fhir/us/cqfmeasures/StructureDefinition/cqfm-testCaseDescription",
        "valueMarkdown": "Patient is over 13 years old with an encounter - 2 STI screen before MP, 1 STI screen during MP with Unlisted preventive medicine service encounter"
      } ],
      "modifierExtension": [ {
        "url": "http://hl7.org/fhir/us/cqfmeasures/StructureDefinition/cqfm-isTestCase",
        "valueBoolean": true
      } ],
      "status": "complete",
      "type": "individual",
      "measure": "https://madie.cms.gov/Measure/CMS1188FHIRHIVSTITesting",
      "period": {
        "start": "2026-01-01",
        "end": "2026-12-31"
      },
      "group": [ {
        "id": "Group_1",
        "population": [ {
          "id": "InitialPopulation_1",
          "code": {
            "coding": [ {
              "system": "http://terminology.hl7.org/CodeSystem/measure-population",
              "code": "initial-population",
              "display": "Initial Population"
            } ]
          },
          "count": 1
        }, {
          "id": "Denominator_1",
          "code": {
            "coding": [ {
              "system": "http://terminology.hl7.org/CodeSystem/measure-population",
              "code": "denominator",
              "display": "Denominator"
            } ]
          },
          "count": 1
        }, {
          "id": "Numerator_1",
          "code": {
            "coding": [ {
              "system": "http://terminology.hl7.org/CodeSystem/measure-population",
              "code": "numerator",
              "display": "Numerator"
            } ]
          },
          "count": 0
        } ],
        "measureScore": {
          "value": 1.0
        }
      } ],
      "evaluatedResource": [ {
        "reference": "Patient/6e5d5e93-aaf8-440f-9f99-7fbb105dce3c"
      }, {
        "reference": "Condition/dbb529a3-91d9-4419-9637-a6c3dbdccfda"
      }, {
        "reference": "Encounter/630c373d-6195-4021-a52b-b45a07f0d7b9"
      }, {
        "reference": "Observation/64ca5d92-8f44-41eb-98f9-cc0f920fab04"
      }, {
        "reference": "Observation/7a576ae7-b517-449a-84bc-92e988c1ca9c"
      }, {
        "reference": "Observation/006bcb4d-4211-41be-9048-1a181ac4fccc"
      }, {
        "reference": "Coverage/03481aff-5d72-432d-bb76-a30efd966b76"
      }, {
        "reference": "Organization/9854604c-4591-483c-bd11-f9ba8e0794a5"
      }, {
        "reference": "Practitioner/92a096c3-244c-4496-85bf-197eb4fbd4b2"
      } ]
    }
  } ]
}