{
  "resourceType": "Bundle",
  "id": "649333ea4d994e7239aa25e9",
  "type": "collection",
  "entry": [ {
    "fullUrl": "https://madie.cms.gov/Patient/6d6980b9-1f73-495a-a78c-c9c26a26ceaf",
    "resource": {
      "resourceType": "Patient",
      "id": "6d6980b9-1f73-495a-a78c-c9c26a26ceaf",
      "meta": {
        "profile": [ "http://hl7.org/fhir/us/qicore/StructureDefinition/qicore-patient" ]
      },
      "extension": [ {
        "url": "http://hl7.org/fhir/us/core/StructureDefinition/us-core-race",
        "extension": [ {
          "url": "ombCategory",
          "valueCoding": {
            "system": "urn:oid:2.16.840.1.113883.6.238",
            "code": "2106-3",
            "display": "White"
          }
        }, {
          "url": "text",
          "valueString": "White"
        } ]
      }, {
        "url": "http://hl7.org/fhir/us/core/StructureDefinition/us-core-ethnicity",
        "extension": [ {
          "url": "ombCategory",
          "valueCoding": {
            "system": "urn:oid:2.16.840.1.113883.6.238",
            "code": "2186-5",
            "display": "Not Hispanic or Latino",
            "userSelected": true
          }
        }, {
          "url": "text",
          "valueString": "Not Hispanic or Latino"
        } ]
      }, {
        "url": "http://hl7.org/fhir/us/core/StructureDefinition/us-core-sex",
        "valueCode": "248153007"
      } ],
      "identifier": [ {
        "type": {
          "coding": [ {
            "system": "http://terminology.hl7.org/CodeSystem/v2-0203",
            "code": "MR"
          } ]
        },
        "system": "https://bonnie-fhir.healthit.gov/",
        "value": "649333ea4d994e7239aa25e9"
      } ],
      "name": [ {
        "family": "IPFail",
        "given": [ "EncBeforeMP" ]
      } ],
      "gender": "male",
      "birthDate": "1989-08-08"
    }
  }, {
    "fullUrl": "https://madie.cms.gov/Condition/35f4763e-8336-4f29-accd-ee5c72b7e6a9",
    "resource": {
      "resourceType": "Condition",
      "id": "35f4763e-8336-4f29-accd-ee5c72b7e6a9",
      "meta": {
        "profile": [ "http://hl7.org/fhir/us/qicore/StructureDefinition/qicore-condition-problems-health-concerns" ]
      },
      "clinicalStatus": {
        "coding": [ {
          "system": "http://terminology.hl7.org/CodeSystem/condition-clinical",
          "code": "active",
          "display": "active",
          "userSelected": true
        } ]
      },
      "category": [ {
        "coding": [ {
          "system": "http://terminology.hl7.org/CodeSystem/condition-category",
          "code": "problem-list-item",
          "display": "Problem List Item"
        } ]
      } ],
      "code": {
        "coding": [ {
          "system": "http://snomed.info/sct",
          "version": "http://snomed.info/sct/731000124108/version/20250301",
          "code": "111880001",
          "userSelected": true
        } ]
      },
      "subject": {
        "reference": "Patient/6d6980b9-1f73-495a-a78c-c9c26a26ceaf"
      },
      "onsetDateTime": "2001-03-07T08:00:00.000+00:00",
      "recordedDate": "2001-03-07T08:00:00.000+00:00"
    }
  }, {
    "fullUrl": "https://madie.cms.gov/Encounter/6f2f2649-e98e-4d6d-b71e-b668e95b5531",
    "resource": {
      "resourceType": "Encounter",
      "id": "6f2f2649-e98e-4d6d-b71e-b668e95b5531",
      "meta": {
        "profile": [ "http://hl7.org/fhir/us/qicore/StructureDefinition/qicore-encounter" ]
      },
      "status": "finished",
      "class": {
        "system": "http://terminology.hl7.org/CodeSystem/v3-ActCode",
        "code": "AMB",
        "display": "ambulatory"
      },
      "type": [ {
        "coding": [ {
          "system": "http://snomed.info/sct",
          "version": "2022-09",
          "code": "185463005",
          "display": "Visit out of hours (procedure)",
          "userSelected": true
        } ]
      } ],
      "subject": {
        "reference": "Patient/6d6980b9-1f73-495a-a78c-c9c26a26ceaf"
      },
      "period": {
        "start": "2025-08-03T11:00:00.000+00:00",
        "end": "2025-08-03T12:15:00.000+00:00"
      }
    }
  }, {
    "fullUrl": "https://madie.cms.gov/Coverage/9b637017-cc2d-4d14-af09-948f4c8f17ee",
    "resource": {
      "resourceType": "Coverage",
      "id": "9b637017-cc2d-4d14-af09-948f4c8f17ee",
      "meta": {
        "profile": [ "http://hl7.org/fhir/us/qicore/StructureDefinition/qicore-coverage" ]
      },
      "status": "active",
      "subscriberId": "123456",
      "beneficiary": {
        "reference": "Patient/6d6980b9-1f73-495a-a78c-c9c26a26ceaf"
      },
      "relationship": {
        "coding": [ {
          "system": "http://terminology.hl7.org/CodeSystem/subscriber-relationship",
          "code": "self",
          "display": "Self"
        } ]
      },
      "payor": [ {
        "reference": "Organization/ad24ec37-0be5-447b-9adf-92e75f37a81c"
      } ]
    }
  }, {
    "fullUrl": "https://madie.cms.gov/Coverage/57723c7e-7fa1-4fb6-ac2e-26ed56f7b8fb",
    "resource": {
      "resourceType": "Coverage",
      "id": "57723c7e-7fa1-4fb6-ac2e-26ed56f7b8fb",
      "meta": {
        "profile": [ "http://hl7.org/fhir/us/qicore/StructureDefinition/qicore-coverage" ]
      },
      "identifier": [ {
        "system": "http://benefitsinc.com/certificate",
        "value": "12345"
      } ],
      "status": "active",
      "type": {
        "coding": [ {
          "system": "https://nahdo.org/sopt",
          "version": "9.2",
          "code": "59",
          "display": "Other Private Insurance"
        } ]
      },
      "subscriberId": "123456",
      "beneficiary": {
        "reference": "Patient/6d6980b9-1f73-495a-a78c-c9c26a26ceaf"
      },
      "dependent": "0",
      "relationship": {
        "coding": [ {
          "system": "http://terminology.hl7.org/CodeSystem/subscriber-relationship",
          "code": "self"
        } ]
      },
      "period": {
        "start": "2016-05-23",
        "end": "2026-05-23"
      },
      "payor": [ {
        "reference": "Organization/ad24ec37-0be5-447b-9adf-92e75f37a81c"
      } ],
      "order": 9
    }
  }, {
    "fullUrl": "https://madie.cms.gov/Organization/ad24ec37-0be5-447b-9adf-92e75f37a81c",
    "resource": {
      "resourceType": "Organization",
      "id": "ad24ec37-0be5-447b-9adf-92e75f37a81c",
      "meta": {
        "profile": [ "http://hl7.org/fhir/us/qicore/StructureDefinition/qicore-organization" ]
      },
      "identifier": [ {
        "use": "temp",
        "system": "urn:oid:2.16.840.1.113883.4.4",
        "value": "21-3259825"
      } ],
      "active": true,
      "type": [ {
        "coding": [ {
          "system": "http://terminology.hl7.org/CodeSystem/organization-type",
          "code": "pay",
          "display": "Payer"
        } ]
      } ],
      "name": "Blue Cross Blue Shield of Texas",
      "telecom": [ {
        "system": "phone",
        "value": "(+1) 972-766-6900"
      } ],
      "address": [ {
        "use": "billing",
        "type": "postal",
        "line": [ "P.O. Box 660044" ],
        "city": "Dallas",
        "state": "TX",
        "postalCode": "75266-0044",
        "country": "USA"
      } ]
    }
  }, {
    "fullUrl": "https://madie.cms.gov/Practitioner/adcc2569-1860-4593-b574-7d30b9ef29fc",
    "resource": {
      "resourceType": "Practitioner",
      "id": "adcc2569-1860-4593-b574-7d30b9ef29fc",
      "meta": {
        "profile": [ "http://hl7.org/fhir/us/qicore/StructureDefinition/qicore-practitioner" ]
      },
      "identifier": [ {
        "system": "http://hl7.org/fhir/sid/us-npi",
        "value": "1689411712"
      } ],
      "name": [ {
        "family": "Evil",
        "prefix": [ "Dr" ]
      } ]
    }
  }, {
    "fullUrl": "https://madie.cms.gov/MeasureReport/d0286d45-80cf-444f-b941-4e31b395c983",
    "resource": {
      "resourceType": "MeasureReport",
      "id": "d0286d45-80cf-444f-b941-4e31b395c983",
      "meta": {
        "profile": [ "http://hl7.org/fhir/us/cqfmeasures/StructureDefinition/test-case-cqfm" ]
      },
      "contained": [ {
        "resourceType": "Parameters",
        "id": "9c5487c4-a637-4b19-8da6-5828cb84fed4-parameters",
        "parameter": [ {
          "name": "subject",
          "valueString": "6d6980b9-1f73-495a-a78c-c9c26a26ceaf"
        } ]
      } ],
      "extension": [ {
        "url": "http://hl7.org/fhir/StructureDefinition/cqf-inputParameters",
        "valueReference": {
          "reference": "#9c5487c4-a637-4b19-8da6-5828cb84fed4-parameters"
        }
      }, {
        "url": "http://hl7.org/fhir/us/cqfmeasures/StructureDefinition/cqfm-testCaseDescription",
        "valueMarkdown": "Patient with HIV diagnosis before MP with an encounter before the MP"
      } ],
      "modifierExtension": [ {
        "url": "http://hl7.org/fhir/us/cqfmeasures/StructureDefinition/cqfm-isTestCase",
        "valueBoolean": true
      } ],
      "status": "complete",
      "type": "individual",
      "measure": "https://madie.cms.gov/Measure/CMS314FHIRHIVViralSuppression",
      "period": {
        "start": "2026-01-01",
        "end": "2026-12-31"
      },
      "group": [ {
        "id": "Group_1",
        "population": [ {
          "id": "InitialPopulation_1",
          "code": {
            "coding": [ {
              "system": "http://terminology.hl7.org/CodeSystem/measure-population",
              "code": "initial-population",
              "display": "Initial Population"
            } ]
          },
          "count": 0
        }, {
          "id": "Denominator_1",
          "code": {
            "coding": [ {
              "system": "http://terminology.hl7.org/CodeSystem/measure-population",
              "code": "denominator",
              "display": "Denominator"
            } ]
          },
          "count": 0
        }, {
          "id": "Numerator_1",
          "code": {
            "coding": [ {
              "system": "http://terminology.hl7.org/CodeSystem/measure-population",
              "code": "numerator",
              "display": "Numerator"
            } ]
          },
          "count": 0
        } ],
        "measureScore": {
          "value": 1.0
        }
      } ],
      "evaluatedResource": [ {
        "reference": "Patient/6d6980b9-1f73-495a-a78c-c9c26a26ceaf"
      }, {
        "reference": "Condition/35f4763e-8336-4f29-accd-ee5c72b7e6a9"
      }, {
        "reference": "Encounter/6f2f2649-e98e-4d6d-b71e-b668e95b5531"
      }, {
        "reference": "Coverage/9b637017-cc2d-4d14-af09-948f4c8f17ee"
      }, {
        "reference": "Coverage/57723c7e-7fa1-4fb6-ac2e-26ed56f7b8fb"
      }, {
        "reference": "Organization/ad24ec37-0be5-447b-9adf-92e75f37a81c"
      }, {
        "reference": "Practitioner/adcc2569-1860-4593-b574-7d30b9ef29fc"
      } ]
    }
  } ]
}