{
  "resourceType": "Bundle",
  "id": "612e6b1302c62a011f2ec527",
  "type": "transaction",
  "entry": [ {
    "fullUrl": "https://madie.cms.gov/Patient/29bd19cc-e5fc-431b-b308-ce5f816533d3",
    "resource": {
      "resourceType": "Patient",
      "id": "29bd19cc-e5fc-431b-b308-ce5f816533d3",
      "meta": {
        "profile": [ "http://hl7.org/fhir/us/qicore/StructureDefinition/qicore-patient" ]
      },
      "text": {
        "status": "generated",
        "div": "<div xmlns=\"http://www.w3.org/1999/xhtml\"><div class=\"hapiHeaderText\">RixDuringOBS_OBSGT1hr <b>NUMERFAIL </b></div><table class=\"hapiPropertyTable\"><tbody><tr><td>Identifier</td><td>9ac41bff10ef3353d0742df1f73dc984</td></tr><tr><td>Date of birth</td><td><span>02 January 1974</span></td></tr></tbody></table></div>"
      },
      "extension": [ {
        "url": "http://hl7.org/fhir/us/core/StructureDefinition/us-core-race",
        "extension": [ {
          "url": "ombCategory",
          "valueCoding": {
            "system": "urn:oid:2.16.840.1.113883.6.238",
            "code": "1002-5",
            "display": "American Indian or Alaska Native",
            "userSelected": true
          }
        }, {
          "url": "text",
          "valueString": "American Indian or Alaska Native"
        } ]
      }, {
        "url": "http://hl7.org/fhir/us/core/StructureDefinition/us-core-ethnicity",
        "extension": [ {
          "url": "ombCategory",
          "valueCoding": {
            "system": "urn:oid:2.16.840.1.113883.6.238",
            "code": "2135-2",
            "display": "Hispanic or Latino",
            "userSelected": true
          }
        }, {
          "url": "text",
          "valueString": "Hispanic or Latino"
        } ]
      } ],
      "identifier": [ {
        "type": {
          "coding": [ {
            "system": "http://terminology.hl7.org/CodeSystem/v2-0203",
            "code": "MR"
          } ]
        },
        "system": "https://bonnie-fhir.healthit.gov/",
        "value": "612e6b1302c62a011f2ec527"
      } ],
      "active": true,
      "name": [ {
        "use": "usual",
        "family": "NUMERFail",
        "given": [ "RixDuringOBS_OBSGT1hr" ]
      } ],
      "gender": "male",
      "birthDate": "1975-01-02"
    },
    "request": {
      "method": "PUT",
      "url": "Patient/29bd19cc-e5fc-431b-b308-ce5f816533d3"
    }
  }, {
    "fullUrl": "https://madie.cms.gov/Encounter/cf2760dd-c696-4a72-aaeb-0c968e5e0f6d",
    "resource": {
      "resourceType": "Encounter",
      "id": "cf2760dd-c696-4a72-aaeb-0c968e5e0f6d",
      "meta": {
        "profile": [ "http://hl7.org/fhir/us/qicore/StructureDefinition/qicore-encounter" ]
      },
      "status": "finished",
      "class": {
        "system": "http://terminology.hl7.org/CodeSystem/v3-ActCode",
        "code": "IMP",
        "display": "inpatient encounter"
      },
      "type": [ {
        "coding": [ {
          "system": "http://snomed.info/sct",
          "code": "8715000"
        } ]
      } ],
      "subject": {
        "reference": "Patient/29bd19cc-e5fc-431b-b308-ce5f816533d3"
      },
      "period": {
        "start": "2026-11-01T08:00:00.000+00:00",
        "end": "2026-11-26T08:15:00.000+00:00"
      },
      "length": {
        "value": 25,
        "unit": "days"
      }
    },
    "request": {
      "method": "PUT",
      "url": "Encounter/cf2760dd-c696-4a72-aaeb-0c968e5e0f6d"
    }
  }, {
    "fullUrl": "https://madie.cms.gov/Encounter/e2a5edaf-6a89-4b72-bddb-64985ba12c61",
    "resource": {
      "resourceType": "Encounter",
      "id": "e2a5edaf-6a89-4b72-bddb-64985ba12c61",
      "meta": {
        "profile": [ "http://hl7.org/fhir/us/qicore/StructureDefinition/qicore-encounter" ]
      },
      "status": "finished",
      "class": {
        "system": "http://terminology.hl7.org/CodeSystem/v3-ActCode",
        "code": "EMER",
        "display": "emergency"
      },
      "type": [ {
        "coding": [ {
          "system": "http://snomed.info/sct",
          "code": "4525004"
        } ]
      } ],
      "subject": {
        "reference": "Patient/29bd19cc-e5fc-431b-b308-ce5f816533d3"
      },
      "period": {
        "start": "2026-10-31T20:00:00.000+00:00",
        "end": "2026-10-31T20:00:00.000+00:00"
      }
    },
    "request": {
      "method": "PUT",
      "url": "Encounter/e2a5edaf-6a89-4b72-bddb-64985ba12c61"
    }
  }, {
    "fullUrl": "https://madie.cms.gov/Encounter/1b6c761f-4c44-4ca3-88fa-b7dc0fc80547",
    "resource": {
      "resourceType": "Encounter",
      "id": "1b6c761f-4c44-4ca3-88fa-b7dc0fc80547",
      "meta": {
        "profile": [ "http://hl7.org/fhir/us/qicore/StructureDefinition/qicore-encounter" ]
      },
      "status": "finished",
      "class": {
        "system": "http://terminology.hl7.org/CodeSystem/v3-ActCode",
        "code": "OBSENC",
        "display": "observation encounter"
      },
      "type": [ {
        "coding": [ {
          "system": "http://snomed.info/sct",
          "code": "448951000124107"
        } ]
      } ],
      "subject": {
        "reference": "Patient/29bd19cc-e5fc-431b-b308-ce5f816533d3"
      },
      "period": {
        "start": "2026-10-31T20:00:00.000+00:00",
        "end": "2026-11-01T05:00:00.000+00:00"
      }
    },
    "request": {
      "method": "PUT",
      "url": "Encounter/1b6c761f-4c44-4ca3-88fa-b7dc0fc80547"
    }
  }, {
    "fullUrl": "https://madie.cms.gov/Coverage/2694a835-0fa4-4936-a6be-abda3b5603f7",
    "resource": {
      "resourceType": "Coverage",
      "id": "2694a835-0fa4-4936-a6be-abda3b5603f7",
      "status": "active",
      "beneficiary": {
        "reference": "Patient/29bd19cc-e5fc-431b-b308-ce5f816533d3"
      },
      "period": {
        "start": "1975-01-02T08:00:00.000+00:00"
      },
      "payor": [ {
        "reference": "Organization/9aac9121-20ee-4265-9e1f-7cbda182d6a7"
      } ]
    },
    "request": {
      "method": "PUT",
      "url": "Coverage/2694a835-0fa4-4936-a6be-abda3b5603f7"
    }
  }, {
    "fullUrl": "https://madie.cms.gov/MedicationAdministration/945c9bb1-d6f9-41bb-9913-75dd91e7deb5",
    "resource": {
      "resourceType": "MedicationAdministration",
      "id": "945c9bb1-d6f9-41bb-9913-75dd91e7deb5",
      "meta": {
        "profile": [ "http://hl7.org/fhir/us/qicore/StructureDefinition/qicore-medicationadministration" ]
      },
      "status": "completed",
      "medicationCodeableConcept": {
        "coding": [ {
          "system": "http://www.nlm.nih.gov/research/umls/rxnorm",
          "code": "1114198"
        } ]
      },
      "subject": {
        "reference": "Patient/29bd19cc-e5fc-431b-b308-ce5f816533d3"
      },
      "effectivePeriod": {
        "start": "2026-10-31T09:00:00.000+00:00",
        "end": "2026-10-31T09:15:00.000+00:00"
      }
    },
    "request": {
      "method": "PUT",
      "url": "MedicationAdministration/945c9bb1-d6f9-41bb-9913-75dd91e7deb5"
    }
  }, {
    "fullUrl": "https://madie.cms.gov/Organization/9aac9121-20ee-4265-9e1f-7cbda182d6a7",
    "resource": {
      "resourceType": "Organization",
      "id": "9aac9121-20ee-4265-9e1f-7cbda182d6a7",
      "meta": {
        "profile": [ "http://hl7.org/fhir/us/qicore/StructureDefinition/qicore-organization" ]
      },
      "identifier": [ {
        "use": "temp",
        "system": "urn:oid:2.16.840.1.113883.4.4",
        "value": "21-3259825"
      } ],
      "active": true,
      "type": [ {
        "coding": [ {
          "system": "http://terminology.hl7.org/CodeSystem/organization-type",
          "code": "pay",
          "display": "Payer"
        } ]
      } ],
      "name": "Blue Cross Blue Shield of Texas",
      "telecom": [ {
        "system": "phone",
        "value": "(+1) 972-766-6900"
      } ],
      "address": [ {
        "use": "billing",
        "type": "postal",
        "line": [ "P.O. Box 660044" ],
        "city": "Dallas",
        "state": "TX",
        "postalCode": "75266-0044",
        "country": "USA"
      } ]
    },
    "request": {
      "method": "PUT",
      "url": "Organization/9aac9121-20ee-4265-9e1f-7cbda182d6a7"
    }
  }, {
    "fullUrl": "https://madie.cms.gov/Practitioner/a35adcbe-5889-4926-8986-009d0491f93e",
    "resource": {
      "resourceType": "Practitioner",
      "id": "a35adcbe-5889-4926-8986-009d0491f93e",
      "identifier": [ {
        "system": "http://hl7.org/fhir/sid/us-npi",
        "value": "123456"
      } ],
      "name": [ {
        "family": "Evil",
        "prefix": [ "Dr" ]
      } ]
    },
    "request": {
      "method": "PUT",
      "url": "Practitioner/a35adcbe-5889-4926-8986-009d0491f93e"
    }
  }, {
    "fullUrl": "https://madie.cms.gov/MeasureReport/5a335b60-b41d-4e6d-923f-7621a63c3da0",
    "resource": {
      "resourceType": "MeasureReport",
      "id": "5a335b60-b41d-4e6d-923f-7621a63c3da0",
      "meta": {
        "profile": [ "http://hl7.org/fhir/us/cqfmeasures/StructureDefinition/test-case-cqfm" ]
      },
      "contained": [ {
        "resourceType": "Parameters",
        "id": "469c88df-735a-4ac5-857f-ca81b747f36b-parameters",
        "parameter": [ {
          "name": "subject",
          "valueString": "29bd19cc-e5fc-431b-b308-ce5f816533d3"
        } ]
      } ],
      "extension": [ {
        "url": "http://hl7.org/fhir/StructureDefinition/cqf-inputParameters",
        "valueReference": {
          "reference": "#469c88df-735a-4ac5-857f-ca81b747f36b-parameters"
        }
      }, {
        "url": "http://hl7.org/fhir/us/cqfmeasures/StructureDefinition/cqfm-testCaseDescription",
        "valueMarkdown": "Rivaroxaban for VTE Prophylaxis Med Administered during OBS which ends >1 hr before adm and ED = 1 hr ends OBS\n"
      } ],
      "modifierExtension": [ {
        "url": "http://hl7.org/fhir/us/cqfmeasures/StructureDefinition/cqfm-isTestCase",
        "valueBoolean": true
      } ],
      "status": "complete",
      "type": "individual",
      "measure": "https://madie.cms.gov/Measure/CMS108FHIRVTEProphylaxis",
      "period": {
        "start": "2026-01-01",
        "end": "2026-12-31"
      },
      "group": [ {
        "id": "Group_1",
        "population": [ {
          "id": "InitialPopulation_1",
          "code": {
            "coding": [ {
              "system": "http://terminology.hl7.org/CodeSystem/measure-population",
              "code": "initial-population",
              "display": "Initial Population"
            } ]
          },
          "count": 1
        }, {
          "id": "Denominator_1",
          "code": {
            "coding": [ {
              "system": "http://terminology.hl7.org/CodeSystem/measure-population",
              "code": "denominator",
              "display": "Denominator"
            } ]
          },
          "count": 1
        }, {
          "id": "DenominatorExclusion_1",
          "code": {
            "coding": [ {
              "system": "http://terminology.hl7.org/CodeSystem/measure-population",
              "code": "denominator-exclusion",
              "display": "Denominator Exclusion"
            } ]
          },
          "count": 0
        }, {
          "id": "Numerator_1",
          "code": {
            "coding": [ {
              "system": "http://terminology.hl7.org/CodeSystem/measure-population",
              "code": "numerator",
              "display": "Numerator"
            } ]
          },
          "count": 0
        } ],
        "measureScore": {
          "value": 0.0
        }
      } ],
      "evaluatedResource": [ {
        "reference": "Patient/29bd19cc-e5fc-431b-b308-ce5f816533d3"
      }, {
        "reference": "Encounter/cf2760dd-c696-4a72-aaeb-0c968e5e0f6d"
      }, {
        "reference": "Encounter/e2a5edaf-6a89-4b72-bddb-64985ba12c61"
      }, {
        "reference": "Encounter/1b6c761f-4c44-4ca3-88fa-b7dc0fc80547"
      }, {
        "reference": "Coverage/2694a835-0fa4-4936-a6be-abda3b5603f7"
      }, {
        "reference": "MedicationAdministration/945c9bb1-d6f9-41bb-9913-75dd91e7deb5"
      }, {
        "reference": "Organization/9aac9121-20ee-4265-9e1f-7cbda182d6a7"
      }, {
        "reference": "Practitioner/a35adcbe-5889-4926-8986-009d0491f93e"
      } ]
    },
    "request": {
      "method": "PUT",
      "url": "MeasureReport/5a335b60-b41d-4e6d-923f-7621a63c3da0"
    }
  } ]
}