{
  "resourceType": "Bundle",
  "id": "64136ef04b11b147841ab8c6",
  "type": "transaction",
  "entry": [ {
    "fullUrl": "https://madie.cms.gov/Patient/023b65d6-0b68-4b1f-b276-f500e4b77ed2",
    "resource": {
      "resourceType": "Patient",
      "id": "023b65d6-0b68-4b1f-b276-f500e4b77ed2",
      "meta": {
        "profile": [ "http://hl7.org/fhir/us/qicore/StructureDefinition/qicore-patient" ]
      },
      "extension": [ {
        "url": "http://hl7.org/fhir/us/core/StructureDefinition/us-core-race",
        "extension": [ {
          "url": "ombCategory",
          "valueCoding": {
            "system": "urn:oid:2.16.840.1.113883.6.238",
            "code": "2076-8",
            "display": "Native Hawaiian or Other Pacific Islander",
            "userSelected": true
          }
        }, {
          "url": "text",
          "valueString": "Native Hawaiian or Other Pacific Islander"
        } ]
      }, {
        "url": "http://hl7.org/fhir/us/core/StructureDefinition/us-core-ethnicity",
        "extension": [ {
          "url": "ombCategory",
          "valueCoding": {
            "system": "urn:oid:2.16.840.1.113883.6.238",
            "code": "2186-5",
            "display": "Not Hispanic or Latino",
            "userSelected": true
          }
        }, {
          "url": "text",
          "valueString": "Not Hispanic or Latino"
        } ]
      } ],
      "identifier": [ {
        "type": {
          "coding": [ {
            "system": "http://terminology.hl7.org/CodeSystem/v2-0203",
            "code": "MR"
          } ]
        },
        "system": "https://bonnie-fhir.healthit.gov/",
        "value": "64136ef04b11b147841ab8c6"
      } ],
      "name": [ {
        "family": "DENEXPass",
        "given": [ "PalliativeCareAssessment" ]
      } ],
      "gender": "male",
      "birthDate": "1965-03-22"
    },
    "request": {
      "method": "PUT",
      "url": "Patient/023b65d6-0b68-4b1f-b276-f500e4b77ed2"
    }
  }, {
    "fullUrl": "https://madie.cms.gov/Condition/dc287299-f8b0-4ede-919e-a959f39f1b73",
    "resource": {
      "resourceType": "Condition",
      "id": "dc287299-f8b0-4ede-919e-a959f39f1b73",
      "meta": {
        "profile": [ "http://hl7.org/fhir/us/qicore/StructureDefinition/qicore-condition-encounter-diagnosis" ]
      },
      "clinicalStatus": {
        "coding": [ {
          "system": "http://terminology.hl7.org/CodeSystem/condition-clinical",
          "code": "active",
          "display": "active",
          "userSelected": true
        } ]
      },
      "category": [ {
        "coding": [ {
          "system": "http://terminology.hl7.org/CodeSystem/condition-category",
          "code": "encounter-diagnosis",
          "display": "Encounter Diagnosis",
          "userSelected": true
        } ]
      } ],
      "code": {
        "coding": [ {
          "system": "http://snomed.info/sct",
          "version": "2021-09",
          "code": "102781000119107",
          "display": "Sensory neuropathy due to type 1 diabetes mellitus (disorder)",
          "userSelected": true
        } ]
      },
      "subject": {
        "reference": "Patient/023b65d6-0b68-4b1f-b276-f500e4b77ed2"
      },
      "onsetDateTime": "2022-03-06T08:00:00.000+00:00"
    },
    "request": {
      "method": "PUT",
      "url": "Condition/dc287299-f8b0-4ede-919e-a959f39f1b73"
    }
  }, {
    "fullUrl": "https://madie.cms.gov/Encounter/82544f5b-3857-44eb-953a-36ac6c78036c",
    "resource": {
      "resourceType": "Encounter",
      "id": "82544f5b-3857-44eb-953a-36ac6c78036c",
      "meta": {
        "profile": [ "http://hl7.org/fhir/us/qicore/StructureDefinition/qicore-encounter" ]
      },
      "status": "finished",
      "class": {
        "system": "http://terminology.hl7.org/CodeSystem/v3-ActCode",
        "code": "AMB",
        "display": "ambulatory",
        "userSelected": true
      },
      "type": [ {
        "coding": [ {
          "system": "http://snomed.info/sct",
          "version": "2021-09",
          "code": "185463005",
          "display": "Visit out of hours (procedure)",
          "userSelected": true
        } ]
      } ],
      "subject": {
        "reference": "Patient/023b65d6-0b68-4b1f-b276-f500e4b77ed2"
      },
      "period": {
        "start": "2026-03-08T08:00:00.000+00:00",
        "end": "2026-03-08T08:15:00.000+00:00"
      }
    },
    "request": {
      "method": "PUT",
      "url": "Encounter/82544f5b-3857-44eb-953a-36ac6c78036c"
    }
  }, {
    "fullUrl": "https://madie.cms.gov/Encounter/98648102-4a02-496b-a7d8-87d0b51b35bf",
    "resource": {
      "resourceType": "Encounter",
      "id": "98648102-4a02-496b-a7d8-87d0b51b35bf",
      "meta": {
        "profile": [ "http://hl7.org/fhir/us/qicore/StructureDefinition/qicore-encounter" ]
      },
      "status": "finished",
      "class": {
        "system": "http://terminology.hl7.org/CodeSystem/v3-ActCode",
        "code": "AMB",
        "display": "ambulatory",
        "userSelected": true
      },
      "type": [ {
        "coding": [ {
          "system": "http://snomed.info/sct",
          "version": "2021-09",
          "code": "444971000124105",
          "display": "Annual wellness visit (procedure)",
          "userSelected": true
        } ]
      } ],
      "subject": {
        "reference": "Patient/023b65d6-0b68-4b1f-b276-f500e4b77ed2"
      },
      "period": {
        "start": "2026-02-09T08:00:00.000+00:00",
        "end": "2026-02-09T08:15:00.000+00:00"
      }
    },
    "request": {
      "method": "PUT",
      "url": "Encounter/98648102-4a02-496b-a7d8-87d0b51b35bf"
    }
  }, {
    "fullUrl": "https://madie.cms.gov/Observation/b1d99e64-ab8f-4bad-bf77-de9afe51c72c",
    "resource": {
      "resourceType": "Observation",
      "id": "b1d99e64-ab8f-4bad-bf77-de9afe51c72c",
      "meta": {
        "profile": [ "http://hl7.org/fhir/us/qicore/StructureDefinition/qicore-observation-screening-assessment" ]
      },
      "status": "final",
      "category": [ {
        "coding": [ {
          "system": "http://terminology.hl7.org/CodeSystem/observation-category",
          "code": "survey",
          "display": "survey"
        } ]
      } ],
      "code": {
        "coding": [ {
          "system": "http://loinc.org",
          "code": "71007-9",
          "display": "Functional Assessment of Chronic Illness Therapy - Palliative Care Questionnaire (FACIT-Pal)",
          "userSelected": true
        } ]
      },
      "subject": {
        "reference": "Patient/023b65d6-0b68-4b1f-b276-f500e4b77ed2"
      },
      "encounter": {
        "reference": "Encounter/82544f5b-3857-44eb-953a-36ac6c78036c"
      },
      "effectiveDateTime": "2026-03-08T08:00:00.000+00:00",
      "valueCodeableConcept": {
        "coding": [ {
          "system": "http://snomed.info/sct",
          "code": "373066001",
          "display": "Yes (qualifier value)",
          "userSelected": true
        } ]
      }
    },
    "request": {
      "method": "PUT",
      "url": "Observation/b1d99e64-ab8f-4bad-bf77-de9afe51c72c"
    }
  }, {
    "fullUrl": "https://madie.cms.gov/MeasureReport/27aff293-4919-44c5-a689-18f57ee3c714",
    "resource": {
      "resourceType": "MeasureReport",
      "id": "27aff293-4919-44c5-a689-18f57ee3c714",
      "meta": {
        "profile": [ "http://hl7.org/fhir/us/cqfmeasures/StructureDefinition/test-case-cqfm" ]
      },
      "contained": [ {
        "resourceType": "Parameters",
        "id": "afaf8e8b-41ca-4f3c-9bc3-0a9614b61277-parameters",
        "parameter": [ {
          "name": "subject",
          "valueString": "023b65d6-0b68-4b1f-b276-f500e4b77ed2"
        } ]
      } ],
      "extension": [ {
        "url": "http://hl7.org/fhir/StructureDefinition/cqf-inputParameters",
        "valueReference": {
          "reference": "#afaf8e8b-41ca-4f3c-9bc3-0a9614b61277-parameters"
        }
      }, {
        "url": "http://hl7.org/fhir/us/cqfmeasures/StructureDefinition/cqfm-testCaseDescription",
        "valueMarkdown": "This patient is 60 years old with a qualifying encounter and active diabetes diagnosis, with a Palliative Care Assessment in the Measurement Period. This case tests the denominator exclusion criteria."
      } ],
      "modifierExtension": [ {
        "url": "http://hl7.org/fhir/us/cqfmeasures/StructureDefinition/cqfm-isTestCase",
        "valueBoolean": true
      } ],
      "status": "complete",
      "type": "individual",
      "measure": "https://madie.cms.gov/Measure/CMS951FHIRKidneyHealthEval",
      "period": {
        "start": "2026-01-01",
        "end": "2026-12-31"
      },
      "group": [ {
        "id": "Group_1",
        "population": [ {
          "id": "InitialPopulation_1",
          "code": {
            "coding": [ {
              "system": "http://terminology.hl7.org/CodeSystem/measure-population",
              "code": "initial-population",
              "display": "Initial Population"
            } ]
          },
          "count": 1
        }, {
          "id": "Denominator_1",
          "code": {
            "coding": [ {
              "system": "http://terminology.hl7.org/CodeSystem/measure-population",
              "code": "denominator",
              "display": "Denominator"
            } ]
          },
          "count": 1
        }, {
          "id": "DenominatorExclusion_1",
          "code": {
            "coding": [ {
              "system": "http://terminology.hl7.org/CodeSystem/measure-population",
              "code": "denominator-exclusion",
              "display": "Denominator Exclusion"
            } ]
          },
          "count": 1
        }, {
          "id": "Numerator_1",
          "code": {
            "coding": [ {
              "system": "http://terminology.hl7.org/CodeSystem/measure-population",
              "code": "numerator",
              "display": "Numerator"
            } ]
          },
          "count": 0
        } ],
        "measureScore": {
          "value": 1.0
        }
      } ],
      "evaluatedResource": [ {
        "reference": "Patient/023b65d6-0b68-4b1f-b276-f500e4b77ed2"
      }, {
        "reference": "Condition/dc287299-f8b0-4ede-919e-a959f39f1b73"
      }, {
        "reference": "Encounter/82544f5b-3857-44eb-953a-36ac6c78036c"
      }, {
        "reference": "Encounter/98648102-4a02-496b-a7d8-87d0b51b35bf"
      }, {
        "reference": "Observation/b1d99e64-ab8f-4bad-bf77-de9afe51c72c"
      } ]
    },
    "request": {
      "method": "PUT",
      "url": "MeasureReport/27aff293-4919-44c5-a689-18f57ee3c714"
    }
  } ]
}