{
  "resourceType": "Bundle",
  "id": "60f82c2f98086b570510e2a2",
  "type": "transaction",
  "entry": [ {
    "fullUrl": "https://madie.cms.gov/Patient/bda91aac-a815-4a22-b505-36cef1080d49",
    "resource": {
      "resourceType": "Patient",
      "id": "bda91aac-a815-4a22-b505-36cef1080d49",
      "meta": {
        "profile": [ "http://hl7.org/fhir/us/qicore/StructureDefinition/qicore-patient" ]
      },
      "text": {
        "status": "generated",
        "div": "<div xmlns=\"http://www.w3.org/1999/xhtml\"><div class=\"hapiHeaderText\">PharmContraDayOfObs_ED&lt;1hrObs&lt;1hrBFEncDayOf <b>DENEXCEPPASS </b></div><table class=\"hapiPropertyTable\"><tbody><tr><td>Identifier</td><td>2c6dd5ae78f426626c36b78148e65373b7eecba1d92ef9ebe9a978724f32bc83</td></tr><tr><td>Date of birth</td><td><span>26 September 1975</span></td></tr></tbody></table></div>"
      },
      "extension": [ {
        "url": "http://hl7.org/fhir/us/core/StructureDefinition/us-core-race",
        "extension": [ {
          "url": "ombCategory",
          "valueCoding": {
            "system": "urn:oid:2.16.840.1.113883.6.238",
            "code": "2054-5",
            "display": "Black or African American",
            "userSelected": true
          }
        }, {
          "url": "text",
          "valueString": "Black or African American"
        } ]
      }, {
        "url": "http://hl7.org/fhir/us/core/StructureDefinition/us-core-ethnicity",
        "extension": [ {
          "url": "ombCategory",
          "valueCoding": {
            "system": "urn:oid:2.16.840.1.113883.6.238",
            "code": "2186-5",
            "display": "Not Hispanic or Latino",
            "userSelected": true
          }
        }, {
          "url": "text",
          "valueString": "Not Hispanic or Latino"
        } ]
      } ],
      "identifier": [ {
        "type": {
          "coding": [ {
            "system": "http://terminology.hl7.org/CodeSystem/v2-0203",
            "code": "MR"
          } ]
        },
        "system": "https://bonnie-fhir.healthit.gov/",
        "value": "60f82c2f98086b570510e2a2"
      } ],
      "active": true,
      "name": [ {
        "use": "usual",
        "family": "DENEXCEPPass",
        "given": [ "PharmContraDayOfObs_ED<1hrObs<1hrBFEncDayOf" ]
      } ],
      "gender": "female",
      "birthDate": "1976-09-26"
    },
    "request": {
      "method": "PUT",
      "url": "Patient/bda91aac-a815-4a22-b505-36cef1080d49"
    }
  }, {
    "fullUrl": "https://madie.cms.gov/Encounter/b495b66b-f5a1-4a4e-8f83-1de0c81817ad",
    "resource": {
      "resourceType": "Encounter",
      "id": "b495b66b-f5a1-4a4e-8f83-1de0c81817ad",
      "meta": {
        "profile": [ "http://hl7.org/fhir/us/qicore/StructureDefinition/qicore-encounter" ]
      },
      "status": "finished",
      "class": {
        "system": "http://terminology.hl7.org/CodeSystem/v3-ActCode",
        "code": "EMER",
        "display": "emergency",
        "userSelected": true
      },
      "type": [ {
        "coding": [ {
          "system": "http://snomed.info/sct",
          "code": "4525004"
        } ]
      } ],
      "subject": {
        "reference": "Patient/bda91aac-a815-4a22-b505-36cef1080d49"
      },
      "period": {
        "start": "2026-10-10T09:00:00.000+00:00",
        "end": "2026-10-10T09:15:00.000+00:00"
      },
      "length": {
        "value": 0,
        "unit": "days"
      }
    },
    "request": {
      "method": "PUT",
      "url": "Encounter/b495b66b-f5a1-4a4e-8f83-1de0c81817ad"
    }
  }, {
    "fullUrl": "https://madie.cms.gov/Encounter/62b0669f-3571-498b-af15-c0fd0d4dfe33",
    "resource": {
      "resourceType": "Encounter",
      "id": "62b0669f-3571-498b-af15-c0fd0d4dfe33",
      "meta": {
        "profile": [ "http://hl7.org/fhir/us/qicore/StructureDefinition/qicore-encounter" ]
      },
      "status": "finished",
      "class": {
        "system": "http://terminology.hl7.org/CodeSystem/v3-ActCode",
        "code": "OBSENC",
        "display": "observation encounter",
        "userSelected": true
      },
      "type": [ {
        "coding": [ {
          "system": "http://snomed.info/sct",
          "code": "448851000124103"
        } ]
      } ],
      "subject": {
        "reference": "Patient/bda91aac-a815-4a22-b505-36cef1080d49"
      },
      "period": {
        "start": "2026-10-10T09:16:00.000+00:00",
        "end": "2026-10-10T10:15:00.000+00:00"
      },
      "length": {
        "value": 0,
        "unit": "days"
      }
    },
    "request": {
      "method": "PUT",
      "url": "Encounter/62b0669f-3571-498b-af15-c0fd0d4dfe33"
    }
  }, {
    "fullUrl": "https://madie.cms.gov/Encounter/24181391-d82b-4f6d-9ae9-c842ed81b466",
    "resource": {
      "resourceType": "Encounter",
      "id": "24181391-d82b-4f6d-9ae9-c842ed81b466",
      "meta": {
        "profile": [ "http://hl7.org/fhir/us/qicore/StructureDefinition/qicore-encounter" ]
      },
      "status": "finished",
      "class": {
        "system": "http://terminology.hl7.org/CodeSystem/v3-ActCode",
        "code": "IMP",
        "display": "inpatient encounter",
        "userSelected": true
      },
      "type": [ {
        "coding": [ {
          "system": "http://snomed.info/sct",
          "code": "32485007"
        } ]
      } ],
      "subject": {
        "reference": "Patient/bda91aac-a815-4a22-b505-36cef1080d49"
      },
      "period": {
        "start": "2026-10-10T11:16:00.000+00:00",
        "end": "2026-10-12T11:15:00.000+00:00"
      },
      "length": {
        "value": 2,
        "unit": "days"
      },
      "reasonReference": [ {
        "reference": "Condition/f9a3f457-a49b-44c7-9cb4-e57e6c1ad7f5"
      } ]
    },
    "request": {
      "method": "PUT",
      "url": "Encounter/24181391-d82b-4f6d-9ae9-c842ed81b466"
    }
  }, {
    "fullUrl": "https://madie.cms.gov/claim/5ca62962b8484628b8de1ec5",
    "resource": {
      "resourceType": "Claim",
      "id": "5ca62962b8484628b8de1ec5",
      "meta": {
        "profile": [ "http://hl7.org/fhir/us/qicore/StructureDefinition/qicore-claim" ]
      },
      "status": "active",
      "type": {
        "coding": [ {
          "system": "http://terminology.hl7.org/CodeSystem/claim-type",
          "code": "institutional"
        } ]
      },
      "use": "claim",
      "patient": {
        "reference": "Patient/d170a0a8-b5ad-4303-b6df-e304dd5f92ad"
      },
      "created": "2026-12-01",
      "provider": {
        "reference": "Practitioner/practitioner-123456"
      },
      "priority": {
        "coding": [ {
          "system": "http://terminology.hl7.org/CodeSystem/processpriority",
          "code": "normal"
        } ]
      },
      "diagnosis": [ {
        "sequence": 1,
        "diagnosisCodeableConcept": {
          "coding": [ {
            "system": "http://hl7.org/fhir/sid/icd-10-cm",
            "code": "I63.00"
          } ]
        },
        "type": [ {
          "coding": [ {
            "system": "http://terminology.hl7.org/CodeSystem/ex-diagnosistype",
            "code": "principal"
          } ]
        } ]
      } ],
      "insurance": [ {
        "sequence": 1,
        "focal": true,
        "coverage": {
          "reference": "Coverage/5fa041661c76ba66d9959367"
        }
      } ],
      "item": [ {
        "sequence": 1,
        "diagnosisSequence": [ 1 ],
        "productOrService": {
          "coding": [ {
            "system": "http://terminology.hl7.org/CodeSystem/ex-USCLS",
            "code": "99555"
          } ]
        },
        "encounter": [ {
          "reference": "Encounter/24181391-d82b-4f6d-9ae9-c842ed81b466"
        } ]
      } ]
    },
    "request": {
      "method": "PUT",
      "url": "Claim/5ca62962b8484628b8de1ec5"
    }
  }, {
    "fullUrl": "https://madie.cms.gov/MedicationAdministration/acf23846-3fa9-4df7-bf58-cc588ae15bf9",
    "resource": {
      "resourceType": "MedicationAdministration",
      "id": "acf23846-3fa9-4df7-bf58-cc588ae15bf9",
      "meta": {
        "profile": [ "http://hl7.org/fhir/us/qicore/StructureDefinition/qicore-medicationadministration" ]
      },
      "status": "completed",
      "medicationCodeableConcept": {
        "coding": [ {
          "system": "http://www.nlm.nih.gov/research/umls/rxnorm",
          "code": "855812",
          "display": "prasugrel 10 MG Oral Tablet",
          "userSelected": true
        } ]
      },
      "subject": {
        "reference": "Patient/bda91aac-a815-4a22-b505-36cef1080d49"
      },
      "effectivePeriod": {
        "start": "2026-10-10T09:16:00.000+00:00"
      }
    },
    "request": {
      "method": "PUT",
      "url": "MedicationAdministration/acf23846-3fa9-4df7-bf58-cc588ae15bf9"
    }
  }, {
    "fullUrl": "https://madie.cms.gov/Coverage/d5933fe9-4ad3-4ac1-a1fe-cf5ae8c512c6",
    "resource": {
      "resourceType": "Coverage",
      "id": "d5933fe9-4ad3-4ac1-a1fe-cf5ae8c512c6",
      "status": "active",
      "subscriberId": "523435",
      "beneficiary": {
        "reference": "Patient/bda91aac-a815-4a22-b505-36cef1080d49"
      },
      "relationship": {
        "coding": [ {
          "system": "http://terminology.hl7.org/CodeSystem/subscriber-relationship",
          "code": "self"
        } ]
      },
      "period": {
        "start": "1976-09-26T08:00:00.000+00:00"
      },
      "payor": [ {
        "reference": "Organization/357fd066-b823-4f5b-b36f-04533832dbab"
      } ]
    },
    "request": {
      "method": "PUT",
      "url": "Coverage/d5933fe9-4ad3-4ac1-a1fe-cf5ae8c512c6"
    }
  }, {
    "fullUrl": "https://madie.cms.gov/Condition/f9a3f457-a49b-44c7-9cb4-e57e6c1ad7f5",
    "resource": {
      "resourceType": "Condition",
      "id": "f9a3f457-a49b-44c7-9cb4-e57e6c1ad7f5",
      "meta": {
        "profile": [ "http://hl7.org/fhir/us/qicore/StructureDefinition/qicore-condition-encounter-diagnosis" ]
      },
      "clinicalStatus": {
        "coding": [ {
          "system": "http://terminology.hl7.org/CodeSystem/condition-clinical",
          "code": "active"
        } ]
      },
      "verificationStatus": {
        "coding": [ {
          "system": "http://terminology.hl7.org/CodeSystem/condition-ver-status",
          "code": "confirmed"
        } ]
      },
      "category": [ {
        "coding": [ {
          "system": "http://terminology.hl7.org/CodeSystem/condition-category",
          "code": "encounter-diagnosis",
          "display": "Encounter Diagnosis"
        } ]
      } ],
      "code": {
        "coding": [ {
          "system": "http://snomed.info/sct",
          "version": "2020-09",
          "code": "111297002",
          "display": "Nonparalytic stroke (disorder)",
          "userSelected": true
        } ]
      },
      "subject": {
        "reference": "Patient/bda91aac-a815-4a22-b505-36cef1080d49"
      },
      "recordedDate": "2026-08-06T08:00:00.000+00:00"
    },
    "request": {
      "method": "PUT",
      "url": "Condition/f9a3f457-a49b-44c7-9cb4-e57e6c1ad7f5"
    }
  }, {
    "fullUrl": "https://madie.cms.gov/Organization/357fd066-b823-4f5b-b36f-04533832dbab",
    "resource": {
      "resourceType": "Organization",
      "id": "357fd066-b823-4f5b-b36f-04533832dbab",
      "meta": {
        "profile": [ "http://hl7.org/fhir/us/qicore/StructureDefinition/qicore-organization" ]
      },
      "identifier": [ {
        "use": "temp",
        "system": "urn:oid:2.16.840.1.113883.4.4",
        "value": "21-3259825"
      } ],
      "active": true,
      "type": [ {
        "coding": [ {
          "system": "http://terminology.hl7.org/CodeSystem/organization-type",
          "code": "pay",
          "display": "Payer"
        } ]
      } ],
      "name": "Blue Cross Blue Shield of Texas",
      "telecom": [ {
        "system": "phone",
        "value": "(+1) 972-766-6900"
      } ],
      "address": [ {
        "use": "billing",
        "type": "postal",
        "line": [ "P.O. Box 660044" ],
        "city": "Dallas",
        "state": "TX",
        "postalCode": "75266-0044",
        "country": "USA"
      } ]
    },
    "request": {
      "method": "PUT",
      "url": "Organization/357fd066-b823-4f5b-b36f-04533832dbab"
    }
  }, {
    "fullUrl": "https://madie.cms.gov/MeasureReport/adcd89d1-4eb0-48a6-a661-a0f4627c7571",
    "resource": {
      "resourceType": "MeasureReport",
      "id": "adcd89d1-4eb0-48a6-a661-a0f4627c7571",
      "meta": {
        "profile": [ "http://hl7.org/fhir/us/cqfmeasures/StructureDefinition/test-case-cqfm" ]
      },
      "contained": [ {
        "resourceType": "Parameters",
        "id": "967f9216-5749-451f-8bbd-66231630e715-parameters",
        "parameter": [ {
          "name": "subject",
          "valueString": "bda91aac-a815-4a22-b505-36cef1080d49"
        } ]
      } ],
      "extension": [ {
        "url": "http://hl7.org/fhir/StructureDefinition/cqf-inputParameters",
        "valueReference": {
          "reference": "#967f9216-5749-451f-8bbd-66231630e715-parameters"
        }
      }, {
        "url": "http://hl7.org/fhir/us/cqfmeasures/StructureDefinition/cqfm-testCaseDescription",
        "valueMarkdown": "Patient receives Ticagrelor during Obs. ED ends 1 min before Obs.Obs ends 1 min before IP all on the same day. Testing Day of operator with HospitalizationWithObservation function.\n"
      } ],
      "modifierExtension": [ {
        "url": "http://hl7.org/fhir/us/cqfmeasures/StructureDefinition/cqfm-isTestCase",
        "valueBoolean": true
      } ],
      "status": "complete",
      "type": "individual",
      "measure": "https://madie.cms.gov/Measure/CMS72FHIRSTKAntithromboticDay2",
      "period": {
        "start": "2026-01-01",
        "end": "2026-12-31"
      },
      "group": [ {
        "id": "Group_1",
        "population": [ {
          "id": "InitialPopulation_1",
          "code": {
            "coding": [ {
              "system": "http://terminology.hl7.org/CodeSystem/measure-population",
              "code": "initial-population",
              "display": "Initial Population"
            } ]
          },
          "count": 1
        }, {
          "id": "Denominator_1",
          "code": {
            "coding": [ {
              "system": "http://terminology.hl7.org/CodeSystem/measure-population",
              "code": "denominator",
              "display": "Denominator"
            } ]
          },
          "count": 1
        }, {
          "id": "DenominatorExclusion_1",
          "code": {
            "coding": [ {
              "system": "http://terminology.hl7.org/CodeSystem/measure-population",
              "code": "denominator-exclusion",
              "display": "Denominator Exclusion"
            } ]
          },
          "count": 0
        }, {
          "id": "Numerator_1",
          "code": {
            "coding": [ {
              "system": "http://terminology.hl7.org/CodeSystem/measure-population",
              "code": "numerator",
              "display": "Numerator"
            } ]
          },
          "count": 0
        }, {
          "id": "DenominatorException_1",
          "code": {
            "coding": [ {
              "system": "http://terminology.hl7.org/CodeSystem/measure-population",
              "code": "denominator-exception",
              "display": "Denominator Exception"
            } ]
          },
          "count": 1
        } ],
        "measureScore": {
          "value": 0.0
        }
      } ],
      "evaluatedResource": [ {
        "reference": "Patient/bda91aac-a815-4a22-b505-36cef1080d49"
      }, {
        "reference": "Encounter/b495b66b-f5a1-4a4e-8f83-1de0c81817ad"
      }, {
        "reference": "Encounter/62b0669f-3571-498b-af15-c0fd0d4dfe33"
      }, {
        "reference": "Encounter/24181391-d82b-4f6d-9ae9-c842ed81b466"
      }, {
        "reference": "Claim/5ca62962b8484628b8de1ec5"
      }, {
        "reference": "MedicationAdministration/acf23846-3fa9-4df7-bf58-cc588ae15bf9"
      }, {
        "reference": "Coverage/d5933fe9-4ad3-4ac1-a1fe-cf5ae8c512c6"
      }, {
        "reference": "Condition/f9a3f457-a49b-44c7-9cb4-e57e6c1ad7f5"
      }, {
        "reference": "Organization/357fd066-b823-4f5b-b36f-04533832dbab"
      } ]
    },
    "request": {
      "method": "PUT",
      "url": "MeasureReport/adcd89d1-4eb0-48a6-a661-a0f4627c7571"
    }
  } ]
}