{
  "resourceType": "Bundle",
  "id": "tests-RVwithRespRate",
  "type": "transaction",
  "entry": [ {
    "fullUrl": "https://madie.cms.gov/Patient/9e0ef8df-189b-40f1-9eac-724254bd86e2",
    "resource": {
      "resourceType": "Patient",
      "id": "9e0ef8df-189b-40f1-9eac-724254bd86e2",
      "meta": {
        "profile": [ "http://hl7.org/fhir/us/qicore/StructureDefinition/qicore-patient" ]
      },
      "extension": [ {
        "url": "http://hl7.org/fhir/us/core/StructureDefinition/us-core-race",
        "extension": [ {
          "url": "ombCategory",
          "valueCoding": {
            "system": "urn:oid:2.16.840.1.113883.6.238",
            "code": "1002-5",
            "display": "American Indian or Alaska Native",
            "userSelected": true
          }
        }, {
          "url": "text",
          "valueString": "American Indian or Alaska Native"
        }, {
          "url": "detailed",
          "valueCoding": {
            "system": "urn:oid:2.16.840.1.113883.6.238",
            "code": "1653-5",
            "display": "Tohono O'Odham"
          }
        } ]
      }, {
        "url": "http://hl7.org/fhir/us/core/StructureDefinition/us-core-ethnicity",
        "extension": [ {
          "url": "ombCategory",
          "valueCoding": {
            "system": "urn:oid:2.16.840.1.113883.6.238",
            "code": "2135-2",
            "display": "Hispanic or Latino",
            "userSelected": true
          }
        }, {
          "url": "text",
          "valueString": "Not Hispanic or Latino"
        }, {
          "url": "detailed",
          "valueCoding": {
            "system": "urn:oid:2.16.840.1.113883.6.238",
            "code": "2153-5",
            "display": "Mexican American Indian"
          }
        } ]
      }, {
        "url": "http://hl7.org/fhir/us/core/StructureDefinition/us-core-sex",
        "valueCode": "248153007"
      } ],
      "identifier": [ {
        "system": "http://hospital.smarthealthit.org",
        "value": "999999999"
      } ],
      "name": [ {
        "family": "Example",
        "given": [ "Patient" ]
      } ],
      "gender": "male",
      "birthDate": "1975-01-01"
    },
    "request": {
      "method": "PUT",
      "url": "Patient/9e0ef8df-189b-40f1-9eac-724254bd86e2"
    }
  }, {
    "fullUrl": "https://madie.cms.gov/Encounter/c6e96324-6f6a-46a4-9f75-ededecbc4f40",
    "resource": {
      "resourceType": "Encounter",
      "id": "c6e96324-6f6a-46a4-9f75-ededecbc4f40",
      "meta": {
        "profile": [ "http://hl7.org/fhir/us/qicore/StructureDefinition/qicore-encounter" ]
      },
      "status": "finished",
      "class": {
        "system": "http://terminology.hl7.org/CodeSystem/v3-ActCode",
        "code": "EMER",
        "display": "emergency"
      },
      "type": [ {
        "coding": [ {
          "system": "http://snomed.info/sct",
          "code": "4525004",
          "display": "Emergency department patient visit (procedure)"
        } ]
      } ],
      "subject": {
        "reference": "Patient/9e0ef8df-189b-40f1-9eac-724254bd86e2"
      },
      "period": {
        "start": "2026-09-29T08:00:00.000+00:00",
        "end": "2026-09-29T20:00:00.000+00:00"
      }
    },
    "request": {
      "method": "PUT",
      "url": "Encounter/c6e96324-6f6a-46a4-9f75-ededecbc4f40"
    }
  }, {
    "fullUrl": "https://madie.cms.gov/Encounter/8cc47cfc-a44c-4daf-9452-21e018878c9b",
    "resource": {
      "resourceType": "Encounter",
      "id": "8cc47cfc-a44c-4daf-9452-21e018878c9b",
      "meta": {
        "profile": [ "http://hl7.org/fhir/us/qicore/StructureDefinition/qicore-encounter" ]
      },
      "status": "finished",
      "class": {
        "system": "http://terminology.hl7.org/CodeSystem/v3-ActCode",
        "code": "IMP",
        "display": "inpatient encounter"
      },
      "type": [ {
        "coding": [ {
          "system": "http://snomed.info/sct",
          "code": "183452005",
          "display": "Emergency hospital admission (procedure)"
        } ]
      } ],
      "subject": {
        "reference": "Patient/9e0ef8df-189b-40f1-9eac-724254bd86e2"
      },
      "period": {
        "start": "2026-09-29T20:01:00.000+00:00",
        "end": "2026-10-03T20:00:00.000+00:00"
      },
      "reasonReference": [ {
        "reference": "Condition/d90e8753-d232-41ac-ba91-f8a693e3d944"
      } ]
    },
    "request": {
      "method": "PUT",
      "url": "Encounter/8cc47cfc-a44c-4daf-9452-21e018878c9b"
    }
  }, {
    "fullUrl": "https://madie.cms.gov/Observation/bf41b236-0eba-456b-adef-88a45b8337ef",
    "resource": {
      "resourceType": "Observation",
      "id": "bf41b236-0eba-456b-adef-88a45b8337ef",
      "meta": {
        "profile": [ "http://hl7.org/fhir/us/qicore/StructureDefinition/qicore-observation-lab" ]
      },
      "status": "final",
      "category": [ {
        "coding": [ {
          "system": "http://terminology.hl7.org/CodeSystem/observation-category",
          "code": "laboratory",
          "display": "Laboratory"
        } ]
      } ],
      "code": {
        "coding": [ {
          "system": "http://loinc.org",
          "code": "21232-4",
          "display": "Creatinine [Mass/volume] in Serum or Plasma"
        } ]
      },
      "subject": {
        "reference": "Patient/9e0ef8df-189b-40f1-9eac-724254bd86e2"
      },
      "effectiveDateTime": "2026-10-01T08:01:00.000+00:00",
      "valueQuantity": {
        "value": 0.9,
        "unit": "mg/dL",
        "system": "http://unitsofmeasure.org",
        "code": "mg/dL"
      }
    },
    "request": {
      "method": "PUT",
      "url": "Observation/bf41b236-0eba-456b-adef-88a45b8337ef"
    }
  }, {
    "fullUrl": "https://madie.cms.gov/Observation/711d6d55-2693-4321-ae4e-c2b6ce23919f",
    "resource": {
      "resourceType": "Observation",
      "id": "711d6d55-2693-4321-ae4e-c2b6ce23919f",
      "meta": {
        "profile": [ "http://hl7.org/fhir/us/qicore/StructureDefinition/qicore-observation-lab" ]
      },
      "status": "final",
      "category": [ {
        "coding": [ {
          "system": "http://terminology.hl7.org/CodeSystem/observation-category",
          "code": "laboratory",
          "display": "Laboratory"
        } ]
      } ],
      "code": {
        "coding": [ {
          "system": "http://loinc.org",
          "code": "21232-4",
          "display": "Creatinine [Mass/volume] in Serum or Plasma"
        } ]
      },
      "subject": {
        "reference": "Patient/9e0ef8df-189b-40f1-9eac-724254bd86e2"
      },
      "effectiveDateTime": "2026-10-01T07:00:00.000+00:00",
      "valueQuantity": {
        "value": 0.91,
        "unit": "mg/dL",
        "system": "http://unitsofmeasure.org",
        "code": "mg/dL"
      }
    },
    "request": {
      "method": "PUT",
      "url": "Observation/711d6d55-2693-4321-ae4e-c2b6ce23919f"
    }
  }, {
    "fullUrl": "https://madie.cms.gov/Condition/d90e8753-d232-41ac-ba91-f8a693e3d944",
    "resource": {
      "resourceType": "Condition",
      "id": "d90e8753-d232-41ac-ba91-f8a693e3d944",
      "meta": {
        "profile": [ "http://hl7.org/fhir/us/qicore/StructureDefinition/qicore-condition-encounter-diagnosis" ]
      },
      "clinicalStatus": {
        "coding": [ {
          "system": "http://terminology.hl7.org/CodeSystem/condition-clinical",
          "code": "active",
          "display": "Active"
        } ]
      },
      "verificationStatus": {
        "coding": [ {
          "system": "http://terminology.hl7.org/CodeSystem/condition-ver-status",
          "code": "confirmed",
          "display": "Confirmed"
        } ]
      },
      "code": {
        "coding": [ {
          "system": "http://hl7.org/fhir/sid/icd-10-cm",
          "code": "S37.061A",
          "display": "Major laceration of right kidney, initial encounter"
        } ],
        "text": "Major laceration of right kidney, initial encounter"
      },
      "subject": {
        "reference": "Patient/9e0ef8df-189b-40f1-9eac-724254bd86e2"
      },
      "encounter": {
        "reference": "Encounter/8cc47cfc-a44c-4daf-9452-21e018878c9b"
      }
    },
    "request": {
      "method": "PUT",
      "url": "Condition/d90e8753-d232-41ac-ba91-f8a693e3d944"
    }
  }, {
    "fullUrl": "https://madie.cms.gov/Observation/556cae3a-8c3c-4e78-8cad-26816a49ce81",
    "resource": {
      "resourceType": "Observation",
      "id": "556cae3a-8c3c-4e78-8cad-26816a49ce81",
      "meta": {
        "profile": [ "http://hl7.org/fhir/us/qicore/StructureDefinition/qicore-observation-lab" ]
      },
      "status": "final",
      "category": [ {
        "coding": [ {
          "system": "http://terminology.hl7.org/CodeSystem/observation-category",
          "code": "laboratory",
          "display": "Laboratory"
        } ]
      } ],
      "code": {
        "coding": [ {
          "system": "http://loinc.org",
          "code": "21232-4",
          "display": "Creatinine [Mass/volume] in Serum or Plasma"
        } ]
      },
      "subject": {
        "reference": "Patient/9e0ef8df-189b-40f1-9eac-724254bd86e2"
      },
      "effectiveDateTime": "2026-10-01T07:35:00.000+00:00",
      "valueQuantity": {
        "value": 0.91,
        "unit": "mg/dL",
        "system": "http://unitsofmeasure.org",
        "code": "mg/dL"
      }
    },
    "request": {
      "method": "PUT",
      "url": "Observation/556cae3a-8c3c-4e78-8cad-26816a49ce81"
    }
  }, {
    "fullUrl": "https://madie.cms.gov/Observation/dd4b40ac-9c5e-4353-af1e-e27bb29a9903",
    "resource": {
      "resourceType": "Observation",
      "id": "dd4b40ac-9c5e-4353-af1e-e27bb29a9903",
      "meta": {
        "profile": [ "http://hl7.org/fhir/us/core/StructureDefinition/us-core-respiratory-rate" ]
      },
      "status": "final",
      "category": [ {
        "coding": [ {
          "system": "http://terminology.hl7.org/CodeSystem/observation-category",
          "code": "vital-signs",
          "display": "Vital Signs"
        } ]
      } ],
      "code": {
        "coding": [ {
          "system": "http://loinc.org",
          "code": "9279-1",
          "display": "Respiratory rate"
        } ],
        "text": "Respiratory rate"
      },
      "subject": {
        "reference": "Patient/9e0ef8df-189b-40f1-9eac-724254bd86e2"
      },
      "effectiveDateTime": "2026-10-01T09:00:00.000+00:00",
      "valueQuantity": {
        "value": 18,
        "unit": "breaths/minute",
        "system": "http://unitsofmeasure.org",
        "code": "/min"
      }
    },
    "request": {
      "method": "PUT",
      "url": "Observation/dd4b40ac-9c5e-4353-af1e-e27bb29a9903"
    }
  }, {
    "fullUrl": "https://madie.cms.gov/Observation/3d552c24-b7f9-47bc-aeff-d6990b3b581c",
    "resource": {
      "resourceType": "Observation",
      "id": "3d552c24-b7f9-47bc-aeff-d6990b3b581c",
      "meta": {
        "profile": [ "http://hl7.org/fhir/us/core/StructureDefinition/us-core-body-temperature" ]
      },
      "status": "final",
      "category": [ {
        "coding": [ {
          "system": "http://terminology.hl7.org/CodeSystem/observation-category",
          "code": "vital-signs",
          "display": "Vital Signs"
        } ]
      } ],
      "code": {
        "coding": [ {
          "system": "http://loinc.org",
          "code": "8310-5",
          "display": "Body temperature"
        } ],
        "text": "Body temperature"
      },
      "subject": {
        "reference": "Patient/9e0ef8df-189b-40f1-9eac-724254bd86e2"
      },
      "encounter": {
        "reference": "Encounter/8cc47cfc-a44c-4daf-9452-21e018878c9b"
      },
      "effectiveDateTime": "2026-10-01T08:30:00.000+00:00",
      "valueQuantity": {
        "value": 98.6
      }
    },
    "request": {
      "method": "PUT",
      "url": "Observation/3d552c24-b7f9-47bc-aeff-d6990b3b581c"
    }
  }, {
    "fullUrl": "https://madie.cms.gov/MeasureReport/7762ad22-aecc-4ffd-bc5b-433e2d2bb803",
    "resource": {
      "resourceType": "MeasureReport",
      "id": "7762ad22-aecc-4ffd-bc5b-433e2d2bb803",
      "meta": {
        "profile": [ "http://hl7.org/fhir/us/cqfmeasures/StructureDefinition/test-case-cqfm" ]
      },
      "contained": [ {
        "resourceType": "Parameters",
        "id": "cdcb02e6-3266-4858-8cf9-8b2a201c0b37-parameters",
        "parameter": [ {
          "name": "subject",
          "valueString": "9e0ef8df-189b-40f1-9eac-724254bd86e2"
        } ]
      } ],
      "extension": [ {
        "url": "http://hl7.org/fhir/StructureDefinition/cqf-inputParameters",
        "valueReference": {
          "reference": "#cdcb02e6-3266-4858-8cf9-8b2a201c0b37-parameters"
        }
      }, {
        "url": "http://hl7.org/fhir/us/cqfmeasures/StructureDefinition/cqfm-testCaseDescription",
        "valueMarkdown": "RV Encounters that return the first Respiratory Rate"
      } ],
      "modifierExtension": [ {
        "url": "http://hl7.org/fhir/us/cqfmeasures/StructureDefinition/cqfm-isTestCase",
        "valueBoolean": true
      } ],
      "status": "complete",
      "type": "individual",
      "measure": "https://madie.cms.gov/Measure/CMS832FHIRHHAKI",
      "period": {
        "start": "2026-01-01",
        "end": "2026-12-31"
      },
      "group": [ {
        "id": "Group_1",
        "population": [ {
          "id": "InitialPopulation_1",
          "code": {
            "coding": [ {
              "system": "http://terminology.hl7.org/CodeSystem/measure-population",
              "code": "initial-population",
              "display": "Initial Population"
            } ]
          },
          "count": 1
        }, {
          "id": "Denominator_1",
          "code": {
            "coding": [ {
              "system": "http://terminology.hl7.org/CodeSystem/measure-population",
              "code": "denominator",
              "display": "Denominator"
            } ]
          },
          "count": 1
        }, {
          "id": "DenominatorExclusion_1",
          "code": {
            "coding": [ {
              "system": "http://terminology.hl7.org/CodeSystem/measure-population",
              "code": "denominator-exclusion",
              "display": "Denominator Exclusion"
            } ]
          },
          "count": 1
        }, {
          "id": "Numerator_1",
          "code": {
            "coding": [ {
              "system": "http://terminology.hl7.org/CodeSystem/measure-population",
              "code": "numerator",
              "display": "Numerator"
            } ]
          },
          "count": 0
        } ],
        "measureScore": {
          "value": 0.0
        }
      } ],
      "evaluatedResource": [ {
        "reference": "Patient/9e0ef8df-189b-40f1-9eac-724254bd86e2"
      }, {
        "reference": "Encounter/c6e96324-6f6a-46a4-9f75-ededecbc4f40"
      }, {
        "reference": "Encounter/8cc47cfc-a44c-4daf-9452-21e018878c9b"
      }, {
        "reference": "Observation/bf41b236-0eba-456b-adef-88a45b8337ef"
      }, {
        "reference": "Observation/711d6d55-2693-4321-ae4e-c2b6ce23919f"
      }, {
        "reference": "Condition/d90e8753-d232-41ac-ba91-f8a693e3d944"
      }, {
        "reference": "Observation/556cae3a-8c3c-4e78-8cad-26816a49ce81"
      }, {
        "reference": "Observation/dd4b40ac-9c5e-4353-af1e-e27bb29a9903"
      }, {
        "reference": "Observation/3d552c24-b7f9-47bc-aeff-d6990b3b581c"
      } ]
    },
    "request": {
      "method": "PUT",
      "url": "MeasureReport/7762ad22-aecc-4ffd-bc5b-433e2d2bb803"
    }
  } ]
}