{
  "resourceType": "Bundle",
  "id": "641373514b11b147841ab8d8",
  "type": "transaction",
  "entry": [ {
    "fullUrl": "https://madie.cms.gov/Patient/4354fbec-b63a-46ce-8465-ec82710ea1c6",
    "resource": {
      "resourceType": "Patient",
      "id": "4354fbec-b63a-46ce-8465-ec82710ea1c6",
      "meta": {
        "profile": [ "http://hl7.org/fhir/us/qicore/StructureDefinition/qicore-patient" ]
      },
      "extension": [ {
        "url": "http://hl7.org/fhir/us/core/StructureDefinition/us-core-race",
        "extension": [ {
          "url": "ombCategory",
          "valueCoding": {
            "system": "urn:oid:2.16.840.1.113883.6.238",
            "code": "2054-5",
            "display": "Black or African American",
            "userSelected": true
          }
        }, {
          "url": "text",
          "valueString": "Black or African American"
        } ]
      }, {
        "url": "http://hl7.org/fhir/us/core/StructureDefinition/us-core-ethnicity",
        "extension": [ {
          "url": "ombCategory",
          "valueCoding": {
            "system": "urn:oid:2.16.840.1.113883.6.238",
            "code": "2135-2",
            "display": "Hispanic or Latino",
            "userSelected": true
          }
        }, {
          "url": "text",
          "valueString": "Hispanic or Latino"
        } ]
      } ],
      "identifier": [ {
        "type": {
          "coding": [ {
            "system": "http://terminology.hl7.org/CodeSystem/v2-0203",
            "code": "MR"
          } ]
        },
        "system": "https://bonnie-fhir.healthit.gov/",
        "value": "641373514b11b147841ab8d8"
      } ],
      "name": [ {
        "family": "DENEXPass",
        "given": [ "PerformPalliativeHospCare" ]
      } ],
      "gender": "male",
      "birthDate": "1991-05-08"
    },
    "request": {
      "method": "PUT",
      "url": "Patient/4354fbec-b63a-46ce-8465-ec82710ea1c6"
    }
  }, {
    "fullUrl": "https://madie.cms.gov/Condition/2ca91363-c9f1-48b7-9268-b01de966a2ca",
    "resource": {
      "resourceType": "Condition",
      "id": "2ca91363-c9f1-48b7-9268-b01de966a2ca",
      "meta": {
        "profile": [ "http://hl7.org/fhir/us/qicore/StructureDefinition/qicore-condition-encounter-diagnosis" ]
      },
      "clinicalStatus": {
        "coding": [ {
          "system": "http://terminology.hl7.org/CodeSystem/condition-clinical",
          "code": "active",
          "display": "active",
          "userSelected": true
        } ]
      },
      "category": [ {
        "coding": [ {
          "system": "http://terminology.hl7.org/CodeSystem/condition-category",
          "code": "encounter-diagnosis",
          "display": "Encounter Diagnosis",
          "userSelected": true
        } ]
      } ],
      "code": {
        "coding": [ {
          "system": "http://snomed.info/sct",
          "version": "2021-09",
          "code": "102781000119107",
          "display": "Sensory neuropathy due to type 1 diabetes mellitus (disorder)",
          "userSelected": true
        } ]
      },
      "subject": {
        "reference": "Patient/4354fbec-b63a-46ce-8465-ec82710ea1c6"
      },
      "onsetDateTime": "2023-10-08T08:00:00.000+00:00"
    },
    "request": {
      "method": "PUT",
      "url": "Condition/2ca91363-c9f1-48b7-9268-b01de966a2ca"
    }
  }, {
    "fullUrl": "https://madie.cms.gov/Encounter/35e83972-34b9-4875-9c4a-efb6d32bbcf7",
    "resource": {
      "resourceType": "Encounter",
      "id": "35e83972-34b9-4875-9c4a-efb6d32bbcf7",
      "meta": {
        "profile": [ "http://hl7.org/fhir/us/qicore/StructureDefinition/qicore-encounter" ]
      },
      "status": "finished",
      "class": {
        "system": "http://terminology.hl7.org/CodeSystem/v3-ActCode",
        "code": "AMB",
        "display": "ambulatory",
        "userSelected": true
      },
      "type": [ {
        "coding": [ {
          "system": "http://snomed.info/sct",
          "version": "2021-09",
          "code": "281036007",
          "display": "Follow-up consultation (procedure)",
          "userSelected": true
        } ]
      } ],
      "subject": {
        "reference": "Patient/4354fbec-b63a-46ce-8465-ec82710ea1c6"
      },
      "period": {
        "start": "2026-03-10T08:00:00.000+00:00",
        "end": "2026-03-10T08:15:00.000+00:00"
      }
    },
    "request": {
      "method": "PUT",
      "url": "Encounter/35e83972-34b9-4875-9c4a-efb6d32bbcf7"
    }
  }, {
    "fullUrl": "https://madie.cms.gov/Procedure/4f18ff41-1ffe-4b38-acfd-897616a96d4e",
    "resource": {
      "resourceType": "Procedure",
      "id": "4f18ff41-1ffe-4b38-acfd-897616a96d4e",
      "meta": {
        "profile": [ "http://hl7.org/fhir/us/qicore/StructureDefinition/qicore-procedure" ]
      },
      "extension": [ {
        "url": "http://hl7.org/fhir/us/qicore/StructureDefinition/qicore-recorded",
        "valueDateTime": "2026-03-13T08:00:00.000+00:00"
      } ],
      "status": "completed",
      "category": {
        "coding": [ {
          "system": "http://snomed.info/sct",
          "code": "103693007",
          "display": "Diagnostic procedure",
          "userSelected": true
        } ]
      },
      "code": {
        "coding": [ {
          "system": "http://snomed.info/sct",
          "version": "2021-09",
          "code": "103735009",
          "display": "Palliative care (regime/therapy)",
          "userSelected": true
        } ]
      },
      "subject": {
        "reference": "Patient/4354fbec-b63a-46ce-8465-ec82710ea1c6"
      },
      "performedDateTime": "2026-03-13T08:00:00.000+00:00"
    },
    "request": {
      "method": "PUT",
      "url": "Procedure/4f18ff41-1ffe-4b38-acfd-897616a96d4e"
    }
  }, {
    "fullUrl": "https://madie.cms.gov/MeasureReport/e60bad0d-695a-4f82-ae72-ec04bf89fad9",
    "resource": {
      "resourceType": "MeasureReport",
      "id": "e60bad0d-695a-4f82-ae72-ec04bf89fad9",
      "meta": {
        "profile": [ "http://hl7.org/fhir/us/cqfmeasures/StructureDefinition/test-case-cqfm" ]
      },
      "contained": [ {
        "resourceType": "Parameters",
        "id": "8fc1dd30-31e5-428e-9786-490c602c7e60-parameters",
        "parameter": [ {
          "name": "subject",
          "valueString": "4354fbec-b63a-46ce-8465-ec82710ea1c6"
        } ]
      } ],
      "extension": [ {
        "url": "http://hl7.org/fhir/StructureDefinition/cqf-inputParameters",
        "valueReference": {
          "reference": "#8fc1dd30-31e5-428e-9786-490c602c7e60-parameters"
        }
      }, {
        "url": "http://hl7.org/fhir/us/cqfmeasures/StructureDefinition/cqfm-testCaseDescription",
        "valueMarkdown": "This patient is 45 years old with a qualifying encounter and active diabetes diagnosis, with palliative or hospice care performed during the measurement period. This case tests the denominator exclusion criteria."
      } ],
      "modifierExtension": [ {
        "url": "http://hl7.org/fhir/us/cqfmeasures/StructureDefinition/cqfm-isTestCase",
        "valueBoolean": true
      } ],
      "status": "complete",
      "type": "individual",
      "measure": "https://madie.cms.gov/Measure/CMS951FHIRKidneyHealthEval",
      "period": {
        "start": "2026-01-01",
        "end": "2026-12-31"
      },
      "group": [ {
        "id": "Group_1",
        "population": [ {
          "id": "InitialPopulation_1",
          "code": {
            "coding": [ {
              "system": "http://terminology.hl7.org/CodeSystem/measure-population",
              "code": "initial-population",
              "display": "Initial Population"
            } ]
          },
          "count": 1
        }, {
          "id": "Denominator_1",
          "code": {
            "coding": [ {
              "system": "http://terminology.hl7.org/CodeSystem/measure-population",
              "code": "denominator",
              "display": "Denominator"
            } ]
          },
          "count": 1
        }, {
          "id": "DenominatorExclusion_1",
          "code": {
            "coding": [ {
              "system": "http://terminology.hl7.org/CodeSystem/measure-population",
              "code": "denominator-exclusion",
              "display": "Denominator Exclusion"
            } ]
          },
          "count": 1
        }, {
          "id": "Numerator_1",
          "code": {
            "coding": [ {
              "system": "http://terminology.hl7.org/CodeSystem/measure-population",
              "code": "numerator",
              "display": "Numerator"
            } ]
          },
          "count": 0
        } ],
        "measureScore": {
          "value": 1.0
        }
      } ],
      "evaluatedResource": [ {
        "reference": "Patient/4354fbec-b63a-46ce-8465-ec82710ea1c6"
      }, {
        "reference": "Condition/2ca91363-c9f1-48b7-9268-b01de966a2ca"
      }, {
        "reference": "Encounter/35e83972-34b9-4875-9c4a-efb6d32bbcf7"
      }, {
        "reference": "Procedure/4f18ff41-1ffe-4b38-acfd-897616a96d4e"
      } ]
    },
    "request": {
      "method": "PUT",
      "url": "MeasureReport/e60bad0d-695a-4f82-ae72-ec04bf89fad9"
    }
  } ]
}