{
  "resourceType": "Bundle",
  "id": "612e6b6802c62a011f2eda22",
  "type": "transaction",
  "entry": [ {
    "fullUrl": "https://madie.cms.gov/Patient/a7a685d8-d95a-489a-a3ae-a461d945bcb3",
    "resource": {
      "resourceType": "Patient",
      "id": "a7a685d8-d95a-489a-a3ae-a461d945bcb3",
      "meta": {
        "profile": [ "http://hl7.org/fhir/us/qicore/StructureDefinition/qicore-patient" ]
      },
      "text": {
        "status": "generated",
        "div": "<div xmlns=\"http://www.w3.org/1999/xhtml\"><div class=\"hapiHeaderText\">EncEndsAfterMP <b>IPPFAIL </b></div><table class=\"hapiPropertyTable\"><tbody><tr><td>Identifier</td><td>3f7ac674da24e00d267fc86596c4ed0e</td></tr><tr><td>Date of birth</td><td><span>01 January 2003</span></td></tr></tbody></table></div>"
      },
      "extension": [ {
        "url": "http://hl7.org/fhir/us/core/StructureDefinition/us-core-race",
        "extension": [ {
          "url": "ombCategory",
          "valueCoding": {
            "system": "urn:oid:2.16.840.1.113883.6.238",
            "code": "1002-5",
            "display": "American Indian or Alaska Native",
            "userSelected": true
          }
        }, {
          "url": "text",
          "valueString": "American Indian or Alaska Native"
        } ]
      }, {
        "url": "http://hl7.org/fhir/us/core/StructureDefinition/us-core-ethnicity",
        "extension": [ {
          "url": "ombCategory",
          "valueCoding": {
            "system": "urn:oid:2.16.840.1.113883.6.238",
            "code": "2135-2",
            "display": "Hispanic or Latino",
            "userSelected": true
          }
        }, {
          "url": "text",
          "valueString": "Hispanic or Latino"
        } ]
      } ],
      "identifier": [ {
        "type": {
          "coding": [ {
            "system": "http://terminology.hl7.org/CodeSystem/v2-0203",
            "code": "MR"
          } ]
        },
        "system": "https://bonnie-fhir.healthit.gov/",
        "value": "612e6b6802c62a011f2eda22"
      } ],
      "active": true,
      "name": [ {
        "use": "usual",
        "family": "IPPFail",
        "given": [ "EncEndsAfterMP" ]
      } ],
      "gender": "male",
      "birthDate": "2004-01-01"
    },
    "request": {
      "method": "PUT",
      "url": "Patient/a7a685d8-d95a-489a-a3ae-a461d945bcb3"
    }
  }, {
    "fullUrl": "https://madie.cms.gov/Encounter/b43a7b59-3740-4e6d-91e7-15e41cbbecb1",
    "resource": {
      "resourceType": "Encounter",
      "id": "b43a7b59-3740-4e6d-91e7-15e41cbbecb1",
      "meta": {
        "profile": [ "http://hl7.org/fhir/us/qicore/StructureDefinition/qicore-encounter" ]
      },
      "status": "finished",
      "class": {
        "system": "http://terminology.hl7.org/CodeSystem/v3-ActCode",
        "code": "IMP",
        "display": "inpatient encounter"
      },
      "type": [ {
        "coding": [ {
          "system": "http://snomed.info/sct",
          "code": "8715000"
        } ]
      } ],
      "subject": {
        "reference": "Patient/a7a685d8-d95a-489a-a3ae-a461d945bcb3"
      },
      "period": {
        "start": "2026-12-01T00:00:00.000+00:00",
        "end": "2027-01-01T00:00:00.000+00:00"
      },
      "length": {
        "value": 31.0,
        "unit": "days"
      }
    },
    "request": {
      "method": "PUT",
      "url": "Encounter/b43a7b59-3740-4e6d-91e7-15e41cbbecb1"
    }
  }, {
    "fullUrl": "https://madie.cms.gov/Coverage/f474f0b4-1aea-449a-b2d9-c98c3169e569",
    "resource": {
      "resourceType": "Coverage",
      "id": "f474f0b4-1aea-449a-b2d9-c98c3169e569",
      "status": "active",
      "beneficiary": {
        "reference": "Patient/a7a685d8-d95a-489a-a3ae-a461d945bcb3"
      },
      "period": {
        "start": "2004-01-01T08:00:00.000+00:00"
      },
      "payor": [ {
        "reference": "Organization/98dd0d39-e7e4-4945-b03a-6a13fd6b05ec"
      } ]
    },
    "request": {
      "method": "PUT",
      "url": "Coverage/f474f0b4-1aea-449a-b2d9-c98c3169e569"
    }
  }, {
    "fullUrl": "https://madie.cms.gov/Organization/98dd0d39-e7e4-4945-b03a-6a13fd6b05ec",
    "resource": {
      "resourceType": "Organization",
      "id": "98dd0d39-e7e4-4945-b03a-6a13fd6b05ec",
      "meta": {
        "profile": [ "http://hl7.org/fhir/us/qicore/StructureDefinition/qicore-organization" ]
      },
      "identifier": [ {
        "use": "temp",
        "system": "urn:oid:2.16.840.1.113883.4.4",
        "value": "21-3259825"
      } ],
      "active": true,
      "type": [ {
        "coding": [ {
          "system": "http://terminology.hl7.org/CodeSystem/organization-type",
          "code": "pay",
          "display": "Payer"
        } ]
      } ],
      "name": "Blue Cross Blue Shield of Texas",
      "telecom": [ {
        "system": "phone",
        "value": "(+1) 972-766-6900"
      } ],
      "address": [ {
        "use": "billing",
        "type": "postal",
        "line": [ "P.O. Box 660044" ],
        "city": "Dallas",
        "state": "TX",
        "postalCode": "75266-0044",
        "country": "USA"
      } ]
    },
    "request": {
      "method": "PUT",
      "url": "Organization/98dd0d39-e7e4-4945-b03a-6a13fd6b05ec"
    }
  }, {
    "fullUrl": "https://madie.cms.gov/Practitioner/e09e3a69-505b-4013-a46b-f7e31e1fa9e5",
    "resource": {
      "resourceType": "Practitioner",
      "id": "e09e3a69-505b-4013-a46b-f7e31e1fa9e5",
      "identifier": [ {
        "system": "http://hl7.org/fhir/sid/us-npi",
        "value": "123456"
      } ],
      "name": [ {
        "family": "Evil",
        "prefix": [ "Dr" ]
      } ]
    },
    "request": {
      "method": "PUT",
      "url": "Practitioner/e09e3a69-505b-4013-a46b-f7e31e1fa9e5"
    }
  }, {
    "fullUrl": "https://madie.cms.gov/MeasureReport/f6691c3f-b9eb-453e-b4fc-4c26a2b1315e",
    "resource": {
      "resourceType": "MeasureReport",
      "id": "f6691c3f-b9eb-453e-b4fc-4c26a2b1315e",
      "meta": {
        "profile": [ "http://hl7.org/fhir/us/cqfmeasures/StructureDefinition/test-case-cqfm" ]
      },
      "contained": [ {
        "resourceType": "Parameters",
        "id": "78e338af-82c7-4aea-81be-4b5e5199175c-parameters",
        "parameter": [ {
          "name": "subject",
          "valueString": "a7a685d8-d95a-489a-a3ae-a461d945bcb3"
        } ]
      } ],
      "extension": [ {
        "url": "http://hl7.org/fhir/StructureDefinition/cqf-inputParameters",
        "valueReference": {
          "reference": "#78e338af-82c7-4aea-81be-4b5e5199175c-parameters"
        }
      }, {
        "url": "http://hl7.org/fhir/us/cqfmeasures/StructureDefinition/cqfm-testCaseDescription",
        "valueMarkdown": "Inp.end 1 min after MP.end\n"
      } ],
      "modifierExtension": [ {
        "url": "http://hl7.org/fhir/us/cqfmeasures/StructureDefinition/cqfm-isTestCase",
        "valueBoolean": true
      } ],
      "status": "complete",
      "type": "individual",
      "measure": "https://madie.cms.gov/Measure/CMS108FHIRVTEProphylaxis",
      "period": {
        "start": "2026-01-01",
        "end": "2026-12-31"
      },
      "group": [ {
        "id": "Group_1",
        "population": [ {
          "id": "InitialPopulation_1",
          "code": {
            "coding": [ {
              "system": "http://terminology.hl7.org/CodeSystem/measure-population",
              "code": "initial-population",
              "display": "Initial Population"
            } ]
          },
          "count": 0
        }, {
          "id": "Denominator_1",
          "code": {
            "coding": [ {
              "system": "http://terminology.hl7.org/CodeSystem/measure-population",
              "code": "denominator",
              "display": "Denominator"
            } ]
          },
          "count": 0
        }, {
          "id": "DenominatorExclusion_1",
          "code": {
            "coding": [ {
              "system": "http://terminology.hl7.org/CodeSystem/measure-population",
              "code": "denominator-exclusion",
              "display": "Denominator Exclusion"
            } ]
          },
          "count": 0
        }, {
          "id": "Numerator_1",
          "code": {
            "coding": [ {
              "system": "http://terminology.hl7.org/CodeSystem/measure-population",
              "code": "numerator",
              "display": "Numerator"
            } ]
          },
          "count": 0
        } ],
        "measureScore": {
          "value": 0.0
        }
      } ],
      "evaluatedResource": [ {
        "reference": "Patient/a7a685d8-d95a-489a-a3ae-a461d945bcb3"
      }, {
        "reference": "Encounter/b43a7b59-3740-4e6d-91e7-15e41cbbecb1"
      }, {
        "reference": "Coverage/f474f0b4-1aea-449a-b2d9-c98c3169e569"
      }, {
        "reference": "Organization/98dd0d39-e7e4-4945-b03a-6a13fd6b05ec"
      }, {
        "reference": "Practitioner/e09e3a69-505b-4013-a46b-f7e31e1fa9e5"
      } ]
    },
    "request": {
      "method": "PUT",
      "url": "MeasureReport/f6691c3f-b9eb-453e-b4fc-4c26a2b1315e"
    }
  } ]
}