{
  "resourceType": "Bundle",
  "id": "612e6b0202c62a011f2ec156",
  "type": "transaction",
  "entry": [ {
    "fullUrl": "https://madie.cms.gov/Patient/e9b691aa-5cdd-4f8b-9030-67b151285461",
    "resource": {
      "resourceType": "Patient",
      "id": "e9b691aa-5cdd-4f8b-9030-67b151285461",
      "meta": {
        "profile": [ "http://hl7.org/fhir/us/qicore/StructureDefinition/qicore-patient" ]
      },
      "text": {
        "status": "generated",
        "div": "<div xmlns=\"http://www.w3.org/1999/xhtml\"><div class=\"hapiHeaderText\">SCIP_GynRank1 <b>DENEXPASS </b></div><table class=\"hapiPropertyTable\"><tbody><tr><td>Identifier</td><td>66c70c125db369967b4b164e75338304</td></tr><tr><td>Date of birth</td><td><span>01 September 2000</span></td></tr></tbody></table></div>"
      },
      "extension": [ {
        "url": "http://hl7.org/fhir/us/core/StructureDefinition/us-core-race",
        "extension": [ {
          "url": "ombCategory",
          "valueCoding": {
            "system": "urn:oid:2.16.840.1.113883.6.238",
            "code": "1002-5",
            "display": "American Indian or Alaska Native",
            "userSelected": true
          }
        }, {
          "url": "text",
          "valueString": "American Indian or Alaska Native"
        } ]
      }, {
        "url": "http://hl7.org/fhir/us/core/StructureDefinition/us-core-ethnicity",
        "extension": [ {
          "url": "ombCategory",
          "valueCoding": {
            "system": "urn:oid:2.16.840.1.113883.6.238",
            "code": "2135-2",
            "display": "Hispanic or Latino",
            "userSelected": true
          }
        }, {
          "url": "text",
          "valueString": "Hispanic or Latino"
        } ]
      } ],
      "identifier": [ {
        "type": {
          "coding": [ {
            "system": "http://terminology.hl7.org/CodeSystem/v2-0203",
            "code": "MR"
          } ]
        },
        "system": "https://bonnie-fhir.healthit.gov/",
        "value": "612e6b0202c62a011f2ec156"
      } ],
      "active": true,
      "name": [ {
        "use": "usual",
        "family": "DENEXPass ",
        "given": [ "SCIP_GynRank1" ]
      } ],
      "gender": "male",
      "birthDate": "2001-09-01"
    },
    "request": {
      "method": "PUT",
      "url": "Patient/e9b691aa-5cdd-4f8b-9030-67b151285461"
    }
  }, {
    "fullUrl": "https://madie.cms.gov/Encounter/703506ba-4c9d-45e9-86f8-841d6d86cd89",
    "resource": {
      "resourceType": "Encounter",
      "id": "703506ba-4c9d-45e9-86f8-841d6d86cd89",
      "meta": {
        "profile": [ "http://hl7.org/fhir/us/qicore/StructureDefinition/qicore-encounter" ]
      },
      "status": "finished",
      "class": {
        "system": "http://terminology.hl7.org/CodeSystem/v3-ActCode",
        "code": "IMP",
        "display": "inpatient encounter"
      },
      "type": [ {
        "coding": [ {
          "system": "http://snomed.info/sct",
          "code": "183452005"
        } ]
      } ],
      "subject": {
        "reference": "Patient/e9b691aa-5cdd-4f8b-9030-67b151285461"
      },
      "period": {
        "start": "2026-09-02T06:00:00.000+00:00",
        "end": "2026-12-31T12:59:00.000+00:00"
      },
      "length": {
        "value": 120,
        "unit": "days"
      }
    },
    "request": {
      "method": "PUT",
      "url": "Encounter/703506ba-4c9d-45e9-86f8-841d6d86cd89"
    }
  }, {
    "fullUrl": "https://madie.cms.gov/claim/5ca62962b8484628b8de1ec5",
    "resource": {
      "resourceType": "Claim",
      "id": "5ca62962b8484628b8de1ec5",
      "meta": {
        "profile": [ "http://hl7.org/fhir/us/qicore/StructureDefinition/qicore-claim" ]
      },
      "status": "active",
      "type": {
        "coding": [ {
          "system": "http://terminology.hl7.org/CodeSystem/claim-type",
          "code": "institutional"
        } ]
      },
      "use": "claim",
      "patient": {
        "reference": "Patient/e9b691aa-5cdd-4f8b-9030-67b151285461"
      },
      "created": "2026-12-01",
      "provider": {
        "reference": "Practitioner/45b83b1c-1dd5-4027-9e4f-41561e3457e0"
      },
      "priority": {
        "coding": [ {
          "system": "http://terminology.hl7.org/CodeSystem/processpriority",
          "code": "normal"
        } ]
      },
      "procedure": [ {
        "sequence": 1,
        "type": [ {
          "coding": [ {
            "system": "http://terminology.hl7.org/CodeSystem/ex-procedure-type",
            "code": "primary"
          } ]
        } ],
        "procedureReference": {
          "reference": "Procedure/7b1c3318-475f-4fc1-a5c1-e699bb03e6e9"
        }
      } ],
      "insurance": [ {
        "sequence": 1,
        "focal": true,
        "coverage": {
          "reference": "Coverage/0f4a9087-76e3-45e5-85a4-b3fe51a64330"
        }
      } ],
      "item": [ {
        "sequence": 1,
        "procedureSequence": [ 1 ],
        "productOrService": {
          "coding": [ {
            "system": "http://terminology.hl7.org/CodeSystem/ex-USCLS",
            "code": "99555"
          } ]
        },
        "encounter": [ {
          "reference": "Encounter/703506ba-4c9d-45e9-86f8-841d6d86cd89"
        } ]
      } ]
    },
    "request": {
      "method": "PUT",
      "url": "Claim/5ca62962b8484628b8de1ec5"
    }
  }, {
    "fullUrl": "https://madie.cms.gov/Coverage/0f4a9087-76e3-45e5-85a4-b3fe51a64330",
    "resource": {
      "resourceType": "Coverage",
      "id": "0f4a9087-76e3-45e5-85a4-b3fe51a64330",
      "status": "active",
      "beneficiary": {
        "reference": "Patient/e9b691aa-5cdd-4f8b-9030-67b151285461"
      },
      "period": {
        "start": "2001-09-01T08:00:00.000+00:00"
      },
      "payor": [ {
        "reference": "Organization/1ae8e782-a2ef-42c7-8edd-d71e8d4a78a6"
      } ]
    },
    "request": {
      "method": "PUT",
      "url": "Coverage/0f4a9087-76e3-45e5-85a4-b3fe51a64330"
    }
  }, {
    "fullUrl": "https://madie.cms.gov/Procedure/7b1c3318-475f-4fc1-a5c1-e699bb03e6e9",
    "resource": {
      "resourceType": "Procedure",
      "id": "7b1c3318-475f-4fc1-a5c1-e699bb03e6e9",
      "meta": {
        "profile": [ "http://hl7.org/fhir/us/qicore/StructureDefinition/qicore-procedure" ]
      },
      "extension": [ {
        "url": "http://hl7.org/fhir/us/qicore/StructureDefinition/qicore-recorded",
        "valueDateTime": "2013-09-02T13:35:00.000+00:00"
      } ],
      "status": "completed",
      "code": {
        "coding": [ {
          "system": "http://www.cms.gov/Medicare/Coding/ICD10",
          "code": "0U558ZZ"
        } ]
      },
      "subject": {
        "reference": "Patient/e9b691aa-5cdd-4f8b-9030-67b151285461"
      },
      "performedPeriod": {
        "start": "2026-09-02T09:00:00.000+00:00",
        "end": "2026-09-02T12:59:00.000+00:00"
      }
    },
    "request": {
      "method": "PUT",
      "url": "Procedure/7b1c3318-475f-4fc1-a5c1-e699bb03e6e9"
    }
  }, {
    "fullUrl": "https://madie.cms.gov/Organization/1ae8e782-a2ef-42c7-8edd-d71e8d4a78a6",
    "resource": {
      "resourceType": "Organization",
      "id": "1ae8e782-a2ef-42c7-8edd-d71e8d4a78a6",
      "meta": {
        "profile": [ "http://hl7.org/fhir/us/qicore/StructureDefinition/qicore-organization" ]
      },
      "identifier": [ {
        "use": "temp",
        "system": "urn:oid:2.16.840.1.113883.4.4",
        "value": "21-3259825"
      } ],
      "active": true,
      "type": [ {
        "coding": [ {
          "system": "http://terminology.hl7.org/CodeSystem/organization-type",
          "code": "pay",
          "display": "Payer"
        } ]
      } ],
      "name": "Blue Cross Blue Shield of Texas",
      "telecom": [ {
        "system": "phone",
        "value": "(+1) 972-766-6900"
      } ],
      "address": [ {
        "use": "billing",
        "type": "postal",
        "line": [ "P.O. Box 660044" ],
        "city": "Dallas",
        "state": "TX",
        "postalCode": "75266-0044",
        "country": "USA"
      } ]
    },
    "request": {
      "method": "PUT",
      "url": "Organization/1ae8e782-a2ef-42c7-8edd-d71e8d4a78a6"
    }
  }, {
    "fullUrl": "https://madie.cms.gov/Practitioner/45b83b1c-1dd5-4027-9e4f-41561e3457e0",
    "resource": {
      "resourceType": "Practitioner",
      "id": "45b83b1c-1dd5-4027-9e4f-41561e3457e0",
      "identifier": [ {
        "system": "http://hl7.org/fhir/sid/us-npi",
        "value": "123456"
      } ],
      "name": [ {
        "family": "Evil",
        "prefix": [ "Dr" ]
      } ]
    },
    "request": {
      "method": "PUT",
      "url": "Practitioner/45b83b1c-1dd5-4027-9e4f-41561e3457e0"
    }
  }, {
    "fullUrl": "https://madie.cms.gov/MeasureReport/575b78ee-06ca-46b8-a60a-d28eb1253811",
    "resource": {
      "resourceType": "MeasureReport",
      "id": "575b78ee-06ca-46b8-a60a-d28eb1253811",
      "meta": {
        "profile": [ "http://hl7.org/fhir/us/cqfmeasures/StructureDefinition/test-case-cqfm" ]
      },
      "contained": [ {
        "resourceType": "Parameters",
        "id": "e8f167b2-c8ff-4c44-bab9-3ecc198f4e80-parameters",
        "parameter": [ {
          "name": "subject",
          "valueString": "e9b691aa-5cdd-4f8b-9030-67b151285461"
        } ]
      } ],
      "extension": [ {
        "url": "http://hl7.org/fhir/StructureDefinition/cqf-inputParameters",
        "valueReference": {
          "reference": "#e8f167b2-c8ff-4c44-bab9-3ecc198f4e80-parameters"
        }
      }, {
        "url": "http://hl7.org/fhir/us/cqfmeasures/StructureDefinition/cqfm-testCaseDescription",
        "valueMarkdown": "Patient had SCIP -Gyn during Encounter and Rank =1\n"
      } ],
      "modifierExtension": [ {
        "url": "http://hl7.org/fhir/us/cqfmeasures/StructureDefinition/cqfm-isTestCase",
        "valueBoolean": true
      } ],
      "status": "complete",
      "type": "individual",
      "measure": "https://madie.cms.gov/Measure/CMS108FHIRVTEProphylaxis",
      "period": {
        "start": "2026-01-01",
        "end": "2026-12-31"
      },
      "group": [ {
        "id": "Group_1",
        "population": [ {
          "id": "InitialPopulation_1",
          "code": {
            "coding": [ {
              "system": "http://terminology.hl7.org/CodeSystem/measure-population",
              "code": "initial-population",
              "display": "Initial Population"
            } ]
          },
          "count": 1
        }, {
          "id": "Denominator_1",
          "code": {
            "coding": [ {
              "system": "http://terminology.hl7.org/CodeSystem/measure-population",
              "code": "denominator",
              "display": "Denominator"
            } ]
          },
          "count": 1
        }, {
          "id": "DenominatorExclusion_1",
          "code": {
            "coding": [ {
              "system": "http://terminology.hl7.org/CodeSystem/measure-population",
              "code": "denominator-exclusion",
              "display": "Denominator Exclusion"
            } ]
          },
          "count": 1
        }, {
          "id": "Numerator_1",
          "code": {
            "coding": [ {
              "system": "http://terminology.hl7.org/CodeSystem/measure-population",
              "code": "numerator",
              "display": "Numerator"
            } ]
          },
          "count": 0
        } ],
        "measureScore": {
          "value": 0.0
        }
      } ],
      "evaluatedResource": [ {
        "reference": "Patient/e9b691aa-5cdd-4f8b-9030-67b151285461"
      }, {
        "reference": "Encounter/703506ba-4c9d-45e9-86f8-841d6d86cd89"
      }, {
        "reference": "Claim/5ca62962b8484628b8de1ec5"
      }, {
        "reference": "Coverage/0f4a9087-76e3-45e5-85a4-b3fe51a64330"
      }, {
        "reference": "Procedure/7b1c3318-475f-4fc1-a5c1-e699bb03e6e9"
      }, {
        "reference": "Organization/1ae8e782-a2ef-42c7-8edd-d71e8d4a78a6"
      }, {
        "reference": "Practitioner/45b83b1c-1dd5-4027-9e4f-41561e3457e0"
      } ]
    },
    "request": {
      "method": "PUT",
      "url": "MeasureReport/575b78ee-06ca-46b8-a60a-d28eb1253811"
    }
  } ]
}