{
  "resourceType": "Bundle",
  "id": "62c880ec0111a60120dc21fb",
  "type": "transaction",
  "entry": [ {
    "fullUrl": "https://madie.cms.gov/Patient/fe6ef07d-bff1-4e0e-9bf4-b0424a1d0ab4",
    "resource": {
      "resourceType": "Patient",
      "id": "fe6ef07d-bff1-4e0e-9bf4-b0424a1d0ab4",
      "meta": {
        "profile": [ "http://hl7.org/fhir/us/qicore/StructureDefinition/qicore-patient" ]
      },
      "extension": [ {
        "url": "http://hl7.org/fhir/us/core/StructureDefinition/us-core-race",
        "extension": [ {
          "url": "ombCategory",
          "valueCoding": {
            "system": "urn:oid:2.16.840.1.113883.6.238",
            "code": "2106-3",
            "display": "White"
          }
        }, {
          "url": "ombCategory",
          "valueCoding": {
            "system": "urn:oid:2.16.840.1.113883.6.238",
            "code": "1002-5",
            "display": "American Indian or Alaska Native"
          }
        }, {
          "url": "ombCategory",
          "valueCoding": {
            "system": "urn:oid:2.16.840.1.113883.6.238",
            "code": "2028-9",
            "display": "Asian"
          }
        }, {
          "url": "detailed",
          "valueCoding": {
            "system": "urn:oid:2.16.840.1.113883.6.238",
            "code": "1586-7",
            "display": "Shoshone"
          }
        }, {
          "url": "detailed",
          "valueCoding": {
            "system": "urn:oid:2.16.840.1.113883.6.238",
            "code": "2036-2",
            "display": "Filipino"
          }
        }, {
          "url": "text",
          "valueString": "Mixed"
        } ]
      }, {
        "url": "http://hl7.org/fhir/us/core/StructureDefinition/us-core-ethnicity",
        "extension": [ {
          "url": "ombCategory",
          "valueCoding": {
            "system": "urn:oid:2.16.840.1.113883.6.238",
            "code": "2135-2",
            "display": "Hispanic or Latino"
          }
        }, {
          "url": "detailed",
          "valueCoding": {
            "system": "urn:oid:2.16.840.1.113883.6.238",
            "code": "2184-0",
            "display": "Dominican"
          }
        }, {
          "url": "detailed",
          "valueCoding": {
            "system": "urn:oid:2.16.840.1.113883.6.238",
            "code": "2148-5",
            "display": "Mexican"
          }
        }, {
          "url": "text",
          "valueString": "Hispanic or Latino"
        } ]
      }, {
        "url": "http://hl7.org/fhir/us/core/StructureDefinition/us-core-tribal-affiliation",
        "extension": [ {
          "url": "tribalAffiliation",
          "valueCodeableConcept": {
            "coding": [ {
              "system": "http://terminology.hl7.org/CodeSystem/v3-TribalEntityUS",
              "code": "187",
              "display": "Paiute-Shoshone Tribe of the Fallon Reservation and Colony, Nevada"
            } ],
            "text": "Shoshone"
          }
        }, {
          "url": "isEnrolled",
          "valueBoolean": false
        } ]
      }, {
        "url": "http://hl7.org/fhir/us/core/StructureDefinition/us-core-sex",
        "valueCode": "248152002"
      }, {
        "url": "http://hl7.org/fhir/us/core/StructureDefinition/us-core-interpreter-needed",
        "valueCoding": {
          "system": "http://snomed.info/sct",
          "version": "http://snomed.info/sct/731000124108",
          "code": "373066001"
        }
      } ],
      "identifier": [ {
        "system": "http://hospital.smarthealthit.org",
        "value": "999999999"
      } ],
      "name": [ {
        "family": "IPPPassPop1",
        "given": [ "ChemoSameDayofEncAnd30DaysB4Enc" ]
      } ],
      "birthDate": "1955-01-01"
    },
    "request": {
      "method": "PUT",
      "url": "Patient/fe6ef07d-bff1-4e0e-9bf4-b0424a1d0ab4"
    }
  }, {
    "fullUrl": "https://madie.cms.gov/Condition/f17ebb0b-ea78-4d1b-8a2f-d56c4ddde12f",
    "resource": {
      "resourceType": "Condition",
      "id": "f17ebb0b-ea78-4d1b-8a2f-d56c4ddde12f",
      "meta": {
        "profile": [ "http://hl7.org/fhir/us/qicore/StructureDefinition/qicore-condition-problems-health-concerns" ]
      },
      "clinicalStatus": {
        "coding": [ {
          "system": "http://terminology.hl7.org/CodeSystem/condition-clinical",
          "code": "active",
          "display": "Active"
        } ]
      },
      "verificationStatus": {
        "coding": [ {
          "system": "http://terminology.hl7.org/CodeSystem/condition-ver-status",
          "code": "confirmed",
          "display": "Confirmed"
        } ]
      },
      "category": [ {
        "coding": [ {
          "system": "http://terminology.hl7.org/CodeSystem/condition-category",
          "code": "problem-list-item",
          "display": "Problem List Item"
        } ]
      } ],
      "code": {
        "coding": [ {
          "system": "http://hl7.org/fhir/sid/icd-10-cm",
          "code": "C40.00"
        } ]
      },
      "subject": {
        "reference": "Patient/fe6ef07d-bff1-4e0e-9bf4-b0424a1d0ab4"
      },
      "onsetDateTime": "2024-05-01T13:30:00.000+00:00"
    },
    "request": {
      "method": "PUT",
      "url": "Condition/f17ebb0b-ea78-4d1b-8a2f-d56c4ddde12f"
    }
  }, {
    "fullUrl": "https://madie.cms.gov/Encounter/04f43957-3334-4169-9c77-f371cdff131d",
    "resource": {
      "resourceType": "Encounter",
      "id": "04f43957-3334-4169-9c77-f371cdff131d",
      "meta": {
        "profile": [ "http://hl7.org/fhir/us/qicore/StructureDefinition/qicore-encounter" ]
      },
      "status": "finished",
      "class": {
        "system": "http://terminology.hl7.org/CodeSystem/v3-ActCode",
        "code": "AMB",
        "display": "ambulatory",
        "userSelected": true
      },
      "type": [ {
        "coding": [ {
          "system": "http://www.ama-assn.org/go/cpt",
          "code": "98006"
        } ]
      } ],
      "subject": {
        "reference": "Patient/fe6ef07d-bff1-4e0e-9bf4-b0424a1d0ab4"
      },
      "period": {
        "start": "2026-01-01T14:00:00.000+00:00",
        "end": "2026-01-01T15:00:00.000+00:00"
      }
    },
    "request": {
      "method": "PUT",
      "url": "Encounter/04f43957-3334-4169-9c77-f371cdff131d"
    }
  }, {
    "fullUrl": "https://madie.cms.gov/Coverage/b3a5388b-720a-4f99-9298-0f78cbcadc60",
    "resource": {
      "resourceType": "Coverage",
      "id": "b3a5388b-720a-4f99-9298-0f78cbcadc60",
      "meta": {
        "profile": [ "http://hl7.org/fhir/us/qicore/StructureDefinition/qicore-coverage" ]
      },
      "identifier": [ {
        "type": {
          "coding": [ {
            "system": "http://terminology.hl7.org/CodeSystem/v2-0203",
            "code": "MB"
          } ]
        }
      } ],
      "status": "active",
      "type": {
        "coding": [ {
          "system": "https://nahdo.org/sopt",
          "code": "59",
          "display": "Other Private Insurance"
        } ]
      },
      "policyHolder": {
        "reference": "Patient/fe6ef07d-bff1-4e0e-9bf4-b0424a1d0ab4"
      },
      "subscriber": {
        "reference": "Patient/fe6ef07d-bff1-4e0e-9bf4-b0424a1d0ab4"
      },
      "beneficiary": {
        "reference": "Patient/fe6ef07d-bff1-4e0e-9bf4-b0424a1d0ab4"
      },
      "dependent": "0",
      "relationship": {
        "coding": [ {
          "system": "http://terminology.hl7.org/CodeSystem/subscriber-relationship",
          "code": "self"
        } ]
      },
      "period": {
        "start": "2025-01-01T06:00:00.000+00:00",
        "end": "2026-12-31T11:06:01.000+00:00"
      },
      "payor": [ {
        "reference": "Organization/50e4b90c-d87f-4bd3-8237-2d81bf95d60f"
      } ],
      "order": 9
    },
    "request": {
      "method": "PUT",
      "url": "Coverage/b3a5388b-720a-4f99-9298-0f78cbcadc60"
    }
  }, {
    "fullUrl": "https://madie.cms.gov/Procedure/14338ae9-fa45-423f-8dc6-d0e3d79c0b5e",
    "resource": {
      "resourceType": "Procedure",
      "id": "14338ae9-fa45-423f-8dc6-d0e3d79c0b5e",
      "meta": {
        "profile": [ "http://hl7.org/fhir/us/qicore/StructureDefinition/qicore-procedure" ]
      },
      "extension": [ {
        "url": "http://hl7.org/fhir/us/qicore/StructureDefinition/qicore-recorded",
        "valueDateTime": "2026-01-01T12:35:00.000+00:00"
      } ],
      "status": "completed",
      "code": {
        "coding": [ {
          "system": "http://snomed.info/sct",
          "code": "169396008"
        } ]
      },
      "subject": {
        "reference": "Patient/fe6ef07d-bff1-4e0e-9bf4-b0424a1d0ab4"
      },
      "performedPeriod": {
        "start": "2026-01-01T08:00:00.000+00:00",
        "end": "2026-01-01T08:15:00.000+00:00"
      }
    },
    "request": {
      "method": "PUT",
      "url": "Procedure/14338ae9-fa45-423f-8dc6-d0e3d79c0b5e"
    }
  }, {
    "fullUrl": "https://madie.cms.gov/Procedure/5f7a2e82-3268-4a7c-a55d-aab914b695b2",
    "resource": {
      "resourceType": "Procedure",
      "id": "5f7a2e82-3268-4a7c-a55d-aab914b695b2",
      "meta": {
        "profile": [ "http://hl7.org/fhir/us/qicore/StructureDefinition/qicore-procedure" ]
      },
      "extension": [ {
        "url": "http://hl7.org/fhir/us/qicore/StructureDefinition/qicore-recorded",
        "valueDateTime": "2026-01-31T12:35:00.000+00:00"
      } ],
      "status": "completed",
      "code": {
        "coding": [ {
          "system": "http://snomed.info/sct",
          "code": "169396008"
        } ]
      },
      "subject": {
        "reference": "Patient/fe6ef07d-bff1-4e0e-9bf4-b0424a1d0ab4"
      },
      "performedPeriod": {
        "start": "2025-12-02T08:00:00.000+00:00",
        "end": "2025-12-02T08:15:00.000+00:00"
      }
    },
    "request": {
      "method": "PUT",
      "url": "Procedure/5f7a2e82-3268-4a7c-a55d-aab914b695b2"
    }
  }, {
    "fullUrl": "https://madie.cms.gov/Organization/50e4b90c-d87f-4bd3-8237-2d81bf95d60f",
    "resource": {
      "resourceType": "Organization",
      "id": "50e4b90c-d87f-4bd3-8237-2d81bf95d60f",
      "meta": {
        "profile": [ "http://hl7.org/fhir/us/qicore/StructureDefinition/qicore-organization" ]
      },
      "identifier": [ {
        "use": "temp",
        "system": "urn:oid:2.16.840.1.113883.4.336",
        "value": "APayer"
      } ],
      "active": true,
      "type": [ {
        "coding": [ {
          "system": "http://terminology.hl7.org/CodeSystem/organization-type",
          "code": "pay",
          "display": "Payer"
        } ],
        "text": "Healthcare Payer"
      } ],
      "name": "Test Medical Center",
      "telecom": [ {
        "system": "phone",
        "value": "(+1) 800-123-4567"
      }, {
        "system": "email",
        "value": "mypayer@test.org"
      } ],
      "address": [ {
        "line": [ "600 Ashbro Avenue" ],
        "city": "Indianapolis",
        "state": "IN",
        "postalCode": "46237",
        "country": "USA"
      } ]
    },
    "request": {
      "method": "PUT",
      "url": "Organization/50e4b90c-d87f-4bd3-8237-2d81bf95d60f"
    }
  }, {
    "fullUrl": "https://madie.cms.gov/Practitioner/845fceaf-0274-4d4a-b7a5-e412f2335d18",
    "resource": {
      "resourceType": "Practitioner",
      "id": "845fceaf-0274-4d4a-b7a5-e412f2335d18",
      "meta": {
        "profile": [ "http://hl7.org/fhir/us/qicore/StructureDefinition/qicore-practitioner" ]
      },
      "identifier": [ {
        "system": "http://hl7.org/fhir/sid/us-npi",
        "value": "1234567890"
      } ],
      "name": [ {
        "family": "Evil",
        "prefix": [ "Dr" ]
      } ]
    },
    "request": {
      "method": "PUT",
      "url": "Practitioner/845fceaf-0274-4d4a-b7a5-e412f2335d18"
    }
  }, {
    "fullUrl": "https://madie.cms.gov/MeasureReport/0648e2db-7eb4-422a-b7f2-b920be7285f2",
    "resource": {
      "resourceType": "MeasureReport",
      "id": "0648e2db-7eb4-422a-b7f2-b920be7285f2",
      "meta": {
        "profile": [ "http://hl7.org/fhir/us/cqfmeasures/StructureDefinition/test-case-cqfm" ]
      },
      "contained": [ {
        "resourceType": "Parameters",
        "id": "2f75e397-de62-422f-91cd-833a25ee686e-parameters",
        "parameter": [ {
          "name": "subject",
          "valueString": "fe6ef07d-bff1-4e0e-9bf4-b0424a1d0ab4"
        } ]
      } ],
      "extension": [ {
        "url": "http://hl7.org/fhir/StructureDefinition/cqf-inputParameters",
        "valueReference": {
          "reference": "#2f75e397-de62-422f-91cd-833a25ee686e-parameters"
        }
      }, {
        "url": "http://hl7.org/fhir/us/cqfmeasures/StructureDefinition/cqfm-testCaseDescription",
        "valueMarkdown": "Patient with cancer diagnosis that overlaps the office visit during measurement period. Received chemo 30 days before the office visit and another chemo on the same day of office visit."
      } ],
      "modifierExtension": [ {
        "url": "http://hl7.org/fhir/us/cqfmeasures/StructureDefinition/cqfm-isTestCase",
        "valueBoolean": true
      } ],
      "status": "complete",
      "type": "individual",
      "measure": "https://madie.cms.gov/Measure/CMS157FHIRPainIntensityQuantified",
      "period": {
        "start": "2026-01-01",
        "end": "2026-12-31"
      },
      "group": [ {
        "id": "Group_1",
        "population": [ {
          "id": "InitialPopulation_1",
          "code": {
            "coding": [ {
              "system": "http://terminology.hl7.org/CodeSystem/measure-population",
              "code": "initial-population",
              "display": "Initial Population"
            } ]
          },
          "count": 1
        }, {
          "id": "Denominator_1",
          "code": {
            "coding": [ {
              "system": "http://terminology.hl7.org/CodeSystem/measure-population",
              "code": "denominator",
              "display": "Denominator"
            } ]
          },
          "count": 1
        }, {
          "id": "Numerator_1",
          "code": {
            "coding": [ {
              "system": "http://terminology.hl7.org/CodeSystem/measure-population",
              "code": "numerator",
              "display": "Numerator"
            } ]
          },
          "count": 0
        } ],
        "measureScore": {
          "value": 0.0
        }
      }, {
        "id": "Group_2",
        "population": [ {
          "id": "InitialPopulation_2",
          "code": {
            "coding": [ {
              "system": "http://terminology.hl7.org/CodeSystem/measure-population",
              "code": "initial-population",
              "display": "Initial Population"
            } ]
          },
          "count": 0
        }, {
          "id": "Denominator_2",
          "code": {
            "coding": [ {
              "system": "http://terminology.hl7.org/CodeSystem/measure-population",
              "code": "denominator",
              "display": "Denominator"
            } ]
          },
          "count": 0
        }, {
          "id": "Numerator_2",
          "code": {
            "coding": [ {
              "system": "http://terminology.hl7.org/CodeSystem/measure-population",
              "code": "numerator",
              "display": "Numerator"
            } ]
          },
          "count": 0
        } ],
        "measureScore": {
          "value": 0.0
        }
      } ],
      "evaluatedResource": [ {
        "reference": "Patient/fe6ef07d-bff1-4e0e-9bf4-b0424a1d0ab4"
      }, {
        "reference": "Condition/f17ebb0b-ea78-4d1b-8a2f-d56c4ddde12f"
      }, {
        "reference": "Encounter/04f43957-3334-4169-9c77-f371cdff131d"
      }, {
        "reference": "Coverage/b3a5388b-720a-4f99-9298-0f78cbcadc60"
      }, {
        "reference": "Procedure/14338ae9-fa45-423f-8dc6-d0e3d79c0b5e"
      }, {
        "reference": "Procedure/5f7a2e82-3268-4a7c-a55d-aab914b695b2"
      }, {
        "reference": "Organization/50e4b90c-d87f-4bd3-8237-2d81bf95d60f"
      }, {
        "reference": "Practitioner/845fceaf-0274-4d4a-b7a5-e412f2335d18"
      } ]
    },
    "request": {
      "method": "PUT",
      "url": "MeasureReport/0648e2db-7eb4-422a-b7f2-b920be7285f2"
    }
  } ]
}