{
  "resourceType": "Bundle",
  "id": "5435131631313",
  "type": "transaction",
  "entry": [ {
    "fullUrl": "https://madie.cms.gov/Patient/eeee1e34-dc1e-4997-815d-43dab9a2734e",
    "resource": {
      "resourceType": "Patient",
      "id": "eeee1e34-dc1e-4997-815d-43dab9a2734e",
      "meta": {
        "profile": [ "http://hl7.org/fhir/us/qicore/StructureDefinition/qicore-patient" ]
      },
      "extension": [ {
        "url": "http://hl7.org/fhir/us/core/StructureDefinition/us-core-race",
        "extension": [ {
          "url": "ombCategory",
          "valueCoding": {
            "system": "urn:oid:2.16.840.1.113883.6.238",
            "code": "1002-5",
            "display": "American Indian or Alaska Native"
          }
        }, {
          "url": "text",
          "valueString": "American Indian or Alaska Native"
        } ]
      }, {
        "url": "http://hl7.org/fhir/us/core/StructureDefinition/us-core-ethnicity",
        "extension": [ {
          "url": "ombCategory",
          "valueCoding": {
            "system": "urn:oid:2.16.840.1.113883.6.238",
            "code": "2186-5",
            "display": "Not Hispanic or Latino"
          }
        }, {
          "url": "text",
          "valueString": "Not Hispanic or Latino"
        } ]
      } ],
      "identifier": [ {
        "type": {
          "coding": [ {
            "system": "http://terminology.hl7.org/CodeSystem/v2-0203",
            "code": "MR"
          } ]
        },
        "system": "https://bonnie-fhir.healthit.gov/",
        "value": "781351684684116"
      } ],
      "active": true,
      "name": [ {
        "use": "usual",
        "family": "ConditionPass",
        "given": [ "ConditionAttributes" ]
      } ],
      "gender": "male",
      "birthDate": "1967-12-14"
    },
    "request": {
      "method": "PUT",
      "url": "Patient/eeee1e34-dc1e-4997-815d-43dab9a2734e"
    }
  }, {
    "fullUrl": "https://madie.cms.gov/Encounter/116b1d00-9d85-4b5b-a113-ddc8ce05fc14",
    "resource": {
      "resourceType": "Encounter",
      "id": "116b1d00-9d85-4b5b-a113-ddc8ce05fc14",
      "meta": {
        "profile": [ "http://hl7.org/fhir/us/qicore/StructureDefinition/qicore-encounter" ]
      },
      "status": "finished",
      "class": {
        "system": "http://terminology.hl7.org/CodeSystem/v3-ActCode",
        "code": "SS",
        "display": "short stay"
      },
      "type": [ {
        "coding": [ {
          "system": "http://snomed.info/sct",
          "version": "2024",
          "code": "8715000",
          "display": "Hospital admission, elective (procedure)"
        } ]
      } ],
      "subject": {
        "reference": "Patient/eeee1e34-dc1e-4997-815d-43dab9a2734e"
      },
      "period": {
        "start": "2026-01-28T12:15:00.000+00:00",
        "end": "2026-01-31T13:15:00.000+00:00"
      },
      "length": {
        "value": 0,
        "unit": "days"
      },
      "location": [ {
        "location": {
          "reference": "Location/2ffa5d3d-5f16-4e42-8a3c-b48996c59a0f"
        },
        "period": {
          "start": "2026-01-28T00:00:00.000+00:00",
          "end": "2026-01-31T10:01:00.000+00:00"
        }
      } ]
    },
    "request": {
      "method": "PUT",
      "url": "Encounter/116b1d00-9d85-4b5b-a113-ddc8ce05fc14"
    }
  }, {
    "fullUrl": "https://madie.cms.gov/Location/2ffa5d3d-5f16-4e42-8a3c-b48996c59a0f",
    "resource": {
      "resourceType": "Location",
      "id": "2ffa5d3d-5f16-4e42-8a3c-b48996c59a0f",
      "meta": {
        "profile": [ "http://hl7.org/fhir/us/qicore/StructureDefinition/qicore-location" ]
      },
      "identifier": [ {
        "use": "usual",
        "system": "http://exampleoflocation.com",
        "value": "B1-S.F2"
      } ],
      "name": "Medical Surgical East, first floor",
      "type": [ {
        "coding": [ {
          "system": "https://www.cdc.gov/nhsn/cdaportal/terminology/codesystem/hsloc.html",
          "code": "1025-6",
          "display": "Trauma Critical Care",
          "userSelected": true
        } ]
      } ]
    },
    "request": {
      "method": "PUT",
      "url": "Location/2ffa5d3d-5f16-4e42-8a3c-b48996c59a0f"
    }
  }, {
    "fullUrl": "https://madie.cms.gov/AllergyIntolerance/83dfcfc8-c532-497d-883f-18176d537bd2",
    "resource": {
      "resourceType": "AllergyIntolerance",
      "id": "83dfcfc8-c532-497d-883f-18176d537bd2",
      "meta": {
        "profile": [ "http://hl7.org/fhir/us/qicore/StructureDefinition/qicore-allergyintolerance" ]
      },
      "clinicalStatus": {
        "coding": [ {
          "system": "http://terminology.hl7.org/CodeSystem/allergyintolerance-clinical",
          "code": "active"
        } ]
      },
      "verificationStatus": {
        "coding": [ {
          "system": "http://terminology.hl7.org/CodeSystem/allergyintolerance-verification",
          "code": "confirmed"
        } ]
      },
      "type": "allergy",
      "criticality": "high",
      "code": {
        "coding": [ {
          "system": "http://www.nlm.nih.gov/research/umls/rxnorm",
          "version": "06052023",
          "code": "1202",
          "display": "atenolol"
        } ]
      },
      "patient": {
        "reference": "Patient/eeee1e34-dc1e-4997-815d-43dab9a2734e"
      },
      "onsetDateTime": "2026-01-30T08:00:00.000+00:00",
      "recordedDate": "2026-01-30T08:00:00.000+00:00"
    },
    "request": {
      "method": "PUT",
      "url": "AllergyIntolerance/83dfcfc8-c532-497d-883f-18176d537bd2"
    }
  }, {
    "fullUrl": "https://madie.cms.gov/Condition/5847d6b6-1c14-48be-b5fa-95bbf3b5f1a9",
    "resource": {
      "resourceType": "Condition",
      "id": "5847d6b6-1c14-48be-b5fa-95bbf3b5f1a9",
      "meta": {
        "profile": [ "http://hl7.org/fhir/us/qicore/StructureDefinition/qicore-condition-problems-health-concerns" ]
      },
      "extension": [ {
        "url": "http://hl7.org/fhir/StructureDefinition/condition-assertedDate",
        "valueDateTime": "2026-01-30"
      } ],
      "clinicalStatus": {
        "coding": [ {
          "system": "http://terminology.hl7.org/CodeSystem/condition-clinical",
          "code": "active",
          "display": "Active"
        } ]
      },
      "verificationStatus": {
        "coding": [ {
          "system": "http://terminology.hl7.org/CodeSystem/condition-ver-status",
          "code": "confirmed",
          "display": "Confirmed"
        } ]
      },
      "category": [ {
        "coding": [ {
          "system": "http://terminology.hl7.org/CodeSystem/condition-category",
          "code": "problem-list-item",
          "display": "Problem List Item"
        } ]
      } ],
      "severity": {
        "coding": [ {
          "system": "http://snomed.info/sct",
          "version": "http://snomed.info/sct/731000124108/version/20240301",
          "code": "24484000",
          "display": "Severe (severity modifier) (qualifier value)"
        } ]
      },
      "code": {
        "coding": [ {
          "system": "http://snomed.info/sct",
          "version": "http://snomed.info/sct/731000124108/version/20240301",
          "code": "186357007",
          "display": "Streptococcal sore throat with scarlatina (disorder)"
        } ]
      },
      "bodySite": [ {
        "coding": [ {
          "system": "http://snomed.info/sct",
          "code": "1721005",
          "display": "Right tonsil"
        } ]
      } ],
      "subject": {
        "reference": "Patient/eeee1e34-dc1e-4997-815d-43dab9a2734e"
      },
      "encounter": {
        "reference": "Encounter/116b1d00-9d85-4b5b-a113-ddc8ce05fc14"
      },
      "onsetPeriod": {
        "start": "2026-01-30T12:00:00.000+00:00"
      },
      "recordedDate": "2026-01-30T07:15:07.000+00:00",
      "stage": [ {
        "summary": {
          "coding": [ {
            "system": "http://snomed.info/sct",
            "code": "258219007",
            "display": "stage II"
          } ]
        },
        "type": {
          "coding": [ {
            "system": "http://snomed.info/sct",
            "code": "260998006",
            "display": "Clinical staging (qualifier value)"
          } ]
        }
      } ],
      "evidence": [ {
        "code": [ {
          "coding": [ {
            "system": "http://snomed.info/sct",
            "code": "169068008",
            "display": "Computed tomography of neck (procedure)"
          } ]
        } ]
      } ],
      "note": [ {
        "text": "Compliants of lighheadedness"
      } ]
    },
    "request": {
      "method": "PUT",
      "url": "Condition/5847d6b6-1c14-48be-b5fa-95bbf3b5f1a9"
    }
  }, {
    "fullUrl": "https://madie.cms.gov/MedicationRequest/e0d4cf1c-c2ff-4159-9c96-82f572f65b23",
    "resource": {
      "resourceType": "MedicationRequest",
      "id": "e0d4cf1c-c2ff-4159-9c96-82f572f65b23",
      "meta": {
        "profile": [ "http://hl7.org/fhir/us/qicore/StructureDefinition/qicore-medicationrequest" ]
      },
      "status": "completed",
      "intent": "order",
      "medicationCodeableConcept": {
        "coding": [ {
          "system": "http://www.nlm.nih.gov/research/umls/rxnorm",
          "version": "06052023",
          "code": "199149",
          "display": "acarbose 50 mg Oral Tablet"
        } ]
      },
      "subject": {
        "reference": "Patient/eeee1e34-dc1e-4997-815d-43dab9a2734e"
      },
      "authoredOn": "2026-01-30T12:00:00.000+00:00",
      "requester": {
        "reference": "Practitioner/66ccccfe-1fa9-48a7-a28f-fb9e7a4d959c"
      },
      "dosageInstruction": [ {
        "timing": {
          "repeat": {
            "boundsPeriod": {
              "start": "2026-01-30T12:00:00.000+00:00"
            }
          }
        }
      } ]
    },
    "request": {
      "method": "PUT",
      "url": "MedicationRequest/e0d4cf1c-c2ff-4159-9c96-82f572f65b23"
    }
  }, {
    "fullUrl": "https://madie.cms.gov/Observation/ab43144d-f6da-4284-9361-9919b912395e",
    "resource": {
      "resourceType": "Observation",
      "id": "ab43144d-f6da-4284-9361-9919b912395e",
      "meta": {
        "profile": [ "http://hl7.org/fhir/us/core/StructureDefinition/us-core-observation-lab" ]
      },
      "status": "final",
      "category": [ {
        "coding": [ {
          "system": "http://terminology.hl7.org/CodeSystem/observation-category",
          "code": "laboratory",
          "display": "laboratory",
          "userSelected": true
        } ]
      } ],
      "code": {
        "coding": [ {
          "system": "http://loinc.org",
          "code": "13056-7",
          "display": "Platelets [#/volume] in Plasma by Automated count"
        } ]
      },
      "subject": {
        "reference": "Patient/eeee1e34-dc1e-4997-815d-43dab9a2734e"
      },
      "effectiveDateTime": "2026-01-30T08:00:00.000+00:00",
      "issued": "2026-01-30T08:00:00.000+00:00",
      "valueQuantity": {
        "value": 150000,
        "unit": "/uL",
        "system": "http://unitsofmeasure.org",
        "code": "/uL"
      }
    },
    "request": {
      "method": "PUT",
      "url": "Observation/ab43144d-f6da-4284-9361-9919b912395e"
    }
  }, {
    "fullUrl": "https://madie.cms.gov/Observation/338cd6f9-8f88-4068-b3e9-b8e9aa7040e2",
    "resource": {
      "resourceType": "Observation",
      "id": "338cd6f9-8f88-4068-b3e9-b8e9aa7040e2",
      "meta": {
        "profile": [ "http://hl7.org/fhir/StructureDefinition/bp" ]
      },
      "status": "final",
      "category": [ {
        "coding": [ {
          "system": "http://terminology.hl7.org/CodeSystem/observation-category",
          "code": "vital-signs",
          "display": "Vital Signs"
        } ],
        "text": "Vital Signs"
      } ],
      "code": {
        "coding": [ {
          "system": "http://loinc.org",
          "code": "85354-9",
          "display": "Blood pressure panel with all children optional"
        } ]
      },
      "subject": {
        "reference": "Patient/eeee1e34-dc1e-4997-815d-43dab9a2734e"
      },
      "effectiveDateTime": "2026-01-30T08:00:00.000+00:00",
      "component": [ {
        "code": {
          "coding": [ {
            "system": "http://loinc.org",
            "code": "8480-6",
            "display": "Systolic blood pressure"
          } ]
        },
        "valueQuantity": {
          "value": 131,
          "unit": "mmHg",
          "system": "http://unitsofmeasure.org",
          "code": "mm[Hg]"
        }
      }, {
        "code": {
          "coding": [ {
            "system": "http://loinc.org",
            "code": "8462-4",
            "display": "Diastolic blood pressure"
          } ]
        },
        "valueQuantity": {
          "value": 80,
          "unit": "mmHg",
          "system": "http://unitsofmeasure.org",
          "code": "mm[Hg]"
        }
      } ]
    },
    "request": {
      "method": "PUT",
      "url": "Observation/338cd6f9-8f88-4068-b3e9-b8e9aa7040e2"
    }
  }, {
    "fullUrl": "https://madie.cms.gov/Procedure/45edfebd-567f-42f5-abd1-06dd18165593",
    "resource": {
      "resourceType": "Procedure",
      "id": "45edfebd-567f-42f5-abd1-06dd18165593",
      "meta": {
        "profile": [ "http://hl7.org/fhir/us/qicore/StructureDefinition/qicore-procedure" ]
      },
      "extension": [ {
        "url": "http://hl7.org/fhir/us/qicore/StructureDefinition/qicore-recorded",
        "valueDateTime": "2026-01-30T08:00:00.000+00:00"
      } ],
      "status": "completed",
      "code": {
        "coding": [ {
          "system": "http://www.ama-assn.org/go/cpt",
          "version": "2024",
          "code": "70490",
          "display": "Computed tomography, soft tissue neck; without contrast material"
        } ]
      },
      "subject": {
        "reference": "Patient/eeee1e34-dc1e-4997-815d-43dab9a2734e"
      },
      "performedPeriod": {
        "start": "2026-01-30T08:00:00.000+00:00",
        "end": "2026-01-30T08:00:00.000+00:00"
      }
    },
    "request": {
      "method": "PUT",
      "url": "Procedure/45edfebd-567f-42f5-abd1-06dd18165593"
    }
  }, {
    "fullUrl": "https://madie.cms.gov/Coverage/484f357f-31d5-472b-9c7b-0ff5e65b5377",
    "resource": {
      "resourceType": "Coverage",
      "id": "484f357f-31d5-472b-9c7b-0ff5e65b5377",
      "meta": {
        "profile": [ "http://hl7.org/fhir/us/qicore/StructureDefinition/qicore-coverage" ]
      },
      "status": "active",
      "type": {
        "coding": [ {
          "system": "https://nahdo.org/sopt",
          "version": "1.0.1",
          "code": "1",
          "display": "MEDICARE",
          "userSelected": true
        } ]
      },
      "subscriberId": "AB9876",
      "beneficiary": {
        "reference": "Patient/eeee1e34-dc1e-4997-815d-43dab9a2734e"
      },
      "relationship": {
        "coding": [ {
          "system": "http://terminology.hl7.org/CodeSystem/subscriber-relationship",
          "code": "self"
        } ]
      },
      "payor": [ {
        "reference": "Organization/b7d26bcd-3fdb-403c-9b71-5aa9a14e0250"
      } ]
    },
    "request": {
      "method": "PUT",
      "url": "Coverage/484f357f-31d5-472b-9c7b-0ff5e65b5377"
    }
  }, {
    "fullUrl": "https://madie.cms.gov/Practitioner/66ccccfe-1fa9-48a7-a28f-fb9e7a4d959c",
    "resource": {
      "resourceType": "Practitioner",
      "id": "66ccccfe-1fa9-48a7-a28f-fb9e7a4d959c",
      "meta": {
        "profile": [ "http://hl7.org/fhir/us/qicore/StructureDefinition/qicore-practitioner" ]
      },
      "identifier": [ {
        "system": "http://hl7.org/fhir/sid/us-npi",
        "value": "0723660813"
      } ],
      "active": true,
      "name": [ {
        "family": "Careful",
        "given": [ "Adam" ],
        "prefix": [ "Dr" ]
      } ],
      "address": [ {
        "use": "home",
        "line": [ "534 Erewhon St" ],
        "city": "PleasantVille",
        "state": "UT",
        "postalCode": "84414"
      } ],
      "qualification": [ {
        "code": {
          "coding": [ {
            "system": "http://terminology.hl7.org/CodeSystem/v2-0360|2.7",
            "code": "BS",
            "display": "Bachelor of Science"
          } ],
          "text": "Bachelor of Science"
        },
        "period": {
          "start": "1995"
        },
        "issuer": {
          "display": "Example University"
        }
      } ]
    },
    "request": {
      "method": "PUT",
      "url": "Practitioner/66ccccfe-1fa9-48a7-a28f-fb9e7a4d959c"
    }
  }, {
    "fullUrl": "https://madie.cms.gov/MeasureReport/778b5f17-37e9-4792-8498-cd1c85c13519",
    "resource": {
      "resourceType": "MeasureReport",
      "id": "778b5f17-37e9-4792-8498-cd1c85c13519",
      "meta": {
        "profile": [ "http://hl7.org/fhir/us/cqfmeasures/StructureDefinition/test-case-cqfm" ]
      },
      "contained": [ {
        "resourceType": "Parameters",
        "id": "e5f69b2d-2a69-45b8-866e-8b0bd6bf7ffd-parameters",
        "parameter": [ {
          "name": "subject",
          "valueString": "eeee1e34-dc1e-4997-815d-43dab9a2734e"
        } ]
      } ],
      "extension": [ {
        "url": "http://hl7.org/fhir/StructureDefinition/cqf-inputParameters",
        "valueReference": {
          "reference": "#e5f69b2d-2a69-45b8-866e-8b0bd6bf7ffd-parameters"
        }
      }, {
        "url": "http://hl7.org/fhir/us/cqfmeasures/StructureDefinition/cqfm-testCaseDescription",
        "valueMarkdown": "Testing Condition attributes. "
      } ],
      "modifierExtension": [ {
        "url": "http://hl7.org/fhir/us/cqfmeasures/StructureDefinition/cqfm-isTestCase",
        "valueBoolean": true
      } ],
      "status": "complete",
      "type": "individual",
      "measure": "https://madie.cms.gov/Measure/NHSNGlycemicControlHypoglycemiaInitialPopulation",
      "period": {
        "start": "2026-01-01",
        "end": "2026-12-31"
      },
      "group": [ {
        "id": "Group_1",
        "population": [ {
          "id": "InitialPopulation_1",
          "code": {
            "coding": [ {
              "system": "http://terminology.hl7.org/CodeSystem/measure-population",
              "code": "initial-population",
              "display": "Initial Population"
            } ]
          },
          "count": 1
        } ],
        "measureScore": {
          "value": 0.0
        }
      } ],
      "evaluatedResource": [ {
        "reference": "Patient/eeee1e34-dc1e-4997-815d-43dab9a2734e"
      }, {
        "reference": "Encounter/116b1d00-9d85-4b5b-a113-ddc8ce05fc14"
      }, {
        "reference": "Location/2ffa5d3d-5f16-4e42-8a3c-b48996c59a0f"
      }, {
        "reference": "AllergyIntolerance/83dfcfc8-c532-497d-883f-18176d537bd2"
      }, {
        "reference": "Condition/5847d6b6-1c14-48be-b5fa-95bbf3b5f1a9"
      }, {
        "reference": "MedicationRequest/e0d4cf1c-c2ff-4159-9c96-82f572f65b23"
      }, {
        "reference": "Observation/ab43144d-f6da-4284-9361-9919b912395e"
      }, {
        "reference": "Observation/338cd6f9-8f88-4068-b3e9-b8e9aa7040e2"
      }, {
        "reference": "Procedure/45edfebd-567f-42f5-abd1-06dd18165593"
      }, {
        "reference": "Coverage/484f357f-31d5-472b-9c7b-0ff5e65b5377"
      }, {
        "reference": "Practitioner/66ccccfe-1fa9-48a7-a28f-fb9e7a4d959c"
      } ]
    },
    "request": {
      "method": "PUT",
      "url": "MeasureReport/778b5f17-37e9-4792-8498-cd1c85c13519"
    }
  } ]
}