{
  "resourceType": "Bundle",
  "id": "657cbdc9b4f1f0343662347a",
  "type": "transaction",
  "entry": [ {
    "fullUrl": "https://madie.cms.gov/Patient/fbc4c7bb-5c04-4c9f-8164-552c02ccdfa8",
    "resource": {
      "resourceType": "Patient",
      "id": "fbc4c7bb-5c04-4c9f-8164-552c02ccdfa8",
      "meta": {
        "profile": [ "http://hl7.org/fhir/us/qicore/StructureDefinition/qicore-patient" ]
      },
      "extension": [ {
        "url": "http://hl7.org/fhir/us/core/StructureDefinition/us-core-race",
        "extension": [ {
          "url": "ombCategory",
          "valueCoding": {
            "system": "urn:oid:2.16.840.1.113883.6.238",
            "code": "2106-3",
            "display": "White",
            "userSelected": true
          }
        }, {
          "url": "text",
          "valueString": "White"
        } ]
      }, {
        "url": "http://hl7.org/fhir/us/core/StructureDefinition/us-core-ethnicity",
        "extension": [ {
          "url": "ombCategory",
          "valueCoding": {
            "system": "urn:oid:2.16.840.1.113883.6.238",
            "code": "2186-5",
            "display": "Not Hispanic or Latino",
            "userSelected": true
          }
        }, {
          "url": "text",
          "valueString": "Not Hispanic or Latino"
        } ]
      } ],
      "identifier": [ {
        "type": {
          "coding": [ {
            "system": "http://terminology.hl7.org/CodeSystem/v2-0203",
            "code": "MR"
          } ]
        },
        "system": "https://bonnie-fhir.healthit.gov/",
        "value": "657cbdc9b4f1f0343662347a"
      } ],
      "name": [ {
        "family": "ChiefComplaintPass",
        "given": [ "ChiefCompaintAttributes" ]
      } ],
      "gender": "female",
      "birthDate": "2008-01-01"
    },
    "request": {
      "method": "PUT",
      "url": "Patient/fbc4c7bb-5c04-4c9f-8164-552c02ccdfa8"
    }
  }, {
    "fullUrl": "https://madie.cms.gov/Encounter/6fe4a75f-78cd-4595-870a-7516bfd5399d",
    "resource": {
      "resourceType": "Encounter",
      "id": "6fe4a75f-78cd-4595-870a-7516bfd5399d",
      "meta": {
        "profile": [ "http://hl7.org/fhir/us/qicore/StructureDefinition/qicore-encounter" ]
      },
      "identifier": [ {
        "type": {
          "coding": [ {
            "system": "http://terminology.hl7.org/CodeSystem/v2-0203",
            "code": "MR"
          } ]
        },
        "system": "https://bonnie-fhir.healthit.gov/",
        "value": "657cbdc9b4f1f0343662347a"
      } ],
      "status": "finished",
      "statusHistory": [ {
        "status": "finished",
        "period": {
          "start": "2026-01-01",
          "end": "2026-01-07"
        }
      } ],
      "class": {
        "system": "http://terminology.hl7.org/CodeSystem/v3-ActCode",
        "code": "ACUTE",
        "display": "inpatient acute"
      },
      "classHistory": [ {
        "class": {
          "system": "http://terminology.hl7.org/CodeSystem/v3-ActCode",
          "code": "IMP",
          "display": "inpatient encounter"
        },
        "period": {
          "start": "2026-01-06",
          "end": "2026-01-07"
        }
      } ],
      "type": [ {
        "coding": [ {
          "system": "http://snomed.info/sct",
          "version": "2024",
          "code": "32485007",
          "display": "Hospital admission (procedure)",
          "userSelected": true
        } ]
      } ],
      "serviceType": {
        "coding": [ {
          "system": "https://hl7.org/fhir/R4/codesystem-service-type.html",
          "code": "21",
          "display": "Hydrotherapy"
        } ]
      },
      "priority": {
        "coding": [ {
          "system": "https://terminology.hl7.org/5.5.0/CodeSystem-v3-ActPriority.html",
          "code": "R",
          "display": "routine"
        } ]
      },
      "subject": {
        "reference": "Patient/fbc4c7bb-5c04-4c9f-8164-552c02ccdfa8"
      },
      "period": {
        "start": "2026-01-01T08:00:00.000Z",
        "end": "2026-01-02T09:15:00.000Z"
      },
      "length": {
        "value": 25,
        "unit": "sec",
        "system": "http://unitsofmeasure.org",
        "code": "s"
      },
      "reasonCode": [ {
        "coding": [ {
          "system": "http://snomed.info/sct",
          "code": "183932001",
          "display": "Procedure contraindicated (situation)",
          "userSelected": true
        } ]
      } ],
      "reasonReference": [ {
        "reference": "Condition/9c8bd510-a6ab-431f-b2a0-e2dd4ef55edc"
      } ],
      "diagnosis": [ {
        "condition": {
          "reference": "Condition/9c8bd510-a6ab-431f-b2a0-e2dd4ef55edc"
        },
        "use": {
          "coding": [ {
            "system": "http://terminology.hl7.org/CodeSystem/diagnosis-role",
            "code": "CC",
            "display": "Chief complaint"
          } ]
        }
      } ],
      "account": [ {
        "reference": "Account/example"
      } ],
      "hospitalization": {
        "dischargeDisposition": {
          "coding": [ {
            "system": "http://snomed.info/sct",
            "code": "371828006",
            "display": "Patient deceased during stay (discharge status = dead) (finding)",
            "userSelected": true
          } ]
        }
      },
      "location": [ {
        "location": {
          "reference": "Location/318aac11-3c42-42e6-8eb8-8840ebcfc968"
        },
        "period": {
          "start": "2026-01-01T00:00:00.000Z",
          "end": "2026-01-01T10:01:00.000Z"
        }
      } ],
      "partOf": {
        "reference": "Location/2",
        "display": "USS Enterprise"
      }
    },
    "request": {
      "method": "PUT",
      "url": "Encounter/6fe4a75f-78cd-4595-870a-7516bfd5399d"
    }
  }, {
    "fullUrl": "https://madie.cms.gov/Location/318aac11-3c42-42e6-8eb8-8840ebcfc968",
    "resource": {
      "resourceType": "Location",
      "id": "318aac11-3c42-42e6-8eb8-8840ebcfc968",
      "meta": {
        "profile": [ "http://hl7.org/fhir/us/qicore/StructureDefinition/qicore-location" ]
      },
      "identifier": [ {
        "use": "usual",
        "system": "http://exampleoflocation.com",
        "value": "B1-S.F2"
      } ],
      "name": "Medical Surgical East, first floor",
      "type": [ {
        "coding": [ {
          "system": "https://www.cdc.gov/nhsn/cdaportal/terminology/codesystem/hsloc.html",
          "code": "1028-0",
          "display": "Medical Cardiac Critical Care",
          "userSelected": true
        } ]
      } ]
    },
    "request": {
      "method": "PUT",
      "url": "Location/318aac11-3c42-42e6-8eb8-8840ebcfc968"
    }
  }, {
    "fullUrl": "https://madie.cms.gov/MedicationRequest/0dda9d66-13e0-4d8d-b13c-5db2357aded0",
    "resource": {
      "resourceType": "MedicationRequest",
      "id": "0dda9d66-13e0-4d8d-b13c-5db2357aded0",
      "meta": {
        "profile": [ "http://hl7.org/fhir/us/qicore/StructureDefinition/qicore-medicationrequest" ]
      },
      "status": "completed",
      "intent": "order",
      "medicationCodeableConcept": {
        "coding": [ {
          "system": "http://www.nlm.nih.gov/research/umls/rxnorm",
          "version": "06052023",
          "code": "1007184"
        } ]
      },
      "subject": {
        "reference": "Patient/fbc4c7bb-5c04-4c9f-8164-552c02ccdfa8"
      },
      "authoredOn": "2026-01-01T08:15:00.000Z",
      "requester": {
        "reference": "Practitioner/33d87640-6b2a-40b0-ab11-542478a88d5a"
      },
      "dosageInstruction": [ {
        "timing": {
          "repeat": {
            "boundsPeriod": {
              "start": "2025-01-01T08:15:00.000Z"
            }
          }
        }
      } ]
    },
    "request": {
      "method": "PUT",
      "url": "MedicationRequest/0dda9d66-13e0-4d8d-b13c-5db2357aded0"
    }
  }, {
    "fullUrl": "https://madie.cms.gov/Condition/9c8bd510-a6ab-431f-b2a0-e2dd4ef55edc",
    "resource": {
      "resourceType": "Condition",
      "id": "9c8bd510-a6ab-431f-b2a0-e2dd4ef55edc",
      "meta": {
        "profile": [ "http://hl7.org/fhir/us/qicore/StructureDefinition/qicore-condition-problems-health-concerns" ]
      },
      "clinicalStatus": {
        "coding": [ {
          "system": "http://terminology.hl7.org/CodeSystem/condition-clinical",
          "code": "resolved",
          "display": "resolved",
          "userSelected": true
        } ]
      },
      "verificationStatus": {
        "coding": [ {
          "system": "http://terminology.hl7.org/CodeSystem/condition-ver-status",
          "code": "confirmed",
          "display": "confirmed",
          "userSelected": true
        } ]
      },
      "category": [ {
        "coding": [ {
          "system": "http://terminology.hl7.org/CodeSystem/condition-category",
          "code": "problem-list-item",
          "display": "Problem List Item"
        } ]
      } ],
      "code": {
        "coding": [ {
          "system": "http://snomed.info/sct",
          "code": "1001000119102",
          "display": "Pulmonary embolism with pulmonary infarction (disorder)"
        } ]
      },
      "subject": {
        "reference": "Patient/fbc4c7bb-5c04-4c9f-8164-552c02ccdfa8"
      },
      "onsetPeriod": {
        "start": "2026-01-01T08:00:00.000Z",
        "end": "2026-01-03T08:15:00.000Z"
      }
    },
    "request": {
      "method": "PUT",
      "url": "Condition/9c8bd510-a6ab-431f-b2a0-e2dd4ef55edc"
    }
  }, {
    "fullUrl": "https://madie.cms.gov/Coverage/23586c92-8b98-4890-8aeb-6911e442e529",
    "resource": {
      "resourceType": "Coverage",
      "id": "23586c92-8b98-4890-8aeb-6911e442e529",
      "meta": {
        "profile": [ "http://hl7.org/fhir/us/qicore/StructureDefinition/qicore-coverage" ]
      },
      "identifier": [ {
        "system": "http://benefitsinc.com/certificate",
        "value": "12345"
      } ],
      "status": "active",
      "type": {
        "coding": [ {
          "system": "https://nahdo.org/sopt",
          "version": "1.0.1",
          "code": "1",
          "display": "MEDICARE",
          "userSelected": true
        } ]
      },
      "subscriberId": "AB9876",
      "beneficiary": {
        "reference": "Patient/fbc4c7bb-5c04-4c9f-8164-552c02ccdfa8"
      },
      "relationship": {
        "coding": [ {
          "system": "http://terminology.hl7.org/CodeSystem/subscriber-relationship",
          "code": "self"
        } ]
      },
      "payor": [ {
        "reference": "Organization/eec35a62-96b6-4408-a66d-e5325d4fb91c"
      } ]
    },
    "request": {
      "method": "PUT",
      "url": "Coverage/23586c92-8b98-4890-8aeb-6911e442e529"
    }
  }, {
    "fullUrl": "https://madie.cms.gov/Organization/eec35a62-96b6-4408-a66d-e5325d4fb91c",
    "resource": {
      "resourceType": "Organization",
      "id": "eec35a62-96b6-4408-a66d-e5325d4fb91c",
      "meta": {
        "profile": [ "http://hl7.org/fhir/us/qicore/StructureDefinition/qicore-organization" ]
      },
      "identifier": [ {
        "use": "temp",
        "system": "urn:oid:2.16.840.1.113883.4.4",
        "value": "21-3259825"
      } ],
      "active": true,
      "type": [ {
        "coding": [ {
          "system": "http://terminology.hl7.org/CodeSystem/organization-type",
          "code": "pay",
          "display": "Payer"
        } ]
      } ],
      "name": "Blue Cross Blue Shield of Texas",
      "telecom": [ {
        "system": "phone",
        "value": "(+1) 972-766-6900"
      } ],
      "address": [ {
        "use": "billing",
        "type": "postal",
        "line": [ "P.O. Box 660044" ],
        "city": "Dallas",
        "state": "TX",
        "postalCode": "75266-0044",
        "country": "USA"
      } ]
    },
    "request": {
      "method": "PUT",
      "url": "Organization/eec35a62-96b6-4408-a66d-e5325d4fb91c"
    }
  }, {
    "fullUrl": "https://madie.cms.gov/Practitioner/6ab0d1c6-ddb9-469c-a730-0e042e057a88",
    "resource": {
      "resourceType": "Practitioner",
      "id": "6ab0d1c6-ddb9-469c-a730-0e042e057a88",
      "meta": {
        "profile": [ "http://hl7.org/fhir/us/qicore/StructureDefinition/qicore-practitioner" ]
      },
      "identifier": [ {
        "system": "http://hl7.org/fhir/sid/us-npi",
        "value": "0723660813"
      } ],
      "name": [ {
        "family": "Evil",
        "prefix": [ "Dr" ]
      } ]
    },
    "request": {
      "method": "PUT",
      "url": "Practitioner/6ab0d1c6-ddb9-469c-a730-0e042e057a88"
    }
  }, {
    "fullUrl": "https://madie.cms.gov/MeasureReport/9b19ad79-8d16-4d44-bb74-9d8bd6117d13",
    "resource": {
      "resourceType": "MeasureReport",
      "id": "9b19ad79-8d16-4d44-bb74-9d8bd6117d13",
      "meta": {
        "profile": [ "http://hl7.org/fhir/us/cqfmeasures/StructureDefinition/test-case-cqfm" ]
      },
      "contained": [ {
        "resourceType": "Parameters",
        "id": "a6a30586-a5fd-4a1a-b779-134f0de7eed8-parameters",
        "parameter": [ {
          "name": "subject",
          "valueString": "fbc4c7bb-5c04-4c9f-8164-552c02ccdfa8"
        } ]
      } ],
      "extension": [ {
        "url": "http://hl7.org/fhir/StructureDefinition/cqf-inputParameters",
        "valueReference": {
          "reference": "#a6a30586-a5fd-4a1a-b779-134f0de7eed8-parameters"
        }
      }, {
        "url": "http://hl7.org/fhir/us/cqfmeasures/StructureDefinition/cqfm-testCaseDescription",
        "valueMarkdown": "Testing chief complaint attributes"
      } ],
      "modifierExtension": [ {
        "url": "http://hl7.org/fhir/us/cqfmeasures/StructureDefinition/cqfm-isTestCase",
        "valueBoolean": true
      } ],
      "status": "complete",
      "type": "individual",
      "measure": "https://madie.cms.gov/Measure/NHSNGlycemicControlHypoglycemiaInitialPopulation",
      "period": {
        "start": "2026-01-01",
        "end": "2026-12-31"
      },
      "group": [ {
        "id": "Group_1",
        "population": [ {
          "id": "InitialPopulation_1",
          "code": {
            "coding": [ {
              "system": "http://terminology.hl7.org/CodeSystem/measure-population",
              "code": "initial-population",
              "display": "Initial Population"
            } ]
          },
          "count": 1
        } ],
        "measureScore": {
          "value": 0.0
        }
      } ],
      "evaluatedResource": [ {
        "reference": "Patient/fbc4c7bb-5c04-4c9f-8164-552c02ccdfa8"
      }, {
        "reference": "Encounter/6fe4a75f-78cd-4595-870a-7516bfd5399d"
      }, {
        "reference": "Location/318aac11-3c42-42e6-8eb8-8840ebcfc968"
      }, {
        "reference": "MedicationRequest/0dda9d66-13e0-4d8d-b13c-5db2357aded0"
      }, {
        "reference": "Condition/9c8bd510-a6ab-431f-b2a0-e2dd4ef55edc"
      }, {
        "reference": "Coverage/23586c92-8b98-4890-8aeb-6911e442e529"
      }, {
        "reference": "Organization/eec35a62-96b6-4408-a66d-e5325d4fb91c"
      }, {
        "reference": "Practitioner/6ab0d1c6-ddb9-469c-a730-0e042e057a88"
      } ]
    },
    "request": {
      "method": "PUT",
      "url": "MeasureReport/9b19ad79-8d16-4d44-bb74-9d8bd6117d13"
    }
  } ]
}