{
  "resourceType": "Bundle",
  "id": "612e6b9302c62a011f2ee63c",
  "type": "transaction",
  "entry": [ {
    "fullUrl": "https://madie.cms.gov/Patient/f4ff5419-ce35-4a19-9a6e-7e69977d51b8",
    "resource": {
      "resourceType": "Patient",
      "id": "f4ff5419-ce35-4a19-9a6e-7e69977d51b8",
      "meta": {
        "profile": [ "http://hl7.org/fhir/us/qicore/StructureDefinition/qicore-patient" ]
      },
      "text": {
        "status": "generated",
        "div": "<div xmlns=\"http://www.w3.org/1999/xhtml\"><div class=\"hapiHeaderText\">PtRefDOIPC2DayAFEncBFICU <b>NUMERPASS </b></div><table class=\"hapiPropertyTable\"><tbody><tr><td>Identifier</td><td>24fc1ce85ce14557dd4d9eba17df9f17</td></tr><tr><td>Date of birth</td><td><span>02 January 1974</span></td></tr></tbody></table></div>"
      },
      "extension": [ {
        "url": "http://hl7.org/fhir/us/core/StructureDefinition/us-core-race",
        "extension": [ {
          "url": "ombCategory",
          "valueCoding": {
            "system": "urn:oid:2.16.840.1.113883.6.238",
            "code": "1002-5",
            "display": "American Indian or Alaska Native",
            "userSelected": true
          }
        }, {
          "url": "text",
          "valueString": "American Indian or Alaska Native"
        } ]
      }, {
        "url": "http://hl7.org/fhir/us/core/StructureDefinition/us-core-ethnicity",
        "extension": [ {
          "url": "ombCategory",
          "valueCoding": {
            "system": "urn:oid:2.16.840.1.113883.6.238",
            "code": "2135-2",
            "display": "Hispanic or Latino",
            "userSelected": true
          }
        }, {
          "url": "text",
          "valueString": "Hispanic or Latino"
        } ]
      } ],
      "identifier": [ {
        "type": {
          "coding": [ {
            "system": "http://terminology.hl7.org/CodeSystem/v2-0203",
            "code": "MR"
          } ]
        },
        "system": "https://bonnie-fhir.healthit.gov/",
        "value": "612e6b9302c62a011f2ee63c"
      } ],
      "active": true,
      "name": [ {
        "use": "usual",
        "family": "NUMERPass",
        "given": [ "PtRefDOIPC2DayAFEncBFICU" ]
      } ],
      "gender": "male",
      "birthDate": "1975-01-02"
    },
    "request": {
      "method": "PUT",
      "url": "Patient/f4ff5419-ce35-4a19-9a6e-7e69977d51b8"
    }
  }, {
    "fullUrl": "https://madie.cms.gov/Encounter/30c88ee3-a285-4284-ac0e-b5d47b4b786c",
    "resource": {
      "resourceType": "Encounter",
      "id": "30c88ee3-a285-4284-ac0e-b5d47b4b786c",
      "meta": {
        "profile": [ "http://hl7.org/fhir/us/qicore/StructureDefinition/qicore-encounter" ]
      },
      "status": "finished",
      "class": {
        "system": "http://terminology.hl7.org/CodeSystem/v3-ActCode",
        "code": "IMP",
        "display": "inpatient encounter"
      },
      "type": [ {
        "coding": [ {
          "system": "http://snomed.info/sct",
          "code": "8715000"
        } ]
      } ],
      "subject": {
        "reference": "Patient/f4ff5419-ce35-4a19-9a6e-7e69977d51b8"
      },
      "period": {
        "start": "2026-11-01T08:00:00.000+00:00",
        "end": "2026-11-26T08:15:00.000+00:00"
      },
      "length": {
        "value": 25,
        "unit": "days"
      },
      "location": [ {
        "location": {
          "reference": "Location/8d828b9f-3936-48ce-ba00-1b75bd4ec920"
        },
        "period": {
          "start": "2026-11-04T09:00:00.000+00:00",
          "end": "2026-11-06T08:15:00.000+00:00"
        }
      } ]
    },
    "request": {
      "method": "PUT",
      "url": "Encounter/30c88ee3-a285-4284-ac0e-b5d47b4b786c"
    }
  }, {
    "fullUrl": "https://madie.cms.gov/Coverage/e2722136-be0a-4a44-9fd2-277e15e45c36",
    "resource": {
      "resourceType": "Coverage",
      "id": "e2722136-be0a-4a44-9fd2-277e15e45c36",
      "status": "active",
      "beneficiary": {
        "reference": "Patient/f4ff5419-ce35-4a19-9a6e-7e69977d51b8"
      },
      "period": {
        "start": "1975-01-02T08:00:00.000+00:00"
      },
      "payor": [ {
        "reference": "Organization/f4248a8a-d140-4062-8c16-6aae136f1b89"
      } ]
    },
    "request": {
      "method": "PUT",
      "url": "Coverage/e2722136-be0a-4a44-9fd2-277e15e45c36"
    }
  }, {
    "fullUrl": "https://madie.cms.gov/ServiceRequest/783a9efc-5739-4421-853f-b86eeff5d366",
    "resource": {
      "resourceType": "ServiceRequest",
      "id": "783a9efc-5739-4421-853f-b86eeff5d366",
      "meta": {
        "profile": [ "http://hl7.org/fhir/us/qicore/StructureDefinition/qicore-servicenotrequested" ]
      },
      "extension": [ {
        "url": "http://hl7.org/fhir/us/qicore/StructureDefinition/qicore-doNotPerformReason",
        "valueCodeableConcept": {
          "coding": [ {
            "system": "http://snomed.info/sct",
            "code": "443390004",
            "display": "Refusal of treatment by patient (situation)"
          } ]
        }
      } ],
      "status": "completed",
      "intent": "order",
      "doNotPerform": true,
      "code": {
        "coding": [ {
          "system": "http://snomed.info/sct",
          "code": "428411000124104",
          "display": "Intermittent pneumatic compression boot (physical object)",
          "userSelected": true
        } ]
      },
      "subject": {
        "reference": "Patient/f4ff5419-ce35-4a19-9a6e-7e69977d51b8"
      },
      "authoredOn": "2026-11-03T11:00:00.000+00:00"
    },
    "request": {
      "method": "PUT",
      "url": "ServiceRequest/783a9efc-5739-4421-853f-b86eeff5d366"
    }
  }, {
    "fullUrl": "https://madie.cms.gov/Location/8d828b9f-3936-48ce-ba00-1b75bd4ec920",
    "resource": {
      "resourceType": "Location",
      "id": "8d828b9f-3936-48ce-ba00-1b75bd4ec920",
      "meta": {
        "profile": [ "http://hl7.org/fhir/us/qicore/StructureDefinition/qicore-location" ]
      },
      "identifier": [ {
        "use": "usual",
        "system": "http://exampleoflocation.com",
        "value": "B1-S.F2"
      } ],
      "name": "Medical Surgical East, first floor",
      "type": [ {
        "coding": [ {
          "system": "https://www.cdc.gov/nhsn/cdaportal/terminology/codesystem/hsloc.html",
          "code": "1025-6",
          "display": "Trauma Critical Care",
          "userSelected": true
        } ]
      } ]
    },
    "request": {
      "method": "PUT",
      "url": "Location/8d828b9f-3936-48ce-ba00-1b75bd4ec920"
    }
  }, {
    "fullUrl": "https://madie.cms.gov/Organization/f4248a8a-d140-4062-8c16-6aae136f1b89",
    "resource": {
      "resourceType": "Organization",
      "id": "f4248a8a-d140-4062-8c16-6aae136f1b89",
      "meta": {
        "profile": [ "http://hl7.org/fhir/us/qicore/StructureDefinition/qicore-organization" ]
      },
      "identifier": [ {
        "use": "temp",
        "system": "urn:oid:2.16.840.1.113883.4.4",
        "value": "21-3259825"
      } ],
      "active": true,
      "type": [ {
        "coding": [ {
          "system": "http://terminology.hl7.org/CodeSystem/organization-type",
          "code": "pay",
          "display": "Payer"
        } ]
      } ],
      "name": "Blue Cross Blue Shield of Texas",
      "telecom": [ {
        "system": "phone",
        "value": "(+1) 972-766-6900"
      } ],
      "address": [ {
        "use": "billing",
        "type": "postal",
        "line": [ "P.O. Box 660044" ],
        "city": "Dallas",
        "state": "TX",
        "postalCode": "75266-0044",
        "country": "USA"
      } ]
    },
    "request": {
      "method": "PUT",
      "url": "Organization/f4248a8a-d140-4062-8c16-6aae136f1b89"
    }
  }, {
    "fullUrl": "https://madie.cms.gov/Practitioner/a2031d49-3437-44e9-a4b8-1e664af0b850",
    "resource": {
      "resourceType": "Practitioner",
      "id": "a2031d49-3437-44e9-a4b8-1e664af0b850",
      "identifier": [ {
        "system": "http://hl7.org/fhir/sid/us-npi",
        "value": "123456"
      } ],
      "name": [ {
        "family": "Evil",
        "prefix": [ "Dr" ]
      } ]
    },
    "request": {
      "method": "PUT",
      "url": "Practitioner/a2031d49-3437-44e9-a4b8-1e664af0b850"
    }
  }, {
    "fullUrl": "https://madie.cms.gov/MeasureReport/f238febf-8b3f-4490-a28b-deb4554163fe",
    "resource": {
      "resourceType": "MeasureReport",
      "id": "f238febf-8b3f-4490-a28b-deb4554163fe",
      "meta": {
        "profile": [ "http://hl7.org/fhir/us/cqfmeasures/StructureDefinition/test-case-cqfm" ]
      },
      "contained": [ {
        "resourceType": "Parameters",
        "id": "b6573135-1e7b-4bce-870e-01d11f2531f3-parameters",
        "parameter": [ {
          "name": "subject",
          "valueString": "f4ff5419-ce35-4a19-9a6e-7e69977d51b8"
        } ]
      } ],
      "extension": [ {
        "url": "http://hl7.org/fhir/StructureDefinition/cqf-inputParameters",
        "valueReference": {
          "reference": "#b6573135-1e7b-4bce-870e-01d11f2531f3-parameters"
        }
      }, {
        "url": "http://hl7.org/fhir/us/cqfmeasures/StructureDefinition/cqfm-testCaseDescription",
        "valueMarkdown": "meets IPP, meets Denominator, IPC ordered not done PatRfsl 12day after Encounter  before ICU start\n"
      } ],
      "modifierExtension": [ {
        "url": "http://hl7.org/fhir/us/cqfmeasures/StructureDefinition/cqfm-isTestCase",
        "valueBoolean": true
      } ],
      "status": "complete",
      "type": "individual",
      "measure": "https://madie.cms.gov/Measure/CMS190FHIRVTEProphylaxisICU",
      "period": {
        "start": "2026-01-01",
        "end": "2026-12-31"
      },
      "group": [ {
        "id": "Group_1",
        "population": [ {
          "id": "InitialPopulation_1",
          "code": {
            "coding": [ {
              "system": "http://terminology.hl7.org/CodeSystem/measure-population",
              "code": "initial-population",
              "display": "Initial Population"
            } ]
          },
          "count": 1
        }, {
          "id": "Denominator_1",
          "code": {
            "coding": [ {
              "system": "http://terminology.hl7.org/CodeSystem/measure-population",
              "code": "denominator",
              "display": "Denominator"
            } ]
          },
          "count": 1
        }, {
          "id": "DenominatorExclusion_1",
          "code": {
            "coding": [ {
              "system": "http://terminology.hl7.org/CodeSystem/measure-population",
              "code": "denominator-exclusion",
              "display": "Denominator Exclusion"
            } ]
          },
          "count": 0
        }, {
          "id": "Numerator_1",
          "code": {
            "coding": [ {
              "system": "http://terminology.hl7.org/CodeSystem/measure-population",
              "code": "numerator",
              "display": "Numerator"
            } ]
          },
          "count": 1
        }, {
          "id": "DenominatorException_1",
          "code": {
            "coding": [ {
              "system": "http://terminology.hl7.org/CodeSystem/measure-population",
              "code": "denominator-exception",
              "display": "Denominator Exception"
            } ]
          },
          "count": 0
        } ],
        "measureScore": {
          "value": 0.0
        }
      } ],
      "evaluatedResource": [ {
        "reference": "Patient/f4ff5419-ce35-4a19-9a6e-7e69977d51b8"
      }, {
        "reference": "Encounter/30c88ee3-a285-4284-ac0e-b5d47b4b786c"
      }, {
        "reference": "Coverage/e2722136-be0a-4a44-9fd2-277e15e45c36"
      }, {
        "reference": "ServiceRequest/783a9efc-5739-4421-853f-b86eeff5d366"
      }, {
        "reference": "Location/8d828b9f-3936-48ce-ba00-1b75bd4ec920"
      }, {
        "reference": "Organization/f4248a8a-d140-4062-8c16-6aae136f1b89"
      }, {
        "reference": "Practitioner/a2031d49-3437-44e9-a4b8-1e664af0b850"
      } ]
    },
    "request": {
      "method": "PUT",
      "url": "MeasureReport/f238febf-8b3f-4490-a28b-deb4554163fe"
    }
  } ]
}