{
  "resourceType": "Bundle",
  "id": "NUMPass-70-on-Jan1-1",
  "type": "transaction",
  "entry": [ {
    "fullUrl": "https://madie.cms.gov/Patient/b4eff700-1f2c-4bc6-9c1e-eb11baa3b125",
    "resource": {
      "resourceType": "Patient",
      "id": "b4eff700-1f2c-4bc6-9c1e-eb11baa3b125",
      "meta": {
        "profile": [ "http://hl7.org/fhir/us/qicore/StructureDefinition/qicore-patient" ]
      },
      "extension": [ {
        "url": "http://hl7.org/fhir/us/core/StructureDefinition/us-core-race",
        "extension": [ {
          "url": "ombCategory",
          "valueCoding": {
            "system": "urn:oid:2.16.840.1.113883.6.238",
            "code": "2028-9",
            "display": "Asian"
          }
        }, {
          "url": "text",
          "valueString": "Asian"
        } ]
      }, {
        "url": "http://hl7.org/fhir/us/core/StructureDefinition/us-core-ethnicity",
        "extension": [ {
          "url": "ombCategory",
          "valueCoding": {
            "system": "urn:oid:2.16.840.1.113883.6.238",
            "code": "2186-5",
            "display": "Not Hispanic or Latino"
          }
        }, {
          "url": "text",
          "valueString": "Not Hispanic or Latino"
        } ]
      } ],
      "identifier": [ {
        "system": "http://hospital.smarthealthit.org",
        "value": "999999995"
      } ],
      "name": [ {
        "family": "NUMPass",
        "given": [ "NUMPass-70-on-Jan1-1" ]
      } ],
      "gender": "male",
      "birthDate": "1956-01-01"
    },
    "request": {
      "method": "PUT",
      "url": "Patient/b4eff700-1f2c-4bc6-9c1e-eb11baa3b125"
    }
  }, {
    "fullUrl": "https://madie.cms.gov/Encounter/4599f3f4-0b5f-4bf9-b716-f41aaeffa5f9",
    "resource": {
      "resourceType": "Encounter",
      "id": "4599f3f4-0b5f-4bf9-b716-f41aaeffa5f9",
      "meta": {
        "profile": [ "http://hl7.org/fhir/us/qicore/StructureDefinition/qicore-encounter" ]
      },
      "status": "finished",
      "class": {
        "system": "http://terminology.hl7.org/CodeSystem/v3-ActCode",
        "code": "AMB",
        "display": "ambulatory"
      },
      "type": [ {
        "coding": [ {
          "system": "http://snomed.info/sct",
          "code": "11429006"
        } ]
      } ],
      "subject": {
        "reference": "Patient/b4eff700-1f2c-4bc6-9c1e-eb11baa3b125"
      },
      "period": {
        "start": "2026-01-04T08:00:00.000+00:00",
        "end": "2026-01-04T08:00:00.000+00:00"
      }
    },
    "request": {
      "method": "PUT",
      "url": "Encounter/4599f3f4-0b5f-4bf9-b716-f41aaeffa5f9"
    }
  }, {
    "fullUrl": "https://madie.cms.gov/Encounter/6a4456bd-2944-4ea7-ad75-cbd2b8a01683",
    "resource": {
      "resourceType": "Encounter",
      "id": "6a4456bd-2944-4ea7-ad75-cbd2b8a01683",
      "meta": {
        "profile": [ "http://hl7.org/fhir/us/qicore/StructureDefinition/qicore-encounter" ]
      },
      "status": "finished",
      "class": {
        "system": "http://terminology.hl7.org/CodeSystem/v3-ActCode",
        "code": "AMB",
        "display": "ambulatory"
      },
      "type": [ {
        "coding": [ {
          "system": "http://www.ama-assn.org/go/cpt",
          "code": "99203",
          "display": "Office or other outpatient visit for the evaluation and management of a new patient, which requires a medically appropriate history and/or examination and low level of medical decision making. When using time for code selection, 30-44 minutes of total time is spent on the date of the encounter."
        } ]
      } ],
      "subject": {
        "reference": "Patient/b4eff700-1f2c-4bc6-9c1e-eb11baa3b125"
      },
      "period": {
        "start": "2026-01-04T08:00:00.000+00:00",
        "end": "2026-01-04T08:00:00.000+00:00"
      }
    },
    "request": {
      "method": "PUT",
      "url": "Encounter/6a4456bd-2944-4ea7-ad75-cbd2b8a01683"
    }
  }, {
    "fullUrl": "https://madie.cms.gov/Observation/0bf7faea-4bed-4cd4-92cd-ee2e50fe2313",
    "resource": {
      "resourceType": "Observation",
      "id": "0bf7faea-4bed-4cd4-92cd-ee2e50fe2313",
      "meta": {
        "profile": [ "http://hl7.org/fhir/us/core/StructureDefinition/us-core-bmi" ]
      },
      "status": "final",
      "category": [ {
        "coding": [ {
          "system": "http://terminology.hl7.org/CodeSystem/observation-category",
          "code": "vital-signs",
          "display": "Vital Signs"
        } ]
      } ],
      "code": {
        "coding": [ {
          "system": "http://loinc.org",
          "code": "39156-5",
          "display": "Body mass index (BMI) [Ratio]"
        } ]
      },
      "subject": {
        "reference": "Patient/b4eff700-1f2c-4bc6-9c1e-eb11baa3b125"
      },
      "effectiveDateTime": "2026-01-04T08:00:00.000+00:00",
      "issued": "2026-01-04T08:00:00.000+00:00",
      "valueQuantity": {
        "value": 23,
        "unit": "kg/m2",
        "system": "http://unitsofmeasure.org",
        "code": "kg/m2"
      }
    },
    "request": {
      "method": "PUT",
      "url": "Observation/0bf7faea-4bed-4cd4-92cd-ee2e50fe2313"
    }
  }, {
    "fullUrl": "https://madie.cms.gov/Condition/18712f58-6d11-4ad0-9914-a25ee8eb8558",
    "resource": {
      "resourceType": "Condition",
      "id": "18712f58-6d11-4ad0-9914-a25ee8eb8558",
      "meta": {
        "profile": [ "http://hl7.org/fhir/us/qicore/StructureDefinition/qicore-condition-problems-health-concerns" ]
      },
      "clinicalStatus": {
        "coding": [ {
          "system": "http://terminology.hl7.org/CodeSystem/condition-clinical",
          "code": "active",
          "display": "active",
          "userSelected": true
        } ]
      },
      "category": [ {
        "coding": [ {
          "system": "http://terminology.hl7.org/CodeSystem/condition-category",
          "code": "problem-list-item",
          "display": "Problem List Item"
        } ]
      } ],
      "code": {
        "coding": [ {
          "system": "http://snomed.info/sct",
          "code": "714628002"
        } ]
      },
      "subject": {
        "reference": "Patient/b4eff700-1f2c-4bc6-9c1e-eb11baa3b125"
      },
      "onsetDateTime": "2025-12-31T00:00:00.000+00:00"
    },
    "request": {
      "method": "PUT",
      "url": "Condition/18712f58-6d11-4ad0-9914-a25ee8eb8558"
    }
  }, {
    "fullUrl": "https://madie.cms.gov/MeasureReport/d8bdbc0c-142d-4856-b26f-9a35df1aa2be",
    "resource": {
      "resourceType": "MeasureReport",
      "id": "d8bdbc0c-142d-4856-b26f-9a35df1aa2be",
      "meta": {
        "profile": [ "http://hl7.org/fhir/us/cqfmeasures/StructureDefinition/test-case-cqfm" ]
      },
      "contained": [ {
        "resourceType": "Parameters",
        "id": "8fb436f9-5f3d-4668-a936-a2fcb03a241e-parameters",
        "parameter": [ {
          "name": "subject",
          "valueString": "b4eff700-1f2c-4bc6-9c1e-eb11baa3b125"
        } ]
      } ],
      "extension": [ {
        "url": "http://hl7.org/fhir/StructureDefinition/cqf-inputParameters",
        "valueReference": {
          "reference": "#8fb436f9-5f3d-4668-a936-a2fcb03a241e-parameters"
        }
      }, {
        "url": "http://hl7.org/fhir/us/cqfmeasures/StructureDefinition/cqfm-testCaseDescription",
        "valueMarkdown": "DENEX-prediabetes-diagnosis-dayoftestDec31"
      } ],
      "modifierExtension": [ {
        "url": "http://hl7.org/fhir/us/cqfmeasures/StructureDefinition/cqfm-isTestCase",
        "valueBoolean": true
      } ],
      "status": "complete",
      "type": "individual",
      "measure": "https://madie.cms.gov/Measure/CMS1154ScreeningPrediabetesFHIR",
      "period": {
        "start": "2026-01-01",
        "end": "2026-12-31"
      },
      "group": [ {
        "id": "Group_1",
        "population": [ {
          "id": "InitialPopulation_1",
          "code": {
            "coding": [ {
              "system": "http://terminology.hl7.org/CodeSystem/measure-population",
              "code": "initial-population",
              "display": "Initial Population"
            } ]
          },
          "count": 1
        }, {
          "id": "Denominator_1",
          "code": {
            "coding": [ {
              "system": "http://terminology.hl7.org/CodeSystem/measure-population",
              "code": "denominator",
              "display": "Denominator"
            } ]
          },
          "count": 1
        }, {
          "id": "DenominatorExclusion_1",
          "code": {
            "coding": [ {
              "system": "http://terminology.hl7.org/CodeSystem/measure-population",
              "code": "denominator-exclusion",
              "display": "Denominator Exclusion"
            } ]
          },
          "count": 1
        }, {
          "id": "Numerator_1",
          "code": {
            "coding": [ {
              "system": "http://terminology.hl7.org/CodeSystem/measure-population",
              "code": "numerator",
              "display": "Numerator"
            } ]
          },
          "count": 0
        } ],
        "measureScore": {
          "value": 1.0
        }
      } ],
      "evaluatedResource": [ {
        "reference": "Patient/b4eff700-1f2c-4bc6-9c1e-eb11baa3b125"
      }, {
        "reference": "Encounter/4599f3f4-0b5f-4bf9-b716-f41aaeffa5f9"
      }, {
        "reference": "Encounter/6a4456bd-2944-4ea7-ad75-cbd2b8a01683"
      }, {
        "reference": "Observation/0bf7faea-4bed-4cd4-92cd-ee2e50fe2313"
      }, {
        "reference": "Condition/18712f58-6d11-4ad0-9914-a25ee8eb8558"
      } ]
    },
    "request": {
      "method": "PUT",
      "url": "MeasureReport/d8bdbc0c-142d-4856-b26f-9a35df1aa2be"
    }
  } ]
}