{
  "resourceType": "Bundle",
  "id": "6356dca654e383debade75aa",
  "type": "transaction",
  "entry": [ {
    "fullUrl": "https://madie.cms.gov/Patient/763d86f9-d93f-4873-8b64-8439566b242e",
    "resource": {
      "resourceType": "Patient",
      "id": "763d86f9-d93f-4873-8b64-8439566b242e",
      "meta": {
        "profile": [ "http://hl7.org/fhir/us/qicore/StructureDefinition/qicore-patient" ]
      },
      "text": {
        "status": "generated",
        "div": "<div xmlns=\"http://www.w3.org/1999/xhtml\"><div class=\"hapiHeaderText\">2ENCMEETNUM<b>NUMPASS</b></div><table class=\"hapiPropertyTable\"><tbody><tr><td>Date of birth</td><td><span>01 February 2004</span></td></tr></tbody></table></div>"
      },
      "extension": [ {
        "url": "http://hl7.org/fhir/us/core/StructureDefinition/us-core-race",
        "extension": [ {
          "url": "ombCategory",
          "valueCoding": {
            "system": "urn:oid:2.16.840.1.113883.6.238",
            "code": "1002-5",
            "display": "American Indian or Alaska Native",
            "userSelected": true
          }
        }, {
          "url": "text",
          "valueString": "American Indian or Alaska Native"
        } ]
      }, {
        "url": "http://hl7.org/fhir/us/core/StructureDefinition/us-core-ethnicity",
        "extension": [ {
          "url": "ombCategory",
          "valueCoding": {
            "system": "urn:oid:2.16.840.1.113883.6.238",
            "code": "2135-2",
            "display": "Hispanic or Latino",
            "userSelected": true
          }
        }, {
          "url": "text",
          "valueString": "Hispanic or Latino"
        } ]
      } ],
      "identifier": [ {
        "type": {
          "coding": [ {
            "system": "http://terminology.hl7.org/CodeSystem/v2-0203",
            "code": "MR"
          } ]
        },
        "system": "https://bonnie-fhir.healthit.gov/",
        "value": "6356dca654e383debade75aa"
      } ],
      "active": true,
      "name": [ {
        "use": "usual",
        "family": "NUMPass",
        "given": [ "2ENCMEETNUM" ]
      } ],
      "gender": "female",
      "birthDate": "2005-02-01"
    },
    "request": {
      "method": "PUT",
      "url": "Patient/763d86f9-d93f-4873-8b64-8439566b242e"
    }
  }, {
    "fullUrl": "https://madie.cms.gov/Observation/c911e8f1-498d-49e7-91c7-9e6af238db95",
    "resource": {
      "resourceType": "Observation",
      "id": "c911e8f1-498d-49e7-91c7-9e6af238db95",
      "meta": {
        "profile": [ "http://hl7.org/fhir/us/qicore/StructureDefinition/qicore-simple-observation" ]
      },
      "status": "final",
      "category": [ {
        "coding": [ {
          "system": "http://terminology.hl7.org/CodeSystem/observation-category",
          "code": "exam",
          "display": "exam",
          "userSelected": true
        } ]
      } ],
      "code": {
        "coding": [ {
          "system": "http://loinc.org",
          "code": "93857-1"
        } ]
      },
      "subject": {
        "reference": "Patient/763d86f9-d93f-4873-8b64-8439566b242e"
      },
      "effectiveDateTime": "2026-02-01T08:00:00.000+00:00",
      "performer": [ {
        "reference": "Organization/example1",
        "display": "Hendricks Country Hospital"
      } ],
      "valueDateTime": "2026-02-01T08:00:00.000+00:00"
    },
    "request": {
      "method": "PUT",
      "url": "Observation/c911e8f1-498d-49e7-91c7-9e6af238db95"
    }
  }, {
    "fullUrl": "https://madie.cms.gov/Observation/0bfdae05-d505-41b5-8078-2040b23fe291",
    "resource": {
      "resourceType": "Observation",
      "id": "0bfdae05-d505-41b5-8078-2040b23fe291",
      "meta": {
        "profile": [ "http://hl7.org/fhir/us/qicore/StructureDefinition/qicore-simple-observation" ]
      },
      "status": "final",
      "category": [ {
        "coding": [ {
          "system": "http://terminology.hl7.org/CodeSystem/observation-category",
          "code": "exam",
          "display": "exam",
          "userSelected": true
        } ]
      } ],
      "code": {
        "coding": [ {
          "system": "http://loinc.org",
          "code": "93857-1"
        } ]
      },
      "subject": {
        "reference": "Patient/763d86f9-d93f-4873-8b64-8439566b242e"
      },
      "effectiveDateTime": "2026-11-10T08:00:00.000+00:00",
      "performer": [ {
        "reference": "Organization/example1",
        "display": "Hendricks Country Hospital"
      } ],
      "valueDateTime": "2026-11-10T08:00:00.000+00:00"
    },
    "request": {
      "method": "PUT",
      "url": "Observation/0bfdae05-d505-41b5-8078-2040b23fe291"
    }
  }, {
    "fullUrl": "https://madie.cms.gov/Observation/31fc3b46-8af0-44bf-a23b-95f04aac757b",
    "resource": {
      "resourceType": "Observation",
      "id": "31fc3b46-8af0-44bf-a23b-95f04aac757b",
      "meta": {
        "profile": [ "http://hl7.org/fhir/us/qicore/StructureDefinition/qicore-simple-observation" ]
      },
      "status": "final",
      "category": [ {
        "coding": [ {
          "system": "http://terminology.hl7.org/CodeSystem/observation-category",
          "code": "exam",
          "display": "exam",
          "userSelected": true
        } ]
      } ],
      "code": {
        "coding": [ {
          "system": "http://loinc.org",
          "code": "11884-4"
        } ]
      },
      "subject": {
        "reference": "Patient/763d86f9-d93f-4873-8b64-8439566b242e"
      },
      "effectiveDateTime": "2026-02-01T08:00:00.000+00:00",
      "performer": [ {
        "reference": "Organization/example1",
        "display": "Hendricks Country Hospital"
      } ],
      "valueQuantity": {
        "value": 21,
        "system": "http://unitsofmeasure.org",
        "code": "wk"
      }
    },
    "request": {
      "method": "PUT",
      "url": "Observation/31fc3b46-8af0-44bf-a23b-95f04aac757b"
    }
  }, {
    "fullUrl": "https://madie.cms.gov/Observation/ff92306c-160f-4614-98eb-d4e5c57e2e52",
    "resource": {
      "resourceType": "Observation",
      "id": "ff92306c-160f-4614-98eb-d4e5c57e2e52",
      "meta": {
        "profile": [ "http://hl7.org/fhir/us/qicore/StructureDefinition/qicore-simple-observation" ]
      },
      "status": "final",
      "category": [ {
        "coding": [ {
          "system": "http://terminology.hl7.org/CodeSystem/observation-category",
          "code": "exam",
          "display": "exam",
          "userSelected": true
        } ]
      } ],
      "code": {
        "coding": [ {
          "system": "http://loinc.org",
          "code": "11884-4"
        } ]
      },
      "subject": {
        "reference": "Patient/763d86f9-d93f-4873-8b64-8439566b242e"
      },
      "effectiveDateTime": "2026-11-10T08:00:00.000+00:00",
      "performer": [ {
        "reference": "Organization/example1",
        "display": "Hendricks Country Hospital"
      } ],
      "valueQuantity": {
        "value": 23,
        "system": "http://unitsofmeasure.org",
        "code": "wk"
      }
    },
    "request": {
      "method": "PUT",
      "url": "Observation/ff92306c-160f-4614-98eb-d4e5c57e2e52"
    }
  }, {
    "fullUrl": "https://madie.cms.gov/Encounter/a3da5a2c-f1a6-4e7b-a80f-14eaebb61f23",
    "resource": {
      "resourceType": "Encounter",
      "id": "a3da5a2c-f1a6-4e7b-a80f-14eaebb61f23",
      "meta": {
        "profile": [ "http://hl7.org/fhir/us/qicore/StructureDefinition/qicore-encounter" ]
      },
      "status": "finished",
      "class": {
        "system": "http://terminology.hl7.org/CodeSystem/v3-ActCode",
        "code": "IMP",
        "display": "inpatient encounter"
      },
      "type": [ {
        "coding": [ {
          "system": "http://snomed.info/sct",
          "code": "183452005"
        } ]
      } ],
      "subject": {
        "reference": "Patient/763d86f9-d93f-4873-8b64-8439566b242e"
      },
      "period": {
        "start": "2026-02-01T08:00:00.000+00:00",
        "end": "2026-02-05T08:15:00.000+00:00"
      },
      "reasonReference": [ {
        "reference": "Condition/b365c40a-a97b-4c49-9e75-95695bb4ff40"
      } ]
    },
    "request": {
      "method": "PUT",
      "url": "Encounter/a3da5a2c-f1a6-4e7b-a80f-14eaebb61f23"
    }
  }, {
    "fullUrl": "https://madie.cms.gov/Encounter/df4df224-bce3-4945-b448-58eaa9491bb2",
    "resource": {
      "resourceType": "Encounter",
      "id": "df4df224-bce3-4945-b448-58eaa9491bb2",
      "meta": {
        "profile": [ "http://hl7.org/fhir/us/qicore/StructureDefinition/qicore-encounter" ]
      },
      "status": "finished",
      "class": {
        "system": "http://terminology.hl7.org/CodeSystem/v3-ActCode",
        "code": "IMP",
        "display": "inpatient encounter"
      },
      "type": [ {
        "coding": [ {
          "system": "http://snomed.info/sct",
          "code": "183452005"
        } ]
      } ],
      "subject": {
        "reference": "Patient/763d86f9-d93f-4873-8b64-8439566b242e"
      },
      "period": {
        "start": "2026-11-10T08:00:00.000+00:00",
        "end": "2026-11-15T08:15:00.000+00:00"
      },
      "reasonReference": [ {
        "reference": "Condition/7ab51740-8c96-49ab-8273-cf80c4e6c793"
      } ]
    },
    "request": {
      "method": "PUT",
      "url": "Encounter/df4df224-bce3-4945-b448-58eaa9491bb2"
    }
  }, {
    "fullUrl": "https://madie.cms.gov/Procedure/a0ac99c4-058d-45d2-94ad-dc60db85214b",
    "resource": {
      "resourceType": "Procedure",
      "id": "a0ac99c4-058d-45d2-94ad-dc60db85214b",
      "meta": {
        "profile": [ "http://hl7.org/fhir/us/qicore/StructureDefinition/qicore-procedure" ]
      },
      "extension": [ {
        "url": "http://hl7.org/fhir/us/qicore/StructureDefinition/qicore-recorded",
        "valueDateTime": "2014-04-05T13:35:00.000+00:00"
      } ],
      "status": "completed",
      "code": {
        "coding": [ {
          "system": "http://snomed.info/sct",
          "code": "10745001"
        } ]
      },
      "subject": {
        "reference": "Patient/763d86f9-d93f-4873-8b64-8439566b242e"
      },
      "performedPeriod": {
        "start": "2026-02-01T08:00:00.000+00:00",
        "end": "2026-02-05T08:15:00.000+00:00"
      }
    },
    "request": {
      "method": "PUT",
      "url": "Procedure/a0ac99c4-058d-45d2-94ad-dc60db85214b"
    }
  }, {
    "fullUrl": "https://madie.cms.gov/Procedure/a0ac99c4-058d-45d2-94ad-dc60db85214b2",
    "resource": {
      "resourceType": "Procedure",
      "id": "a0ac99c4-058d-45d2-94ad-dc60db85214b2",
      "meta": {
        "profile": [ "http://hl7.org/fhir/us/qicore/StructureDefinition/qicore-procedure" ]
      },
      "extension": [ {
        "url": "http://hl7.org/fhir/us/qicore/StructureDefinition/qicore-recorded",
        "valueDateTime": "2014-04-05T13:35:00.000+00:00"
      } ],
      "status": "completed",
      "code": {
        "coding": [ {
          "system": "http://snomed.info/sct",
          "code": "10745001"
        } ]
      },
      "subject": {
        "reference": "Patient/763d86f9-d93f-4873-8b64-8439566b242e"
      },
      "performedPeriod": {
        "start": "2026-11-10T08:00:00.000+00:00",
        "end": "2026-11-10T08:15:00.000+00:00"
      }
    },
    "request": {
      "method": "PUT",
      "url": "Procedure/a0ac99c4-058d-45d2-94ad-dc60db85214b2"
    }
  }, {
    "fullUrl": "https://madie.cms.gov/Condition/b365c40a-a97b-4c49-9e75-95695bb4ff40",
    "resource": {
      "resourceType": "Condition",
      "id": "b365c40a-a97b-4c49-9e75-95695bb4ff40",
      "meta": {
        "profile": [ "http://hl7.org/fhir/us/qicore/StructureDefinition/qicore-condition" ]
      },
      "category": [ {
        "coding": [ {
          "system": "http://terminology.hl7.org/CodeSystem/condition-category",
          "code": "encounter-diagnosis",
          "display": "Encounter Diagnosis"
        } ]
      } ],
      "code": {
        "coding": [ {
          "system": "http://hl7.org/fhir/sid/icd-10-cm",
          "version": "2023",
          "code": "A32.7",
          "display": "Listerial sepsis",
          "userSelected": true
        } ]
      },
      "subject": {
        "reference": "Patient/763d86f9-d93f-4873-8b64-8439566b242e"
      },
      "encounter": {
        "reference": "Encounter/a3da5a2c-f1a6-4e7b-a80f-14eaebb61f23"
      },
      "recordedDate": "2026-10-26T08:00:00.000+00:00"
    },
    "request": {
      "method": "PUT",
      "url": "Condition/b365c40a-a97b-4c49-9e75-95695bb4ff40"
    }
  }, {
    "fullUrl": "https://madie.cms.gov/Condition/7ab51740-8c96-49ab-8273-cf80c4e6c793",
    "resource": {
      "resourceType": "Condition",
      "id": "7ab51740-8c96-49ab-8273-cf80c4e6c793",
      "meta": {
        "profile": [ "http://hl7.org/fhir/us/qicore/StructureDefinition/qicore-condition" ]
      },
      "category": [ {
        "coding": [ {
          "system": "http://terminology.hl7.org/CodeSystem/condition-category",
          "code": "encounter-diagnosis",
          "display": "Encounter Diagnosis"
        } ]
      } ],
      "code": {
        "coding": [ {
          "system": "http://hl7.org/fhir/sid/icd-10-cm",
          "version": "2023",
          "code": "A32.7",
          "display": "Listerial sepsis",
          "userSelected": true
        } ]
      },
      "subject": {
        "reference": "Patient/763d86f9-d93f-4873-8b64-8439566b242e"
      },
      "encounter": {
        "reference": "Encounter/df4df224-bce3-4945-b448-58eaa9491bb2"
      },
      "recordedDate": "2026-10-26T08:00:00.000+00:00"
    },
    "request": {
      "method": "PUT",
      "url": "Condition/7ab51740-8c96-49ab-8273-cf80c4e6c793"
    }
  }, {
    "fullUrl": "https://madie.cms.gov/Claim/2c05d8c2-ec55-480d-8dc9-8cc5f9bae9c0",
    "resource": {
      "resourceType": "Claim",
      "id": "2c05d8c2-ec55-480d-8dc9-8cc5f9bae9c0",
      "meta": {
        "profile": [ "http://hl7.org/fhir/us/qicore/StructureDefinition/qicore-claim" ]
      },
      "status": "active",
      "type": {
        "coding": [ {
          "system": "http://terminology.hl7.org/CodeSystem/claim-type",
          "code": "institutional",
          "display": "Institutional"
        } ]
      },
      "use": "claim",
      "patient": {
        "reference": "Patient/763d86f9-d93f-4873-8b64-8439566b242e"
      },
      "created": "2026-11-08",
      "provider": {
        "reference": "Practitioner/560f8911-47cc-4eff-add7-0d1c906cddfe"
      },
      "priority": {
        "coding": [ {
          "system": "http://terminology.hl7.org/CodeSystem/processpriority",
          "code": "normal"
        } ]
      },
      "diagnosis": [ {
        "sequence": 1,
        "diagnosisCodeableConcept": {
          "coding": [ {
            "system": "http://hl7.org/fhir/sid/icd-10-cm",
            "code": "J45.21",
            "display": "Mild intermittent asthma with (acute) exacerbation"
          } ]
        },
        "type": [ {
          "coding": [ {
            "system": "http://terminology.hl7.org/CodeSystem/ex-diagnosistype",
            "code": "discharge",
            "display": "Discharge Diagnosis"
          } ]
        } ],
        "onAdmission": {
          "coding": [ {
            "system": "https://www.cms.gov/Medicare/Medicare-Fee-for-Service-Payment/HospitalAcqCond/Coding",
            "code": "Y"
          } ]
        }
      }, {
        "sequence": 2,
        "diagnosisCodeableConcept": {
          "coding": [ {
            "system": "http://hl7.org/fhir/sid/icd-10-cm",
            "code": "A32.7",
            "display": "Listerial sepsis"
          } ]
        },
        "type": [ {
          "coding": [ {
            "system": "http://terminology.hl7.org/CodeSystem/ex-diagnosistype",
            "code": "discharge",
            "display": "Discharge Diagnosis"
          } ]
        } ],
        "onAdmission": {
          "coding": [ {
            "system": "https://www.cms.gov/Medicare/Medicare-Fee-for-Service-Payment/HospitalAcqCond/Coding",
            "code": "N"
          } ]
        }
      } ],
      "insurance": [ {
        "sequence": 1,
        "focal": true,
        "coverage": {
          "reference": "Coverage/Coverage-1"
        }
      } ],
      "item": [ {
        "sequence": 1,
        "careTeamSequence": [ 1 ],
        "diagnosisSequence": [ 1 ],
        "productOrService": {
          "coding": [ {
            "system": "http://www.ama-assn.org/go/cpt",
            "code": "99232"
          } ]
        },
        "encounter": [ {
          "reference": "Encounter/a3da5a2c-f1a6-4e7b-a80f-14eaebb61f23"
        } ]
      }, {
        "sequence": 2,
        "careTeamSequence": [ 1 ],
        "diagnosisSequence": [ 2 ],
        "productOrService": {
          "coding": [ {
            "system": "http://www.ama-assn.org/go/cpt",
            "code": "99233"
          } ]
        },
        "encounter": [ {
          "reference": "Encounter/a3da5a2c-f1a6-4e7b-a80f-14eaebb61f23"
        } ]
      } ],
      "total": {
        "value": 3800,
        "currency": "USD"
      }
    },
    "request": {
      "method": "PUT",
      "url": "Claim/2c05d8c2-ec55-480d-8dc9-8cc5f9bae9c0"
    }
  }, {
    "fullUrl": "https://madie.cms.gov/Claim/2c05d8c2-ec55-480d-8dc9-8cc5f9bae9c0",
    "resource": {
      "resourceType": "Claim",
      "id": "2c05d8c2-ec55-480d-8dc9-8cc5f9bae9c0",
      "meta": {
        "profile": [ "http://hl7.org/fhir/us/qicore/StructureDefinition/qicore-claim" ]
      },
      "status": "active",
      "type": {
        "coding": [ {
          "system": "http://terminology.hl7.org/CodeSystem/claim-type",
          "code": "institutional",
          "display": "Institutional"
        } ]
      },
      "use": "claim",
      "patient": {
        "reference": "Patient/763d86f9-d93f-4873-8b64-8439566b242e"
      },
      "created": "2026-11-08",
      "provider": {
        "reference": "Practitioner/560f8911-47cc-4eff-add7-0d1c906cddfe"
      },
      "priority": {
        "coding": [ {
          "system": "http://terminology.hl7.org/CodeSystem/processpriority",
          "code": "normal"
        } ]
      },
      "diagnosis": [ {
        "sequence": 1,
        "diagnosisCodeableConcept": {
          "coding": [ {
            "system": "http://hl7.org/fhir/sid/icd-10-cm",
            "code": "J45.21",
            "display": "Mild intermittent asthma with (acute) exacerbation"
          } ]
        },
        "type": [ {
          "coding": [ {
            "system": "http://terminology.hl7.org/CodeSystem/ex-diagnosistype",
            "code": "discharge",
            "display": "Discharge Diagnosis"
          } ]
        } ],
        "onAdmission": {
          "coding": [ {
            "system": "https://www.cms.gov/Medicare/Medicare-Fee-for-Service-Payment/HospitalAcqCond/Coding",
            "code": "Y"
          } ]
        }
      }, {
        "sequence": 2,
        "diagnosisCodeableConcept": {
          "coding": [ {
            "system": "http://hl7.org/fhir/sid/icd-10-cm",
            "code": "A32.7",
            "display": "Listerial sepsis"
          } ]
        },
        "type": [ {
          "coding": [ {
            "system": "http://terminology.hl7.org/CodeSystem/ex-diagnosistype",
            "code": "discharge",
            "display": "Discharge Diagnosis"
          } ]
        } ],
        "onAdmission": {
          "coding": [ {
            "system": "https://www.cms.gov/Medicare/Medicare-Fee-for-Service-Payment/HospitalAcqCond/Coding",
            "code": "N"
          } ]
        }
      } ],
      "insurance": [ {
        "sequence": 1,
        "focal": true,
        "coverage": {
          "reference": "Coverage/Coverage-1"
        }
      } ],
      "item": [ {
        "sequence": 1,
        "careTeamSequence": [ 1 ],
        "diagnosisSequence": [ 1 ],
        "productOrService": {
          "coding": [ {
            "system": "http://www.ama-assn.org/go/cpt",
            "code": "99232"
          } ]
        },
        "encounter": [ {
          "reference": "Encounter/df4df224-bce3-4945-b448-58eaa9491bb2"
        } ]
      }, {
        "sequence": 2,
        "careTeamSequence": [ 1 ],
        "diagnosisSequence": [ 2 ],
        "productOrService": {
          "coding": [ {
            "system": "http://www.ama-assn.org/go/cpt",
            "code": "99233"
          } ]
        },
        "encounter": [ {
          "reference": "Encounter/df4df224-bce3-4945-b448-58eaa9491bb2"
        } ]
      } ],
      "total": {
        "value": 3800,
        "currency": "USD"
      }
    },
    "request": {
      "method": "PUT",
      "url": "Claim/2c05d8c2-ec55-480d-8dc9-8cc5f9bae9c0"
    }
  }, {
    "fullUrl": "https://madie.cms.gov/Coverage/81628b19-5b55-40a0-ab23-a247a247ae6a",
    "resource": {
      "resourceType": "Coverage",
      "id": "81628b19-5b55-40a0-ab23-a247a247ae6a",
      "meta": {
        "profile": [ "http://hl7.org/fhir/us/qicore/StructureDefinition/qicore-coverage" ]
      },
      "status": "active",
      "subscriberId": "523435",
      "beneficiary": {
        "reference": "Patient/763d86f9-d93f-4873-8b64-8439566b242e"
      },
      "relationship": {
        "coding": [ {
          "system": "http://terminology.hl7.org/CodeSystem/subscriber-relationship",
          "code": "self"
        } ]
      },
      "payor": [ {
        "reference": "Organization/d10192f5-5e28-4d66-89f8-13f3f2b5b75b"
      } ]
    },
    "request": {
      "method": "PUT",
      "url": "Coverage/81628b19-5b55-40a0-ab23-a247a247ae6a"
    }
  }, {
    "fullUrl": "https://madie.cms.gov/Organization/d10192f5-5e28-4d66-89f8-13f3f2b5b75b",
    "resource": {
      "resourceType": "Organization",
      "id": "d10192f5-5e28-4d66-89f8-13f3f2b5b75b",
      "meta": {
        "profile": [ "http://hl7.org/fhir/us/qicore/StructureDefinition/qicore-organization" ]
      },
      "identifier": [ {
        "use": "temp",
        "system": "urn:oid:2.16.840.1.113883.4.4",
        "value": "21-3259825"
      } ],
      "active": true,
      "type": [ {
        "coding": [ {
          "system": "http://terminology.hl7.org/CodeSystem/organization-type",
          "code": "pay",
          "display": "Payer"
        } ]
      } ],
      "name": "Blue Cross Blue Shield of Texas",
      "telecom": [ {
        "system": "phone",
        "value": "(+1) 972-766-6900"
      } ],
      "address": [ {
        "use": "billing",
        "type": "postal",
        "line": [ "P.O. Box 660044" ],
        "city": "Dallas",
        "state": "TX",
        "postalCode": "75266-0044",
        "country": "USA"
      } ]
    },
    "request": {
      "method": "PUT",
      "url": "Organization/d10192f5-5e28-4d66-89f8-13f3f2b5b75b"
    }
  }, {
    "fullUrl": "https://madie.cms.gov/Practitioner/560f8911-47cc-4eff-add7-0d1c906cddfe",
    "resource": {
      "resourceType": "Practitioner",
      "id": "560f8911-47cc-4eff-add7-0d1c906cddfe",
      "meta": {
        "profile": [ "http://hl7.org/fhir/us/qicore/StructureDefinition/qicore-practitioner" ]
      },
      "identifier": [ {
        "system": "http://hl7.org/fhir/sid/us-npi",
        "value": "9999999896"
      } ],
      "name": [ {
        "family": "Evil",
        "prefix": [ "Dr" ]
      } ]
    },
    "request": {
      "method": "PUT",
      "url": "Practitioner/560f8911-47cc-4eff-add7-0d1c906cddfe"
    }
  }, {
    "fullUrl": "https://madie.cms.gov/MeasureReport/7ca90ad8-935e-4d56-80d9-5470c8a98481",
    "resource": {
      "resourceType": "MeasureReport",
      "id": "7ca90ad8-935e-4d56-80d9-5470c8a98481",
      "meta": {
        "profile": [ "http://hl7.org/fhir/us/cqfmeasures/StructureDefinition/test-case-cqfm" ]
      },
      "contained": [ {
        "resourceType": "Parameters",
        "id": "41799443-6194-4fc6-964e-2288f5964bbf-parameters",
        "parameter": [ {
          "name": "subject",
          "valueString": "763d86f9-d93f-4873-8b64-8439566b242e"
        } ]
      } ],
      "extension": [ {
        "url": "http://hl7.org/fhir/StructureDefinition/cqf-inputParameters",
        "valueReference": {
          "reference": "#41799443-6194-4fc6-964e-2288f5964bbf-parameters"
        }
      }, {
        "url": "http://hl7.org/fhir/us/cqfmeasures/StructureDefinition/cqfm-testCaseDescription",
        "valueMarkdown": "Complication (sepsis) on 1ST and 2nd encounter\n"
      } ],
      "modifierExtension": [ {
        "url": "http://hl7.org/fhir/us/cqfmeasures/StructureDefinition/cqfm-isTestCase",
        "valueBoolean": true
      } ],
      "status": "complete",
      "type": "individual",
      "measure": "https://madie.cms.gov/Measure/CMS1028FHIRPCSevereOBComps",
      "period": {
        "start": "2026-01-01",
        "end": "2026-12-31"
      },
      "group": [ {
        "id": "Group_1",
        "population": [ {
          "id": "InitialPopulation_1",
          "code": {
            "coding": [ {
              "system": "http://terminology.hl7.org/CodeSystem/measure-population",
              "code": "initial-population",
              "display": "Initial Population"
            } ]
          },
          "count": 2
        }, {
          "id": "Denominator_1",
          "code": {
            "coding": [ {
              "system": "http://terminology.hl7.org/CodeSystem/measure-population",
              "code": "denominator",
              "display": "Denominator"
            } ]
          },
          "count": 2
        }, {
          "id": "Numerator_1",
          "code": {
            "coding": [ {
              "system": "http://terminology.hl7.org/CodeSystem/measure-population",
              "code": "numerator",
              "display": "Numerator"
            } ]
          },
          "count": 2
        }, {
          "id": "NumeratorExclusion_1",
          "code": {
            "coding": [ {
              "system": "http://terminology.hl7.org/CodeSystem/measure-population",
              "code": "numerator-exclusion",
              "display": "Numerator Exclusion"
            } ]
          },
          "count": 0
        } ],
        "measureScore": {
          "value": 0.0
        }
      }, {
        "id": "Group_2",
        "population": [ {
          "id": "InitialPopulation_2",
          "code": {
            "coding": [ {
              "system": "http://terminology.hl7.org/CodeSystem/measure-population",
              "code": "initial-population",
              "display": "Initial Population"
            } ]
          },
          "count": 2
        }, {
          "id": "Denominator_2",
          "code": {
            "coding": [ {
              "system": "http://terminology.hl7.org/CodeSystem/measure-population",
              "code": "denominator",
              "display": "Denominator"
            } ]
          },
          "count": 2
        }, {
          "id": "Numerator_2",
          "code": {
            "coding": [ {
              "system": "http://terminology.hl7.org/CodeSystem/measure-population",
              "code": "numerator",
              "display": "Numerator"
            } ]
          },
          "count": 2
        }, {
          "id": "NumeratorExclusion_2",
          "code": {
            "coding": [ {
              "system": "http://terminology.hl7.org/CodeSystem/measure-population",
              "code": "numerator-exclusion",
              "display": "Numerator Exclusion"
            } ]
          },
          "count": 0
        } ],
        "measureScore": {
          "value": 0.0
        }
      } ],
      "evaluatedResource": [ {
        "reference": "Patient/763d86f9-d93f-4873-8b64-8439566b242e"
      }, {
        "reference": "Observation/c911e8f1-498d-49e7-91c7-9e6af238db95"
      }, {
        "reference": "Observation/0bfdae05-d505-41b5-8078-2040b23fe291"
      }, {
        "reference": "Observation/31fc3b46-8af0-44bf-a23b-95f04aac757b"
      }, {
        "reference": "Observation/ff92306c-160f-4614-98eb-d4e5c57e2e52"
      }, {
        "reference": "Encounter/a3da5a2c-f1a6-4e7b-a80f-14eaebb61f23"
      }, {
        "reference": "Encounter/df4df224-bce3-4945-b448-58eaa9491bb2"
      }, {
        "reference": "Procedure/a0ac99c4-058d-45d2-94ad-dc60db85214b"
      }, {
        "reference": "Procedure/a0ac99c4-058d-45d2-94ad-dc60db85214b2"
      }, {
        "reference": "Condition/b365c40a-a97b-4c49-9e75-95695bb4ff40"
      }, {
        "reference": "Condition/7ab51740-8c96-49ab-8273-cf80c4e6c793"
      }, {
        "reference": "Claim/2c05d8c2-ec55-480d-8dc9-8cc5f9bae9c0"
      }, {
        "reference": "Claim/2c05d8c2-ec55-480d-8dc9-8cc5f9bae9c0"
      }, {
        "reference": "Coverage/81628b19-5b55-40a0-ab23-a247a247ae6a"
      }, {
        "reference": "Organization/d10192f5-5e28-4d66-89f8-13f3f2b5b75b"
      }, {
        "reference": "Practitioner/560f8911-47cc-4eff-add7-0d1c906cddfe"
      } ]
    },
    "request": {
      "method": "PUT",
      "url": "MeasureReport/7ca90ad8-935e-4d56-80d9-5470c8a98481"
    }
  } ]
}