{
  "resourceType": "Bundle",
  "id": "tests-03fae2d5-3bb7-4730-98fc-98a419a5e555-bundle",
  "type": "transaction",
  "entry": [ {
    "fullUrl": "https://madie.cms.gov/Encounter/dce9db63-3a96-4c80-99a4-4e138970e5ab",
    "resource": {
      "resourceType": "Encounter",
      "id": "dce9db63-3a96-4c80-99a4-4e138970e5ab",
      "meta": {
        "profile": [ "http://hl7.org/fhir/us/qicore/StructureDefinition/qicore-encounter" ]
      },
      "status": "finished",
      "class": {
        "system": "http://terminology.hl7.org/CodeSystem/v3-ActCode",
        "code": "IMP",
        "display": "inpatient encounter"
      },
      "type": [ {
        "coding": [ {
          "system": "http://snomed.info/sct",
          "code": "112689000",
          "display": "Hospital admission, elective, with complete pre-admission work-up"
        } ],
        "text": "Hospital admission, elective, with complete pre-admission work-up"
      } ],
      "priority": {
        "coding": [ {
          "system": "http://snomed.info/sct",
          "code": "103390000"
        } ]
      },
      "subject": {
        "reference": "Patient/03fae2d5-3bb7-4730-98fc-98a419a5e555"
      },
      "period": {
        "start": "2026-04-18T08:00:00.000+00:00",
        "end": "2026-04-22T08:15:00.000+00:00"
      }
    },
    "request": {
      "method": "PUT",
      "url": "Encounter/dce9db63-3a96-4c80-99a4-4e138970e5ab"
    }
  }, {
    "fullUrl": "https://madie.cms.gov/Procedure/94b450eb-d41d-4917-8449-4e2da283984a",
    "resource": {
      "resourceType": "Procedure",
      "id": "94b450eb-d41d-4917-8449-4e2da283984a",
      "meta": {
        "profile": [ "http://hl7.org/fhir/us/qicore/StructureDefinition/qicore-procedure" ]
      },
      "extension": [ {
        "url": "http://hl7.org/fhir/us/qicore/StructureDefinition/qicore-recorded",
        "valueDateTime": "2026-04-19T11:30:00.000+00:00"
      } ],
      "status": "completed",
      "category": {
        "coding": [ {
          "system": "http://snomed.info/sct",
          "code": "18286008",
          "display": "General or neuraxial anesthesia"
        } ]
      },
      "code": {
        "coding": [ {
          "system": "http://snomed.info/sct",
          "code": "112943005",
          "display": "Epidural injection of anesthetic substance, diagnostic, caudal, continuous"
        } ]
      },
      "subject": {
        "reference": "Patient/03fae2d5-3bb7-4730-98fc-98a419a5e555"
      },
      "performedPeriod": {
        "start": "2026-04-19T08:00:00.000+00:00",
        "end": "2026-04-19T11:15:00.000+00:00"
      }
    },
    "request": {
      "method": "PUT",
      "url": "Procedure/94b450eb-d41d-4917-8449-4e2da283984a"
    }
  }, {
    "fullUrl": "https://madie.cms.gov/Procedure/25d4a21a-e9f9-46b2-bd80-810a9fba896c",
    "resource": {
      "resourceType": "Procedure",
      "id": "25d4a21a-e9f9-46b2-bd80-810a9fba896c",
      "meta": {
        "profile": [ "http://hl7.org/fhir/us/qicore/StructureDefinition/qicore-procedure" ]
      },
      "extension": [ {
        "url": "http://hl7.org/fhir/us/qicore/StructureDefinition/qicore-recorded",
        "valueDateTime": "2026-04-11T10:10:00.000+00:00"
      } ],
      "status": "completed",
      "code": {
        "coding": [ {
          "system": "http://www.cms.gov/Medicare/Coding/ICD10",
          "code": "008P0ZZ",
          "display": "Head and Neck Surgeries with High Risk Airway Compromise"
        } ],
        "text": "Head and Neck Surgeries with High Risk Airway Compromise"
      },
      "subject": {
        "reference": "Patient/03fae2d5-3bb7-4730-98fc-98a419a5e555"
      },
      "performedDateTime": "2026-04-12T08:00:00.000+00:00"
    },
    "request": {
      "method": "PUT",
      "url": "Procedure/25d4a21a-e9f9-46b2-bd80-810a9fba896c"
    }
  }, {
    "fullUrl": "https://madie.cms.gov/Procedure/910785e6-fd3e-43a7-87e0-4b310f70b48c",
    "resource": {
      "resourceType": "Procedure",
      "id": "910785e6-fd3e-43a7-87e0-4b310f70b48c",
      "meta": {
        "profile": [ "http://hl7.org/fhir/us/qicore/StructureDefinition/qicore-procedure" ]
      },
      "extension": [ {
        "url": "http://hl7.org/fhir/us/qicore/StructureDefinition/qicore-recorded",
        "valueDateTime": "2026-04-20T08:10:00.000+00:00"
      } ],
      "status": "completed",
      "code": {
        "coding": [ {
          "system": "http://www.cms.gov/Medicare/Coding/ICD10",
          "code": "0BH13EZ",
          "display": "Insertion of Endotracheal Airway into Trachea, Percutaneous Approach"
        } ],
        "text": "Insertion of Endotracheal Airway into Trachea, Percutaneous Approach"
      },
      "subject": {
        "reference": "Patient/03fae2d5-3bb7-4730-98fc-98a419a5e555"
      },
      "performedDateTime": "2026-04-20T08:00:00.000+00:00"
    },
    "request": {
      "method": "PUT",
      "url": "Procedure/910785e6-fd3e-43a7-87e0-4b310f70b48c"
    }
  }, {
    "fullUrl": "https://madie.cms.gov/Patient/03fae2d5-3bb7-4730-98fc-98a419a5e555",
    "resource": {
      "resourceType": "Patient",
      "id": "03fae2d5-3bb7-4730-98fc-98a419a5e555",
      "meta": {
        "profile": [ "http://hl7.org/fhir/us/qicore/StructureDefinition/qicore-patient" ]
      },
      "extension": [ {
        "url": "http://hl7.org/fhir/us/core/StructureDefinition/us-core-race",
        "extension": [ {
          "url": "ombCategory",
          "valueCoding": {
            "system": "urn:oid:2.16.840.1.113883.6.238",
            "code": "1002-5",
            "display": "American Indian or Alaska Native",
            "userSelected": true
          }
        }, {
          "url": "text",
          "valueString": "American Indian or Alaska Native"
        } ]
      }, {
        "url": "http://hl7.org/fhir/us/core/StructureDefinition/us-core-ethnicity",
        "extension": [ {
          "url": "ombCategory",
          "valueCoding": {
            "system": "urn:oid:2.16.840.1.113883.6.238",
            "code": "2186-5",
            "display": "Not Hispanic or Latino",
            "userSelected": true
          }
        }, {
          "url": "text",
          "valueString": "Not Hispanic or Latino"
        } ]
      } ],
      "identifier": [ {
        "type": {
          "coding": [ {
            "system": "http://terminology.hl7.org/CodeSystem/v2-0203",
            "code": "MR"
          } ]
        },
        "system": "https://bonnie-fhir.healthit.gov/",
        "value": "61152a3b98086b7a79cbd7c1"
      } ],
      "active": true,
      "name": [ {
        "use": "usual",
        "family": "DENEXFail",
        "given": [ "Enc1HiRiskSurgExcEnc2meetsNum" ]
      } ],
      "gender": "male",
      "birthDate": "1966-07-12"
    },
    "request": {
      "method": "PUT",
      "url": "Patient/03fae2d5-3bb7-4730-98fc-98a419a5e555"
    }
  }, {
    "fullUrl": "https://madie.cms.gov/Encounter/c1b25172-ff51-4028-bf91-b0c671be2500",
    "resource": {
      "resourceType": "Encounter",
      "id": "c1b25172-ff51-4028-bf91-b0c671be2500",
      "meta": {
        "profile": [ "http://hl7.org/fhir/us/qicore/StructureDefinition/qicore-encounter" ]
      },
      "status": "finished",
      "class": {
        "system": "http://terminology.hl7.org/CodeSystem/v3-ActCode",
        "code": "IMP",
        "display": "inpatient encounter"
      },
      "type": [ {
        "coding": [ {
          "system": "http://snomed.info/sct",
          "code": "112689000",
          "display": "Hospital admission, elective, with complete pre-admission work-up"
        } ],
        "text": "Hospital admission, elective, with complete pre-admission work-up"
      } ],
      "priority": {
        "coding": [ {
          "system": "http://snomed.info/sct",
          "code": "103390000"
        } ]
      },
      "subject": {
        "reference": "Patient/03fae2d5-3bb7-4730-98fc-98a419a5e555"
      },
      "period": {
        "start": "2026-04-10T08:00:00.000+00:00",
        "end": "2026-04-14T08:15:00.000+00:00"
      }
    },
    "request": {
      "method": "PUT",
      "url": "Encounter/c1b25172-ff51-4028-bf91-b0c671be2500"
    }
  }, {
    "fullUrl": "https://madie.cms.gov/Procedure/09dbac6d-0df7-4b2f-98f1-b62ff544e5e7",
    "resource": {
      "resourceType": "Procedure",
      "id": "09dbac6d-0df7-4b2f-98f1-b62ff544e5e7",
      "meta": {
        "profile": [ "http://hl7.org/fhir/us/qicore/StructureDefinition/qicore-procedure" ]
      },
      "extension": [ {
        "url": "http://hl7.org/fhir/us/qicore/StructureDefinition/qicore-recorded",
        "valueDateTime": "2026-04-11T10:30:00.000+00:00"
      } ],
      "status": "completed",
      "category": {
        "coding": [ {
          "system": "http://snomed.info/sct",
          "code": "18286008",
          "display": "General or neuraxial anesthesia"
        } ]
      },
      "code": {
        "coding": [ {
          "system": "http://snomed.info/sct",
          "code": "112943005",
          "display": "Epidural injection of anesthetic substance, diagnostic, caudal, continuous"
        } ]
      },
      "subject": {
        "reference": "Patient/03fae2d5-3bb7-4730-98fc-98a419a5e555"
      },
      "performedPeriod": {
        "start": "2026-04-11T08:00:00.000+00:00",
        "end": "2026-04-11T10:15:00.000+00:00"
      }
    },
    "request": {
      "method": "PUT",
      "url": "Procedure/09dbac6d-0df7-4b2f-98f1-b62ff544e5e7"
    }
  }, {
    "fullUrl": "https://madie.cms.gov/MeasureReport/d2788f4f-f42e-4b65-a401-afdecfa70d6c",
    "resource": {
      "resourceType": "MeasureReport",
      "id": "d2788f4f-f42e-4b65-a401-afdecfa70d6c",
      "meta": {
        "profile": [ "http://hl7.org/fhir/us/cqfmeasures/StructureDefinition/test-case-cqfm" ]
      },
      "contained": [ {
        "resourceType": "Parameters",
        "id": "48df5511-b4bc-4d7a-aeb1-67558ffe573d-parameters",
        "parameter": [ {
          "name": "subject",
          "valueString": "03fae2d5-3bb7-4730-98fc-98a419a5e555"
        } ]
      } ],
      "extension": [ {
        "url": "http://hl7.org/fhir/StructureDefinition/cqf-inputParameters",
        "valueReference": {
          "reference": "#48df5511-b4bc-4d7a-aeb1-67558ffe573d-parameters"
        }
      }, {
        "url": "http://hl7.org/fhir/us/cqfmeasures/StructureDefinition/cqfm-testCaseDescription",
        "valueMarkdown": "Enc1: Elective hosp with hi-risk to airway head/neck surgery during encounter so meets denom exclusion. \nEnc2: Elective hosp with intubation after first proc. Meets Num1. \nExclusion from Enc1 does not impact Enc 2. "
      } ],
      "modifierExtension": [ {
        "url": "http://hl7.org/fhir/us/cqfmeasures/StructureDefinition/cqfm-isTestCase",
        "valueBoolean": true
      } ],
      "status": "complete",
      "type": "individual",
      "measure": "https://madie.cms.gov/Measure/CMS1218FHIRHHRF",
      "period": {
        "start": "2026-01-01",
        "end": "2026-12-31"
      },
      "group": [ {
        "id": "Group_1",
        "population": [ {
          "id": "InitialPopulation_1",
          "code": {
            "coding": [ {
              "system": "http://terminology.hl7.org/CodeSystem/measure-population",
              "code": "initial-population",
              "display": "Initial Population"
            } ]
          },
          "count": 2
        }, {
          "id": "Denominator_1",
          "code": {
            "coding": [ {
              "system": "http://terminology.hl7.org/CodeSystem/measure-population",
              "code": "denominator",
              "display": "Denominator"
            } ]
          },
          "count": 2
        }, {
          "id": "DenominatorExclusion_1",
          "code": {
            "coding": [ {
              "system": "http://terminology.hl7.org/CodeSystem/measure-population",
              "code": "denominator-exclusion",
              "display": "Denominator Exclusion"
            } ]
          },
          "count": 1
        }, {
          "id": "Numerator_1",
          "code": {
            "coding": [ {
              "system": "http://terminology.hl7.org/CodeSystem/measure-population",
              "code": "numerator",
              "display": "Numerator"
            } ]
          },
          "count": 1
        } ],
        "measureScore": {
          "value": 0.0
        }
      } ],
      "evaluatedResource": [ {
        "reference": "Encounter/dce9db63-3a96-4c80-99a4-4e138970e5ab"
      }, {
        "reference": "Procedure/94b450eb-d41d-4917-8449-4e2da283984a"
      }, {
        "reference": "Procedure/25d4a21a-e9f9-46b2-bd80-810a9fba896c"
      }, {
        "reference": "Procedure/910785e6-fd3e-43a7-87e0-4b310f70b48c"
      }, {
        "reference": "Patient/03fae2d5-3bb7-4730-98fc-98a419a5e555"
      }, {
        "reference": "Encounter/c1b25172-ff51-4028-bf91-b0c671be2500"
      }, {
        "reference": "Procedure/09dbac6d-0df7-4b2f-98f1-b62ff544e5e7"
      } ]
    },
    "request": {
      "method": "PUT",
      "url": "MeasureReport/d2788f4f-f42e-4b65-a401-afdecfa70d6c"
    }
  } ]
}