{
  "resourceType": "Bundle",
  "id": "6359776b6aee9629c8298235",
  "type": "transaction",
  "entry": [ {
    "fullUrl": "https://madie.cms.gov/Patient/7610c01b-286c-43c9-95fa-bc0e7ed4af0c",
    "resource": {
      "resourceType": "Patient",
      "id": "7610c01b-286c-43c9-95fa-bc0e7ed4af0c",
      "meta": {
        "profile": [ "http://hl7.org/fhir/us/qicore/StructureDefinition/qicore-patient" ]
      },
      "text": {
        "status": "generated",
        "div": "<div xmlns=\"http://www.w3.org/1999/xhtml\"><div class=\"hapiHeaderText\">HematocritIsNull <b>RISKFail </b></div><table class=\"hapiPropertyTable\"><tbody><tr><td>Date of birth</td><td><span>01 February 2004</span></td></tr></tbody></table></div>"
      },
      "extension": [ {
        "url": "http://hl7.org/fhir/us/core/StructureDefinition/us-core-race",
        "extension": [ {
          "url": "ombCategory",
          "valueCoding": {
            "system": "urn:oid:2.16.840.1.113883.6.238",
            "code": "1002-5",
            "display": "American Indian or Alaska Native",
            "userSelected": true
          }
        }, {
          "url": "text",
          "valueString": "American Indian or Alaska Native"
        } ]
      }, {
        "url": "http://hl7.org/fhir/us/core/StructureDefinition/us-core-ethnicity",
        "extension": [ {
          "url": "ombCategory",
          "valueCoding": {
            "system": "urn:oid:2.16.840.1.113883.6.238",
            "code": "2135-2",
            "display": "Hispanic or Latino",
            "userSelected": true
          }
        }, {
          "url": "text",
          "valueString": "Hispanic or Latino"
        } ]
      } ],
      "identifier": [ {
        "type": {
          "coding": [ {
            "system": "http://terminology.hl7.org/CodeSystem/v2-0203",
            "code": "MR"
          } ]
        },
        "system": "https://bonnie-fhir.healthit.gov/",
        "value": "6359776b6aee9629c8298235"
      } ],
      "active": true,
      "name": [ {
        "use": "usual",
        "family": "RISKFail",
        "given": [ "HematocritIsNull" ]
      } ],
      "gender": "female",
      "birthDate": "2005-02-01"
    },
    "request": {
      "method": "PUT",
      "url": "Patient/7610c01b-286c-43c9-95fa-bc0e7ed4af0c"
    }
  }, {
    "fullUrl": "https://madie.cms.gov/Observation/c77facfe-f707-4f98-a2d6-4fc63a5b13f7",
    "resource": {
      "resourceType": "Observation",
      "id": "c77facfe-f707-4f98-a2d6-4fc63a5b13f7",
      "meta": {
        "profile": [ "http://hl7.org/fhir/us/qicore/StructureDefinition/qicore-simple-observation" ]
      },
      "status": "final",
      "category": [ {
        "coding": [ {
          "system": "http://terminology.hl7.org/CodeSystem/observation-category",
          "code": "exam",
          "display": "exam",
          "userSelected": true
        } ]
      } ],
      "code": {
        "coding": [ {
          "system": "http://loinc.org",
          "code": "93857-1"
        } ]
      },
      "subject": {
        "reference": "Patient/7610c01b-286c-43c9-95fa-bc0e7ed4af0c"
      },
      "effectiveDateTime": "2026-02-01T08:15:00.000+00:00",
      "performer": [ {
        "reference": "Organization/example1",
        "display": "Hendricks Country Hospital"
      } ],
      "valueDateTime": "2026-02-01T08:15:00.000+00:00"
    },
    "request": {
      "method": "PUT",
      "url": "Observation/c77facfe-f707-4f98-a2d6-4fc63a5b13f7"
    }
  }, {
    "fullUrl": "https://madie.cms.gov/Condition/e56b00c4-3a9c-4791-83ca-8a64d8744182",
    "resource": {
      "resourceType": "Condition",
      "id": "e56b00c4-3a9c-4791-83ca-8a64d8744182",
      "meta": {
        "profile": [ "http://hl7.org/fhir/us/qicore/StructureDefinition/qicore-condition-encounter-diagnosis" ]
      },
      "category": [ {
        "coding": [ {
          "system": "http://terminology.hl7.org/CodeSystem/condition-category",
          "code": "encounter-diagnosis",
          "display": "Encounter Diagnosis"
        } ]
      } ],
      "code": {
        "coding": [ {
          "system": "http://hl7.org/fhir/sid/icd-10-cm",
          "version": "2023",
          "code": "Z3A.21",
          "display": "21 weeks gestation",
          "userSelected": true
        } ]
      },
      "subject": {
        "reference": "Patient/7610c01b-286c-43c9-95fa-bc0e7ed4af0c"
      },
      "recordedDate": "2026-10-26T08:00:00.000+00:00"
    },
    "request": {
      "method": "PUT",
      "url": "Condition/e56b00c4-3a9c-4791-83ca-8a64d8744182"
    }
  }, {
    "fullUrl": "https://madie.cms.gov/Encounter/6a06709c-6bc6-4d31-925e-48f6efda9bb4",
    "resource": {
      "resourceType": "Encounter",
      "id": "6a06709c-6bc6-4d31-925e-48f6efda9bb4",
      "meta": {
        "profile": [ "http://hl7.org/fhir/us/qicore/StructureDefinition/qicore-encounter" ]
      },
      "status": "finished",
      "class": {
        "system": "http://terminology.hl7.org/CodeSystem/v3-ActCode",
        "code": "IMP",
        "display": "inpatient encounter"
      },
      "type": [ {
        "coding": [ {
          "system": "http://snomed.info/sct",
          "code": "183452005"
        } ]
      } ],
      "subject": {
        "reference": "Patient/7610c01b-286c-43c9-95fa-bc0e7ed4af0c"
      },
      "period": {
        "start": "2026-02-01T08:00:00.000+00:00",
        "end": "2026-02-05T08:15:00.000+00:00"
      },
      "reasonReference": [ {
        "reference": "Condition/e56b00c4-3a9c-4791-83ca-8a64d8744182"
      } ]
    },
    "request": {
      "method": "PUT",
      "url": "Encounter/6a06709c-6bc6-4d31-925e-48f6efda9bb4"
    }
  }, {
    "fullUrl": "https://madie.cms.gov/Encounter/f44e3c85-ddb9-454c-8354-d68f63c935db",
    "resource": {
      "resourceType": "Encounter",
      "id": "f44e3c85-ddb9-454c-8354-d68f63c935db",
      "meta": {
        "profile": [ "http://hl7.org/fhir/us/qicore/StructureDefinition/qicore-encounter" ]
      },
      "status": "finished",
      "class": {
        "system": "http://terminology.hl7.org/CodeSystem/v3-ActCode",
        "code": "EMER",
        "display": "emergency"
      },
      "type": [ {
        "coding": [ {
          "system": "http://snomed.info/sct",
          "code": "4525004"
        } ]
      } ],
      "subject": {
        "reference": "Patient/7610c01b-286c-43c9-95fa-bc0e7ed4af0c"
      },
      "period": {
        "start": "2026-02-01T07:00:00.000+00:00",
        "end": "2026-02-01T07:59:00.000+00:00"
      }
    },
    "request": {
      "method": "PUT",
      "url": "Encounter/f44e3c85-ddb9-454c-8354-d68f63c935db"
    }
  }, {
    "fullUrl": "https://madie.cms.gov/Procedure/c41ff4ea-1874-4276-a1c5-39a1d6b5bad4",
    "resource": {
      "resourceType": "Procedure",
      "id": "c41ff4ea-1874-4276-a1c5-39a1d6b5bad4",
      "meta": {
        "profile": [ "http://hl7.org/fhir/us/qicore/StructureDefinition/qicore-procedure" ]
      },
      "extension": [ {
        "url": "http://hl7.org/fhir/us/qicore/StructureDefinition/qicore-recorded",
        "valueDateTime": "2026-02-04T13:35:00.000+00:00"
      } ],
      "status": "completed",
      "code": {
        "coding": [ {
          "system": "http://snomed.info/sct",
          "code": "10745001"
        } ]
      },
      "subject": {
        "reference": "Patient/7610c01b-286c-43c9-95fa-bc0e7ed4af0c"
      },
      "performedPeriod": {
        "start": "2026-02-01T08:00:00.000+00:00",
        "end": "2026-02-05T08:15:00.000+00:00"
      }
    },
    "request": {
      "method": "PUT",
      "url": "Procedure/c41ff4ea-1874-4276-a1c5-39a1d6b5bad4"
    }
  }, {
    "fullUrl": "https://madie.cms.gov/Observation/fe360809-19a8-426f-aa0f-452309bd9226",
    "resource": {
      "resourceType": "Observation",
      "id": "fe360809-19a8-426f-aa0f-452309bd9226",
      "meta": {
        "profile": [ "http://hl7.org/fhir/us/qicore/StructureDefinition/qicore-observation-lab" ]
      },
      "status": "final",
      "category": [ {
        "coding": [ {
          "system": "http://terminology.hl7.org/CodeSystem/observation-category",
          "code": "laboratory",
          "display": "laboratory",
          "userSelected": true
        } ]
      } ],
      "code": {
        "coding": [ {
          "system": "http://loinc.org",
          "version": "2.73",
          "code": "20570-8",
          "display": "Hematocrit [Volume Fraction] in Blood",
          "userSelected": true
        } ]
      },
      "subject": {
        "reference": "Patient/7610c01b-286c-43c9-95fa-bc0e7ed4af0c"
      },
      "effectiveDateTime": "2026-02-01T08:01:00.000+00:00",
      "issued": "2026-02-01T08:01:00.000+00:00",
      "valueQuantity": {
        "unit": "%"
      }
    },
    "request": {
      "method": "PUT",
      "url": "Observation/fe360809-19a8-426f-aa0f-452309bd9226"
    }
  }, {
    "fullUrl": "https://madie.cms.gov/MeasureReport/879d33d6-56dc-4256-99fa-1a6aa7e927e6",
    "resource": {
      "resourceType": "MeasureReport",
      "id": "879d33d6-56dc-4256-99fa-1a6aa7e927e6",
      "meta": {
        "profile": [ "http://hl7.org/fhir/us/cqfmeasures/StructureDefinition/test-case-cqfm" ]
      },
      "contained": [ {
        "resourceType": "Parameters",
        "id": "2916b734-cb9c-48a5-8f2a-c8ce3ce639b9-parameters",
        "parameter": [ {
          "name": "subject",
          "valueString": "7610c01b-286c-43c9-95fa-bc0e7ed4af0c"
        } ]
      } ],
      "extension": [ {
        "url": "http://hl7.org/fhir/StructureDefinition/cqf-inputParameters",
        "valueReference": {
          "reference": "#2916b734-cb9c-48a5-8f2a-c8ce3ce639b9-parameters"
        }
      }, {
        "url": "http://hl7.org/fhir/us/cqfmeasures/StructureDefinition/cqfm-testCaseDescription",
        "valueMarkdown": "Hematocrit is Null"
      } ],
      "modifierExtension": [ {
        "url": "http://hl7.org/fhir/us/cqfmeasures/StructureDefinition/cqfm-isTestCase",
        "valueBoolean": true
      } ],
      "status": "complete",
      "type": "individual",
      "measure": "https://madie.cms.gov/Measure/CMS1028FHIRPCSevereOBComps",
      "period": {
        "start": "2026-01-01",
        "end": "2026-12-31"
      },
      "group": [ {
        "id": "Group_1",
        "population": [ {
          "id": "InitialPopulation_1",
          "code": {
            "coding": [ {
              "system": "http://terminology.hl7.org/CodeSystem/measure-population",
              "code": "initial-population",
              "display": "Initial Population"
            } ]
          },
          "count": 1
        }, {
          "id": "Denominator_1",
          "code": {
            "coding": [ {
              "system": "http://terminology.hl7.org/CodeSystem/measure-population",
              "code": "denominator",
              "display": "Denominator"
            } ]
          },
          "count": 1
        }, {
          "id": "Numerator_1",
          "code": {
            "coding": [ {
              "system": "http://terminology.hl7.org/CodeSystem/measure-population",
              "code": "numerator",
              "display": "Numerator"
            } ]
          },
          "count": 0
        }, {
          "id": "NumeratorExclusion_1",
          "code": {
            "coding": [ {
              "system": "http://terminology.hl7.org/CodeSystem/measure-population",
              "code": "numerator-exclusion",
              "display": "Numerator Exclusion"
            } ]
          },
          "count": 0
        } ],
        "measureScore": {
          "value": 0.0
        }
      }, {
        "id": "Group_2",
        "population": [ {
          "id": "InitialPopulation_2",
          "code": {
            "coding": [ {
              "system": "http://terminology.hl7.org/CodeSystem/measure-population",
              "code": "initial-population",
              "display": "Initial Population"
            } ]
          },
          "count": 1
        }, {
          "id": "Denominator_2",
          "code": {
            "coding": [ {
              "system": "http://terminology.hl7.org/CodeSystem/measure-population",
              "code": "denominator",
              "display": "Denominator"
            } ]
          },
          "count": 1
        }, {
          "id": "Numerator_2",
          "code": {
            "coding": [ {
              "system": "http://terminology.hl7.org/CodeSystem/measure-population",
              "code": "numerator",
              "display": "Numerator"
            } ]
          },
          "count": 0
        }, {
          "id": "NumeratorExclusion_2",
          "code": {
            "coding": [ {
              "system": "http://terminology.hl7.org/CodeSystem/measure-population",
              "code": "numerator-exclusion",
              "display": "Numerator Exclusion"
            } ]
          },
          "count": 0
        } ],
        "measureScore": {
          "value": 0.0
        }
      } ],
      "evaluatedResource": [ {
        "reference": "Patient/7610c01b-286c-43c9-95fa-bc0e7ed4af0c"
      }, {
        "reference": "Observation/c77facfe-f707-4f98-a2d6-4fc63a5b13f7"
      }, {
        "reference": "Condition/e56b00c4-3a9c-4791-83ca-8a64d8744182"
      }, {
        "reference": "Encounter/6a06709c-6bc6-4d31-925e-48f6efda9bb4"
      }, {
        "reference": "Encounter/f44e3c85-ddb9-454c-8354-d68f63c935db"
      }, {
        "reference": "Procedure/c41ff4ea-1874-4276-a1c5-39a1d6b5bad4"
      }, {
        "reference": "Observation/fe360809-19a8-426f-aa0f-452309bd9226"
      } ]
    },
    "request": {
      "method": "PUT",
      "url": "MeasureReport/879d33d6-56dc-4256-99fa-1a6aa7e927e6"
    }
  } ]
}