{
  "resourceType": "Bundle",
  "id": "NUMERPass-MMRDiagnoses",
  "type": "transaction",
  "entry": [ {
    "fullUrl": "https://madie.cms.gov/Patient/de0de707-b53d-47fc-a9b9-1c4521f0c596",
    "resource": {
      "resourceType": "Patient",
      "id": "de0de707-b53d-47fc-a9b9-1c4521f0c596",
      "meta": {
        "profile": [ "http://hl7.org/fhir/us/qicore/StructureDefinition/qicore-patient" ]
      },
      "extension": [ {
        "url": "http://hl7.org/fhir/us/core/StructureDefinition/us-core-race",
        "extension": [ {
          "url": "ombCategory",
          "valueCoding": {
            "system": "urn:oid:2.16.840.1.113883.6.238",
            "code": "2028-9",
            "display": "Asian"
          }
        }, {
          "url": "text",
          "valueString": "Asian"
        } ]
      }, {
        "url": "http://hl7.org/fhir/us/core/StructureDefinition/us-core-ethnicity",
        "extension": [ {
          "url": "ombCategory",
          "valueCoding": {
            "system": "urn:oid:2.16.840.1.113883.6.238",
            "code": "2135-2",
            "display": "Hispanic or Latino"
          }
        }, {
          "url": "text",
          "valueString": "Hispanic or Latino"
        } ]
      } ],
      "identifier": [ {
        "system": "http://hospital.smarthealthit.org",
        "value": "999999995"
      } ],
      "name": [ {
        "family": "Bertha",
        "given": [ "Betty" ]
      } ],
      "gender": "female",
      "birthDate": "2024-01-01"
    },
    "request": {
      "method": "PUT",
      "url": "Patient/de0de707-b53d-47fc-a9b9-1c4521f0c596"
    }
  }, {
    "fullUrl": "https://madie.cms.gov/Encounter/3969b761-702e-4a63-a89e-9b75462fb351",
    "resource": {
      "resourceType": "Encounter",
      "id": "3969b761-702e-4a63-a89e-9b75462fb351",
      "meta": {
        "profile": [ "http://hl7.org/fhir/us/qicore/StructureDefinition/qicore-encounter" ]
      },
      "status": "finished",
      "class": {
        "system": "http://terminology.hl7.org/CodeSystem/v3-ActCode",
        "code": "AMB",
        "display": "ambulatory"
      },
      "type": [ {
        "coding": [ {
          "system": "http://snomed.info/sct",
          "code": "185317003",
          "display": "Telephone encounter (procedure)"
        } ]
      } ],
      "subject": {
        "reference": "Patient/de0de707-b53d-47fc-a9b9-1c4521f0c596"
      },
      "period": {
        "start": "2026-01-01T01:00:00.000+00:00",
        "end": "2026-01-01T01:15:00.000+00:00"
      }
    },
    "request": {
      "method": "PUT",
      "url": "Encounter/3969b761-702e-4a63-a89e-9b75462fb351"
    }
  }, {
    "fullUrl": "https://madie.cms.gov/Immunization/2e82b4f2-f011-4731-b6b3-60e5018a25a5",
    "resource": {
      "resourceType": "Immunization",
      "id": "2e82b4f2-f011-4731-b6b3-60e5018a25a5",
      "meta": {
        "profile": [ "http://hl7.org/fhir/us/qicore/StructureDefinition/qicore-immunization" ]
      },
      "status": "completed",
      "vaccineCode": {
        "coding": [ {
          "system": "http://hl7.org/fhir/sid/cvx",
          "code": "146",
          "display": "DTaP,IPV,Hib,HepB"
        } ]
      },
      "patient": {
        "reference": "Patient/de0de707-b53d-47fc-a9b9-1c4521f0c596"
      },
      "occurrenceDateTime": "2025-01-02T00:00:00.000+00:00",
      "recorded": "2025-01-02T00:00:00.000+00:00",
      "primarySource": true
    },
    "request": {
      "method": "PUT",
      "url": "Immunization/2e82b4f2-f011-4731-b6b3-60e5018a25a5"
    }
  }, {
    "fullUrl": "https://madie.cms.gov/Immunization/6292f9b7-f75d-41b4-91f4-9fc568d8ecbd",
    "resource": {
      "resourceType": "Immunization",
      "id": "6292f9b7-f75d-41b4-91f4-9fc568d8ecbd",
      "meta": {
        "profile": [ "http://hl7.org/fhir/us/qicore/StructureDefinition/qicore-immunization" ]
      },
      "status": "completed",
      "vaccineCode": {
        "coding": [ {
          "system": "http://hl7.org/fhir/sid/cvx",
          "code": "146",
          "display": "DTaP,IPV,Hib,HepB"
        } ]
      },
      "patient": {
        "reference": "Patient/de0de707-b53d-47fc-a9b9-1c4521f0c596"
      },
      "occurrenceDateTime": "2025-01-05T00:00:00.000+00:00",
      "recorded": "2025-01-02T00:00:00.000+00:00",
      "primarySource": true
    },
    "request": {
      "method": "PUT",
      "url": "Immunization/6292f9b7-f75d-41b4-91f4-9fc568d8ecbd"
    }
  }, {
    "fullUrl": "https://madie.cms.gov/Immunization/16e31dea-dffc-41f2-b473-66e756afa38a",
    "resource": {
      "resourceType": "Immunization",
      "id": "16e31dea-dffc-41f2-b473-66e756afa38a",
      "meta": {
        "profile": [ "http://hl7.org/fhir/us/qicore/StructureDefinition/qicore-immunization" ]
      },
      "status": "completed",
      "vaccineCode": {
        "coding": [ {
          "system": "http://hl7.org/fhir/sid/cvx",
          "code": "146",
          "display": "DTaP,IPV,Hib,HepB"
        } ]
      },
      "patient": {
        "reference": "Patient/de0de707-b53d-47fc-a9b9-1c4521f0c596"
      },
      "occurrenceDateTime": "2025-01-07T00:00:00.000+00:00",
      "recorded": "2025-01-02T00:00:00.000+00:00",
      "primarySource": true
    },
    "request": {
      "method": "PUT",
      "url": "Immunization/16e31dea-dffc-41f2-b473-66e756afa38a"
    }
  }, {
    "fullUrl": "https://madie.cms.gov/Immunization/7e76fc46-d348-43d8-9273-54e5b2f5557b",
    "resource": {
      "resourceType": "Immunization",
      "id": "7e76fc46-d348-43d8-9273-54e5b2f5557b",
      "meta": {
        "profile": [ "http://hl7.org/fhir/us/qicore/StructureDefinition/qicore-immunization" ]
      },
      "status": "completed",
      "vaccineCode": {
        "coding": [ {
          "system": "http://hl7.org/fhir/sid/cvx",
          "code": "146",
          "display": "DTaP,IPV,Hib,HepB"
        } ]
      },
      "patient": {
        "reference": "Patient/de0de707-b53d-47fc-a9b9-1c4521f0c596"
      },
      "occurrenceDateTime": "2025-01-10T00:00:00.000+00:00",
      "recorded": "2025-01-02T00:00:00.000+00:00",
      "primarySource": true
    },
    "request": {
      "method": "PUT",
      "url": "Immunization/7e76fc46-d348-43d8-9273-54e5b2f5557b"
    }
  }, {
    "fullUrl": "https://madie.cms.gov/Immunization/80f867e1-c07f-4ed5-b8ef-9579bd656942",
    "resource": {
      "resourceType": "Immunization",
      "id": "80f867e1-c07f-4ed5-b8ef-9579bd656942",
      "meta": {
        "profile": [ "http://hl7.org/fhir/us/qicore/StructureDefinition/qicore-immunization" ]
      },
      "status": "completed",
      "vaccineCode": {
        "coding": [ {
          "system": "http://hl7.org/fhir/sid/cvx",
          "code": "146",
          "display": "DTaP,IPV,Hib,HepB"
        } ]
      },
      "patient": {
        "reference": "Patient/de0de707-b53d-47fc-a9b9-1c4521f0c596"
      },
      "occurrenceDateTime": "2025-01-02T00:00:00.000+00:00",
      "recorded": "2025-01-02T00:00:00.000+00:00",
      "primarySource": true
    },
    "request": {
      "method": "PUT",
      "url": "Immunization/80f867e1-c07f-4ed5-b8ef-9579bd656942"
    }
  }, {
    "fullUrl": "https://madie.cms.gov/Immunization/d19869fb-5a6e-415a-a47b-a53e35bdf93d",
    "resource": {
      "resourceType": "Immunization",
      "id": "d19869fb-5a6e-415a-a47b-a53e35bdf93d",
      "meta": {
        "profile": [ "http://hl7.org/fhir/us/qicore/StructureDefinition/qicore-immunization" ]
      },
      "status": "completed",
      "vaccineCode": {
        "coding": [ {
          "system": "http://hl7.org/fhir/sid/cvx",
          "code": "146",
          "display": "DTaP,IPV,Hib,HepB"
        } ]
      },
      "patient": {
        "reference": "Patient/de0de707-b53d-47fc-a9b9-1c4521f0c596"
      },
      "occurrenceDateTime": "2025-01-06T00:00:00.000+00:00",
      "recorded": "2025-01-02T00:00:00.000+00:00",
      "primarySource": true
    },
    "request": {
      "method": "PUT",
      "url": "Immunization/d19869fb-5a6e-415a-a47b-a53e35bdf93d"
    }
  }, {
    "fullUrl": "https://madie.cms.gov/Immunization/bf061870-50e4-47be-8370-b3acfc95a488",
    "resource": {
      "resourceType": "Immunization",
      "id": "bf061870-50e4-47be-8370-b3acfc95a488",
      "meta": {
        "profile": [ "http://hl7.org/fhir/us/qicore/StructureDefinition/qicore-immunization" ]
      },
      "status": "completed",
      "vaccineCode": {
        "coding": [ {
          "system": "http://hl7.org/fhir/sid/cvx",
          "code": "146",
          "display": "DTaP,IPV,Hib,HepB"
        } ]
      },
      "patient": {
        "reference": "Patient/de0de707-b53d-47fc-a9b9-1c4521f0c596"
      },
      "occurrenceDateTime": "2025-01-09T00:00:00.000+00:00",
      "recorded": "2025-01-02T00:00:00.000+00:00",
      "primarySource": true
    },
    "request": {
      "method": "PUT",
      "url": "Immunization/bf061870-50e4-47be-8370-b3acfc95a488"
    }
  }, {
    "fullUrl": "https://madie.cms.gov/Condition/6ecc0643-df5b-4dca-9d41-e3791405d871",
    "resource": {
      "resourceType": "Condition",
      "id": "6ecc0643-df5b-4dca-9d41-e3791405d871",
      "meta": {
        "profile": [ "http://hl7.org/fhir/us/qicore/StructureDefinition/qicore-condition-problems-health-concerns" ]
      },
      "clinicalStatus": {
        "coding": [ {
          "system": "http://terminology.hl7.org/CodeSystem/condition-clinical",
          "code": "active"
        } ]
      },
      "category": [ {
        "coding": [ {
          "system": "http://terminology.hl7.org/CodeSystem/condition-category",
          "code": "problem-list-item",
          "display": "Problem List Item"
        } ]
      } ],
      "code": {
        "coding": [ {
          "system": "http://snomed.info/sct",
          "code": "31524007",
          "display": "Mumps polyneuropathy (disorder)"
        } ]
      },
      "subject": {
        "reference": "Patient/de0de707-b53d-47fc-a9b9-1c4521f0c596"
      },
      "onsetDateTime": "2025-01-02T00:00:00.000+00:00"
    },
    "request": {
      "method": "PUT",
      "url": "Condition/6ecc0643-df5b-4dca-9d41-e3791405d871"
    }
  }, {
    "fullUrl": "https://madie.cms.gov/Condition/110547b2-9749-4e51-9125-74103c5192c1",
    "resource": {
      "resourceType": "Condition",
      "id": "110547b2-9749-4e51-9125-74103c5192c1",
      "meta": {
        "profile": [ "http://hl7.org/fhir/us/qicore/StructureDefinition/qicore-condition-problems-health-concerns" ]
      },
      "clinicalStatus": {
        "coding": [ {
          "system": "http://terminology.hl7.org/CodeSystem/condition-clinical",
          "code": "active"
        } ]
      },
      "category": [ {
        "coding": [ {
          "system": "http://terminology.hl7.org/CodeSystem/condition-category",
          "code": "problem-list-item",
          "display": "Problem List Item"
        } ]
      } ],
      "code": {
        "coding": [ {
          "system": "http://snomed.info/sct",
          "code": "60013002",
          "display": "Measles keratoconjunctivitis (disorder)"
        } ]
      },
      "subject": {
        "reference": "Patient/de0de707-b53d-47fc-a9b9-1c4521f0c596"
      },
      "onsetDateTime": "2025-01-02T00:00:00.000+00:00"
    },
    "request": {
      "method": "PUT",
      "url": "Condition/110547b2-9749-4e51-9125-74103c5192c1"
    }
  }, {
    "fullUrl": "https://madie.cms.gov/Condition/d673f0f5-9700-4784-9b5e-c4eb04918781",
    "resource": {
      "resourceType": "Condition",
      "id": "d673f0f5-9700-4784-9b5e-c4eb04918781",
      "meta": {
        "profile": [ "http://hl7.org/fhir/us/qicore/StructureDefinition/qicore-condition-problems-health-concerns" ]
      },
      "clinicalStatus": {
        "coding": [ {
          "system": "http://terminology.hl7.org/CodeSystem/condition-clinical",
          "code": "active"
        } ]
      },
      "category": [ {
        "coding": [ {
          "system": "http://terminology.hl7.org/CodeSystem/condition-category",
          "code": "problem-list-item",
          "display": "Problem List Item"
        } ]
      } ],
      "code": {
        "coding": [ {
          "system": "http://snomed.info/sct",
          "code": "36653000",
          "display": "Rubella (disorder)"
        } ]
      },
      "subject": {
        "reference": "Patient/de0de707-b53d-47fc-a9b9-1c4521f0c596"
      },
      "onsetDateTime": "2025-01-02T00:00:00.000+00:00"
    },
    "request": {
      "method": "PUT",
      "url": "Condition/d673f0f5-9700-4784-9b5e-c4eb04918781"
    }
  }, {
    "fullUrl": "https://madie.cms.gov/Immunization/8a0c0b95-5ccc-4f26-b7fd-82c4e427a47e",
    "resource": {
      "resourceType": "Immunization",
      "id": "8a0c0b95-5ccc-4f26-b7fd-82c4e427a47e",
      "meta": {
        "profile": [ "http://hl7.org/fhir/us/qicore/StructureDefinition/qicore-immunization" ]
      },
      "status": "completed",
      "vaccineCode": {
        "coding": [ {
          "system": "http://hl7.org/fhir/sid/cvx",
          "code": "49",
          "display": "Haemophilus influenzae type b vaccine, PRP-OMP conjugate"
        } ]
      },
      "patient": {
        "reference": "Patient/de0de707-b53d-47fc-a9b9-1c4521f0c596"
      },
      "occurrenceDateTime": "2025-01-02T00:00:00.000+00:00",
      "recorded": "2025-01-02T00:00:00.000+00:00",
      "primarySource": true
    },
    "request": {
      "method": "PUT",
      "url": "Immunization/8a0c0b95-5ccc-4f26-b7fd-82c4e427a47e"
    }
  }, {
    "fullUrl": "https://madie.cms.gov/Immunization/be12b5fe-404f-455e-96fc-99efabce0073",
    "resource": {
      "resourceType": "Immunization",
      "id": "be12b5fe-404f-455e-96fc-99efabce0073",
      "meta": {
        "profile": [ "http://hl7.org/fhir/us/qicore/StructureDefinition/qicore-immunization" ]
      },
      "status": "completed",
      "vaccineCode": {
        "coding": [ {
          "system": "http://hl7.org/fhir/sid/cvx",
          "code": "49",
          "display": "Haemophilus influenzae type b vaccine, PRP-OMP conjugate"
        } ]
      },
      "patient": {
        "reference": "Patient/de0de707-b53d-47fc-a9b9-1c4521f0c596"
      },
      "occurrenceDateTime": "2025-01-02T00:00:00.000+00:00",
      "recorded": "2025-01-02T00:00:00.000+00:00",
      "primarySource": true
    },
    "request": {
      "method": "PUT",
      "url": "Immunization/be12b5fe-404f-455e-96fc-99efabce0073"
    }
  }, {
    "fullUrl": "https://madie.cms.gov/Immunization/f13366a2-db8a-4e4b-bc78-764e19dc4937",
    "resource": {
      "resourceType": "Immunization",
      "id": "f13366a2-db8a-4e4b-bc78-764e19dc4937",
      "meta": {
        "profile": [ "http://hl7.org/fhir/us/qicore/StructureDefinition/qicore-immunization" ]
      },
      "status": "completed",
      "vaccineCode": {
        "coding": [ {
          "system": "http://hl7.org/fhir/sid/cvx",
          "code": "49",
          "display": "Haemophilus influenzae type b vaccine, PRP-OMP conjugate"
        } ]
      },
      "patient": {
        "reference": "Patient/de0de707-b53d-47fc-a9b9-1c4521f0c596"
      },
      "occurrenceDateTime": "2025-01-02T00:00:00.000+00:00",
      "recorded": "2025-01-02T00:00:00.000+00:00",
      "primarySource": true
    },
    "request": {
      "method": "PUT",
      "url": "Immunization/f13366a2-db8a-4e4b-bc78-764e19dc4937"
    }
  }, {
    "fullUrl": "https://madie.cms.gov/Immunization/b800f7c9-305f-4e4d-bd07-a9096baf2780",
    "resource": {
      "resourceType": "Immunization",
      "id": "b800f7c9-305f-4e4d-bd07-a9096baf2780",
      "meta": {
        "profile": [ "http://hl7.org/fhir/us/qicore/StructureDefinition/qicore-immunization" ]
      },
      "status": "completed",
      "vaccineCode": {
        "coding": [ {
          "system": "http://hl7.org/fhir/sid/cvx",
          "code": "51",
          "display": "Haemophilus influenzae type b conjugate and Hepatitis B vaccine"
        } ]
      },
      "patient": {
        "reference": "Patient/de0de707-b53d-47fc-a9b9-1c4521f0c596"
      },
      "occurrenceDateTime": "2025-01-02T00:00:00.000+00:00",
      "recorded": "2025-01-02T00:00:00.000+00:00",
      "primarySource": true
    },
    "request": {
      "method": "PUT",
      "url": "Immunization/b800f7c9-305f-4e4d-bd07-a9096baf2780"
    }
  }, {
    "fullUrl": "https://madie.cms.gov/Immunization/5cfcccb3-0490-43c5-973f-f0443af92ec4",
    "resource": {
      "resourceType": "Immunization",
      "id": "5cfcccb3-0490-43c5-973f-f0443af92ec4",
      "meta": {
        "profile": [ "http://hl7.org/fhir/us/qicore/StructureDefinition/qicore-immunization" ]
      },
      "status": "completed",
      "vaccineCode": {
        "coding": [ {
          "system": "http://hl7.org/fhir/sid/cvx",
          "code": "51",
          "display": "Haemophilus influenzae type b conjugate and Hepatitis B vaccine"
        } ]
      },
      "patient": {
        "reference": "Patient/de0de707-b53d-47fc-a9b9-1c4521f0c596"
      },
      "occurrenceDateTime": "2025-01-10T00:00:00.000+00:00",
      "recorded": "2025-01-02T00:00:00.000+00:00",
      "primarySource": true
    },
    "request": {
      "method": "PUT",
      "url": "Immunization/5cfcccb3-0490-43c5-973f-f0443af92ec4"
    }
  }, {
    "fullUrl": "https://madie.cms.gov/Immunization/3236d184-530b-4f9b-b7a9-893935a143d6",
    "resource": {
      "resourceType": "Immunization",
      "id": "3236d184-530b-4f9b-b7a9-893935a143d6",
      "meta": {
        "profile": [ "http://hl7.org/fhir/us/qicore/StructureDefinition/qicore-immunization" ]
      },
      "status": "completed",
      "vaccineCode": {
        "coding": [ {
          "system": "http://hl7.org/fhir/sid/cvx",
          "code": "51",
          "display": "Haemophilus influenzae type b conjugate and Hepatitis B vaccine"
        } ]
      },
      "patient": {
        "reference": "Patient/de0de707-b53d-47fc-a9b9-1c4521f0c596"
      },
      "occurrenceDateTime": "2025-01-12T00:00:00.000+00:00",
      "recorded": "2025-01-02T00:00:00.000+00:00",
      "primarySource": true
    },
    "request": {
      "method": "PUT",
      "url": "Immunization/3236d184-530b-4f9b-b7a9-893935a143d6"
    }
  }, {
    "fullUrl": "https://madie.cms.gov/Immunization/61312381-b0de-44b6-afba-933287f1100a",
    "resource": {
      "resourceType": "Immunization",
      "id": "61312381-b0de-44b6-afba-933287f1100a",
      "meta": {
        "profile": [ "http://hl7.org/fhir/us/qicore/StructureDefinition/qicore-immunization" ]
      },
      "status": "completed",
      "vaccineCode": {
        "coding": [ {
          "system": "http://hl7.org/fhir/sid/cvx",
          "code": "94",
          "display": "measles, mumps, rubella, and varicella virus vaccine"
        } ]
      },
      "patient": {
        "reference": "Patient/de0de707-b53d-47fc-a9b9-1c4521f0c596"
      },
      "occurrenceDateTime": "2025-01-02T00:00:00.000+00:00",
      "recorded": "2025-01-02T00:00:00.000+00:00",
      "primarySource": true
    },
    "request": {
      "method": "PUT",
      "url": "Immunization/61312381-b0de-44b6-afba-933287f1100a"
    }
  }, {
    "fullUrl": "https://madie.cms.gov/Immunization/dfccc85b-8a52-4418-a2bc-4e56f407a792",
    "resource": {
      "resourceType": "Immunization",
      "id": "dfccc85b-8a52-4418-a2bc-4e56f407a792",
      "meta": {
        "profile": [ "http://hl7.org/fhir/us/qicore/StructureDefinition/qicore-immunization" ]
      },
      "status": "completed",
      "vaccineCode": {
        "coding": [ {
          "system": "http://hl7.org/fhir/sid/cvx",
          "code": "215",
          "display": "Pneumococcal conjugate vaccine 15-valent (PCV15), polysaccharide CRM197 conjugate, adjuvant, preservative free"
        } ]
      },
      "patient": {
        "reference": "Patient/de0de707-b53d-47fc-a9b9-1c4521f0c596"
      },
      "occurrenceDateTime": "2025-01-12T00:00:00.000+00:00",
      "recorded": "2025-01-02T00:00:00.000+00:00",
      "primarySource": true
    },
    "request": {
      "method": "PUT",
      "url": "Immunization/dfccc85b-8a52-4418-a2bc-4e56f407a792"
    }
  }, {
    "fullUrl": "https://madie.cms.gov/Immunization/f442130e-0113-450f-a941-b9b2174049b6",
    "resource": {
      "resourceType": "Immunization",
      "id": "f442130e-0113-450f-a941-b9b2174049b6",
      "meta": {
        "profile": [ "http://hl7.org/fhir/us/qicore/StructureDefinition/qicore-immunization" ]
      },
      "status": "completed",
      "vaccineCode": {
        "coding": [ {
          "system": "http://hl7.org/fhir/sid/cvx",
          "code": "215",
          "display": "Pneumococcal conjugate vaccine 15-valent (PCV15), polysaccharide CRM197 conjugate, adjuvant, preservative free"
        } ]
      },
      "patient": {
        "reference": "Patient/de0de707-b53d-47fc-a9b9-1c4521f0c596"
      },
      "occurrenceDateTime": "2025-01-14T00:00:00.000+00:00",
      "recorded": "2025-01-02T00:00:00.000+00:00",
      "primarySource": true
    },
    "request": {
      "method": "PUT",
      "url": "Immunization/f442130e-0113-450f-a941-b9b2174049b6"
    }
  }, {
    "fullUrl": "https://madie.cms.gov/Immunization/3e0942c1-54f1-4e7d-a20f-5b5dda72e45a",
    "resource": {
      "resourceType": "Immunization",
      "id": "3e0942c1-54f1-4e7d-a20f-5b5dda72e45a",
      "meta": {
        "profile": [ "http://hl7.org/fhir/us/qicore/StructureDefinition/qicore-immunization" ]
      },
      "status": "completed",
      "vaccineCode": {
        "coding": [ {
          "system": "http://hl7.org/fhir/sid/cvx",
          "code": "215",
          "display": "Pneumococcal conjugate vaccine 15-valent (PCV15), polysaccharide CRM197 conjugate, adjuvant, preservative free"
        } ]
      },
      "patient": {
        "reference": "Patient/de0de707-b53d-47fc-a9b9-1c4521f0c596"
      },
      "occurrenceDateTime": "2025-01-20T00:00:00.000+00:00",
      "recorded": "2025-01-02T00:00:00.000+00:00",
      "primarySource": true
    },
    "request": {
      "method": "PUT",
      "url": "Immunization/3e0942c1-54f1-4e7d-a20f-5b5dda72e45a"
    }
  }, {
    "fullUrl": "https://madie.cms.gov/Immunization/a9a08391-8641-4f6d-919b-05f84d1a26b2",
    "resource": {
      "resourceType": "Immunization",
      "id": "a9a08391-8641-4f6d-919b-05f84d1a26b2",
      "meta": {
        "profile": [ "http://hl7.org/fhir/us/qicore/StructureDefinition/qicore-immunization" ]
      },
      "status": "completed",
      "vaccineCode": {
        "coding": [ {
          "system": "http://hl7.org/fhir/sid/cvx",
          "code": "215",
          "display": "Pneumococcal conjugate vaccine 15-valent (PCV15), polysaccharide CRM197 conjugate, adjuvant, preservative free"
        } ]
      },
      "patient": {
        "reference": "Patient/de0de707-b53d-47fc-a9b9-1c4521f0c596"
      },
      "occurrenceDateTime": "2025-01-22T00:00:00.000+00:00",
      "recorded": "2025-01-02T00:00:00.000+00:00",
      "primarySource": true
    },
    "request": {
      "method": "PUT",
      "url": "Immunization/a9a08391-8641-4f6d-919b-05f84d1a26b2"
    }
  }, {
    "fullUrl": "https://madie.cms.gov/Immunization/5feea669-c24d-4b69-a7a8-8049f44e803c",
    "resource": {
      "resourceType": "Immunization",
      "id": "5feea669-c24d-4b69-a7a8-8049f44e803c",
      "meta": {
        "profile": [ "http://hl7.org/fhir/us/qicore/StructureDefinition/qicore-immunization" ]
      },
      "status": "completed",
      "vaccineCode": {
        "coding": [ {
          "system": "http://hl7.org/fhir/sid/cvx",
          "code": "85",
          "display": "hepatitis A vaccine, unspecified formulation"
        } ]
      },
      "patient": {
        "reference": "Patient/de0de707-b53d-47fc-a9b9-1c4521f0c596"
      },
      "occurrenceDateTime": "2025-01-02T00:00:00.000+00:00",
      "recorded": "2025-01-02T00:00:00.000+00:00",
      "primarySource": true
    },
    "request": {
      "method": "PUT",
      "url": "Immunization/5feea669-c24d-4b69-a7a8-8049f44e803c"
    }
  }, {
    "fullUrl": "https://madie.cms.gov/Immunization/0db772a9-e4af-45a4-a04b-51c3524571d9",
    "resource": {
      "resourceType": "Immunization",
      "id": "0db772a9-e4af-45a4-a04b-51c3524571d9",
      "meta": {
        "profile": [ "http://hl7.org/fhir/us/qicore/StructureDefinition/qicore-immunization" ]
      },
      "status": "completed",
      "vaccineCode": {
        "coding": [ {
          "system": "http://hl7.org/fhir/sid/cvx",
          "code": "119",
          "display": "rotavirus, live, monovalent vaccine"
        } ]
      },
      "patient": {
        "reference": "Patient/de0de707-b53d-47fc-a9b9-1c4521f0c596"
      },
      "occurrenceDateTime": "2025-01-02T00:00:00.000+00:00",
      "recorded": "2025-01-02T00:00:00.000+00:00",
      "primarySource": true
    },
    "request": {
      "method": "PUT",
      "url": "Immunization/0db772a9-e4af-45a4-a04b-51c3524571d9"
    }
  }, {
    "fullUrl": "https://madie.cms.gov/Immunization/a9cf4fbd-d0a7-4f9c-b1ac-60b34be5c23a",
    "resource": {
      "resourceType": "Immunization",
      "id": "a9cf4fbd-d0a7-4f9c-b1ac-60b34be5c23a",
      "meta": {
        "profile": [ "http://hl7.org/fhir/us/qicore/StructureDefinition/qicore-immunization" ]
      },
      "status": "completed",
      "vaccineCode": {
        "coding": [ {
          "system": "http://hl7.org/fhir/sid/cvx",
          "code": "119",
          "display": "rotavirus, live, monovalent vaccine"
        } ]
      },
      "patient": {
        "reference": "Patient/de0de707-b53d-47fc-a9b9-1c4521f0c596"
      },
      "occurrenceDateTime": "2025-01-07T00:00:00.000+00:00",
      "recorded": "2025-01-02T00:00:00.000+00:00",
      "primarySource": true
    },
    "request": {
      "method": "PUT",
      "url": "Immunization/a9cf4fbd-d0a7-4f9c-b1ac-60b34be5c23a"
    }
  }, {
    "fullUrl": "https://madie.cms.gov/Immunization/d223b0de-5460-4df9-9eea-12fec042daf6",
    "resource": {
      "resourceType": "Immunization",
      "id": "d223b0de-5460-4df9-9eea-12fec042daf6",
      "meta": {
        "profile": [ "http://hl7.org/fhir/us/qicore/StructureDefinition/qicore-immunization" ]
      },
      "status": "completed",
      "vaccineCode": {
        "coding": [ {
          "system": "http://hl7.org/fhir/sid/cvx",
          "code": "153",
          "display": "Influenza, injectable, MDCK, preservative free"
        } ]
      },
      "patient": {
        "reference": "Patient/de0de707-b53d-47fc-a9b9-1c4521f0c596"
      },
      "occurrenceDateTime": "2025-01-02T00:00:00.000+00:00",
      "recorded": "2025-01-02T00:00:00.000+00:00",
      "primarySource": true
    },
    "request": {
      "method": "PUT",
      "url": "Immunization/d223b0de-5460-4df9-9eea-12fec042daf6"
    }
  }, {
    "fullUrl": "https://madie.cms.gov/Immunization/1769e2e1-96c7-44c4-9731-5841f86e0311",
    "resource": {
      "resourceType": "Immunization",
      "id": "1769e2e1-96c7-44c4-9731-5841f86e0311",
      "meta": {
        "profile": [ "http://hl7.org/fhir/us/qicore/StructureDefinition/qicore-immunization" ]
      },
      "status": "completed",
      "vaccineCode": {
        "coding": [ {
          "system": "http://hl7.org/fhir/sid/cvx",
          "code": "153",
          "display": "Influenza, injectable, MDCK, preservative free"
        } ]
      },
      "patient": {
        "reference": "Patient/de0de707-b53d-47fc-a9b9-1c4521f0c596"
      },
      "occurrenceDateTime": "2025-01-10T00:00:00.000+00:00",
      "recorded": "2025-01-02T00:00:00.000+00:00",
      "primarySource": true
    },
    "request": {
      "method": "PUT",
      "url": "Immunization/1769e2e1-96c7-44c4-9731-5841f86e0311"
    }
  }, {
    "fullUrl": "https://madie.cms.gov/MeasureReport/5d2c4113-8a1c-4d38-bcef-0e0e60a9b015",
    "resource": {
      "resourceType": "MeasureReport",
      "id": "5d2c4113-8a1c-4d38-bcef-0e0e60a9b015",
      "meta": {
        "profile": [ "http://hl7.org/fhir/us/cqfmeasures/StructureDefinition/test-case-cqfm" ]
      },
      "contained": [ {
        "resourceType": "Parameters",
        "id": "453f2d5e-de59-4262-8f83-a9c863236fcf-parameters",
        "parameter": [ {
          "name": "subject",
          "valueString": "de0de707-b53d-47fc-a9b9-1c4521f0c596"
        } ]
      } ],
      "extension": [ {
        "url": "http://hl7.org/fhir/StructureDefinition/cqf-inputParameters",
        "valueReference": {
          "reference": "#453f2d5e-de59-4262-8f83-a9c863236fcf-parameters"
        }
      }, {
        "url": "http://hl7.org/fhir/us/cqfmeasures/StructureDefinition/cqfm-testCaseDescription",
        "valueMarkdown": "Patient has MMR diagnoses"
      } ],
      "modifierExtension": [ {
        "url": "http://hl7.org/fhir/us/cqfmeasures/StructureDefinition/cqfm-isTestCase",
        "valueBoolean": true
      } ],
      "status": "complete",
      "type": "individual",
      "measure": "https://madie.cms.gov/Measure/CMS117FHIRChildImmunStatus",
      "period": {
        "start": "2026-01-01",
        "end": "2026-12-31"
      },
      "group": [ {
        "id": "Group_1",
        "population": [ {
          "id": "InitialPopulation_1",
          "code": {
            "coding": [ {
              "system": "http://terminology.hl7.org/CodeSystem/measure-population",
              "code": "initial-population",
              "display": "Initial Population"
            } ]
          },
          "count": 1
        }, {
          "id": "Denominator_1",
          "code": {
            "coding": [ {
              "system": "http://terminology.hl7.org/CodeSystem/measure-population",
              "code": "denominator",
              "display": "Denominator"
            } ]
          },
          "count": 1
        }, {
          "id": "DenominatorExclusion_1",
          "code": {
            "coding": [ {
              "system": "http://terminology.hl7.org/CodeSystem/measure-population",
              "code": "denominator-exclusion",
              "display": "Denominator Exclusion"
            } ]
          },
          "count": 0
        }, {
          "id": "Numerator_1",
          "code": {
            "coding": [ {
              "system": "http://terminology.hl7.org/CodeSystem/measure-population",
              "code": "numerator",
              "display": "Numerator"
            } ]
          },
          "count": 1
        } ],
        "measureScore": {
          "value": 1.0
        }
      } ],
      "evaluatedResource": [ {
        "reference": "Patient/de0de707-b53d-47fc-a9b9-1c4521f0c596"
      }, {
        "reference": "Encounter/3969b761-702e-4a63-a89e-9b75462fb351"
      }, {
        "reference": "Immunization/2e82b4f2-f011-4731-b6b3-60e5018a25a5"
      }, {
        "reference": "Immunization/6292f9b7-f75d-41b4-91f4-9fc568d8ecbd"
      }, {
        "reference": "Immunization/16e31dea-dffc-41f2-b473-66e756afa38a"
      }, {
        "reference": "Immunization/7e76fc46-d348-43d8-9273-54e5b2f5557b"
      }, {
        "reference": "Immunization/80f867e1-c07f-4ed5-b8ef-9579bd656942"
      }, {
        "reference": "Immunization/d19869fb-5a6e-415a-a47b-a53e35bdf93d"
      }, {
        "reference": "Immunization/bf061870-50e4-47be-8370-b3acfc95a488"
      }, {
        "reference": "Condition/6ecc0643-df5b-4dca-9d41-e3791405d871"
      }, {
        "reference": "Condition/110547b2-9749-4e51-9125-74103c5192c1"
      }, {
        "reference": "Condition/d673f0f5-9700-4784-9b5e-c4eb04918781"
      }, {
        "reference": "Immunization/8a0c0b95-5ccc-4f26-b7fd-82c4e427a47e"
      }, {
        "reference": "Immunization/be12b5fe-404f-455e-96fc-99efabce0073"
      }, {
        "reference": "Immunization/f13366a2-db8a-4e4b-bc78-764e19dc4937"
      }, {
        "reference": "Immunization/b800f7c9-305f-4e4d-bd07-a9096baf2780"
      }, {
        "reference": "Immunization/5cfcccb3-0490-43c5-973f-f0443af92ec4"
      }, {
        "reference": "Immunization/3236d184-530b-4f9b-b7a9-893935a143d6"
      }, {
        "reference": "Immunization/61312381-b0de-44b6-afba-933287f1100a"
      }, {
        "reference": "Immunization/dfccc85b-8a52-4418-a2bc-4e56f407a792"
      }, {
        "reference": "Immunization/f442130e-0113-450f-a941-b9b2174049b6"
      }, {
        "reference": "Immunization/3e0942c1-54f1-4e7d-a20f-5b5dda72e45a"
      }, {
        "reference": "Immunization/a9a08391-8641-4f6d-919b-05f84d1a26b2"
      }, {
        "reference": "Immunization/5feea669-c24d-4b69-a7a8-8049f44e803c"
      }, {
        "reference": "Immunization/0db772a9-e4af-45a4-a04b-51c3524571d9"
      }, {
        "reference": "Immunization/a9cf4fbd-d0a7-4f9c-b1ac-60b34be5c23a"
      }, {
        "reference": "Immunization/d223b0de-5460-4df9-9eea-12fec042daf6"
      }, {
        "reference": "Immunization/1769e2e1-96c7-44c4-9731-5841f86e0311"
      } ]
    },
    "request": {
      "method": "PUT",
      "url": "MeasureReport/5d2c4113-8a1c-4d38-bcef-0e0e60a9b015"
    }
  } ]
}