{
  "resourceType": "Bundle",
  "id": "DENEXPass-DialysisServiceDuringMP",
  "type": "transaction",
  "entry": [ {
    "fullUrl": "https://madie.cms.gov/Patient/4ade2900-b5fd-4bed-bacb-1e048c83366f",
    "resource": {
      "resourceType": "Patient",
      "id": "4ade2900-b5fd-4bed-bacb-1e048c83366f",
      "meta": {
        "profile": [ "http://hl7.org/fhir/us/qicore/StructureDefinition/qicore-patient" ]
      },
      "extension": [ {
        "url": "http://hl7.org/fhir/us/core/StructureDefinition/us-core-race",
        "extension": [ {
          "url": "ombCategory",
          "valueCoding": {
            "system": "urn:oid:2.16.840.1.113883.6.238",
            "code": "2028-9",
            "display": "Asian"
          }
        }, {
          "url": "text",
          "valueString": "Asian"
        } ]
      }, {
        "url": "http://hl7.org/fhir/us/core/StructureDefinition/us-core-ethnicity",
        "extension": [ {
          "url": "ombCategory",
          "valueCoding": {
            "system": "urn:oid:2.16.840.1.113883.6.238",
            "code": "2135-2",
            "display": "Hispanic or Latino"
          }
        }, {
          "url": "text",
          "valueString": "Hispanic or Latino"
        } ]
      } ],
      "identifier": [ {
        "system": "http://hospital.smarthealthit.org",
        "value": "999999995"
      } ],
      "name": [ {
        "family": "DENEXPass",
        "given": [ "DialysisServiceDuringMP" ]
      } ],
      "gender": "female",
      "birthDate": "2007-12-31"
    },
    "request": {
      "method": "PUT",
      "url": "Patient/4ade2900-b5fd-4bed-bacb-1e048c83366f"
    }
  }, {
    "fullUrl": "https://madie.cms.gov/Encounter/01f963c1-8c70-4c49-8055-fcefb5839935",
    "resource": {
      "resourceType": "Encounter",
      "id": "01f963c1-8c70-4c49-8055-fcefb5839935",
      "meta": {
        "profile": [ "http://hl7.org/fhir/us/qicore/StructureDefinition/qicore-encounter" ]
      },
      "status": "finished",
      "class": {
        "system": "http://terminology.hl7.org/CodeSystem/v3-ActCode",
        "code": "AMB",
        "display": "ambulatory"
      },
      "type": [ {
        "coding": [ {
          "system": "http://snomed.info/sct",
          "code": "3391000175108",
          "display": "Office visit for pediatric care and assessment (procedure)"
        } ]
      } ],
      "subject": {
        "reference": "Patient/4ade2900-b5fd-4bed-bacb-1e048c83366f"
      },
      "period": {
        "start": "2026-01-01T00:00:00.000+00:00",
        "end": "2026-01-01T01:00:00.000+00:00"
      }
    },
    "request": {
      "method": "PUT",
      "url": "Encounter/01f963c1-8c70-4c49-8055-fcefb5839935"
    }
  }, {
    "fullUrl": "https://madie.cms.gov/Condition/d50aaabc-1808-491e-827a-24cd33248205",
    "resource": {
      "resourceType": "Condition",
      "id": "d50aaabc-1808-491e-827a-24cd33248205",
      "meta": {
        "profile": [ "http://hl7.org/fhir/us/qicore/StructureDefinition/qicore-condition-encounter-diagnosis" ]
      },
      "clinicalStatus": {
        "coding": [ {
          "system": "http://terminology.hl7.org/CodeSystem/condition-clinical",
          "code": "active"
        } ]
      },
      "category": [ {
        "coding": [ {
          "system": "http://terminology.hl7.org/CodeSystem/condition-category",
          "code": "encounter-diagnosis",
          "display": "Encounter Diagnosis"
        } ]
      } ],
      "code": {
        "coding": [ {
          "system": "http://snomed.info/sct",
          "code": "371125006",
          "display": "Labile essential hypertension (disorder)"
        } ]
      },
      "subject": {
        "reference": "Patient/4ade2900-b5fd-4bed-bacb-1e048c83366f"
      },
      "onsetDateTime": "2026-06-30T23:59:59.000+00:00"
    },
    "request": {
      "method": "PUT",
      "url": "Condition/d50aaabc-1808-491e-827a-24cd33248205"
    }
  }, {
    "fullUrl": "https://madie.cms.gov/Procedure/83af453c-d2cd-4815-8485-ba92ce314d7a",
    "resource": {
      "resourceType": "Procedure",
      "id": "83af453c-d2cd-4815-8485-ba92ce314d7a",
      "meta": {
        "profile": [ "http://hl7.org/fhir/us/qicore/StructureDefinition/qicore-procedure" ]
      },
      "extension": [ {
        "url": "http://hl7.org/fhir/us/qicore/StructureDefinition/qicore-recorded",
        "valueDateTime": "2025-12-31T00:00:00.000+00:00"
      } ],
      "status": "completed",
      "code": {
        "coding": [ {
          "system": "http://snomed.info/sct",
          "code": "108241001",
          "display": "Dialysis procedure (procedure)"
        } ]
      },
      "subject": {
        "reference": "Patient/4ade2900-b5fd-4bed-bacb-1e048c83366f"
      },
      "performedPeriod": {
        "start": "2026-12-30T00:00:00.000+00:00",
        "end": "2026-12-30T23:59:59.000+00:00"
      }
    },
    "request": {
      "method": "PUT",
      "url": "Procedure/83af453c-d2cd-4815-8485-ba92ce314d7a"
    }
  }, {
    "fullUrl": "https://madie.cms.gov/MeasureReport/3aa05838-6757-4626-b9e3-a8aaf3731bc0",
    "resource": {
      "resourceType": "MeasureReport",
      "id": "3aa05838-6757-4626-b9e3-a8aaf3731bc0",
      "meta": {
        "profile": [ "http://hl7.org/fhir/us/cqfmeasures/StructureDefinition/test-case-cqfm" ]
      },
      "contained": [ {
        "resourceType": "Parameters",
        "id": "f05dfb7a-e36d-4845-ad2c-a0a2dc3306a4-parameters",
        "parameter": [ {
          "name": "subject",
          "valueString": "4ade2900-b5fd-4bed-bacb-1e048c83366f"
        } ]
      } ],
      "extension": [ {
        "url": "http://hl7.org/fhir/StructureDefinition/cqf-inputParameters",
        "valueReference": {
          "reference": "#f05dfb7a-e36d-4845-ad2c-a0a2dc3306a4-parameters"
        }
      }, {
        "url": "http://hl7.org/fhir/us/cqfmeasures/StructureDefinition/cqfm-testCaseDescription",
        "valueMarkdown": "Dialysis service during MP"
      } ],
      "modifierExtension": [ {
        "url": "http://hl7.org/fhir/us/cqfmeasures/StructureDefinition/cqfm-isTestCase",
        "valueBoolean": true
      } ],
      "status": "complete",
      "type": "individual",
      "measure": "https://madie.cms.gov/Measure/CMS165FHIRControllingHighBP",
      "period": {
        "start": "2026-01-01",
        "end": "2026-12-31"
      },
      "group": [ {
        "id": "Group_1",
        "population": [ {
          "id": "InitialPopulation_1",
          "code": {
            "coding": [ {
              "system": "http://terminology.hl7.org/CodeSystem/measure-population",
              "code": "initial-population",
              "display": "Initial Population"
            } ]
          },
          "count": 1
        }, {
          "id": "Denominator_1",
          "code": {
            "coding": [ {
              "system": "http://terminology.hl7.org/CodeSystem/measure-population",
              "code": "denominator",
              "display": "Denominator"
            } ]
          },
          "count": 1
        }, {
          "id": "DenominatorExclusion_1",
          "code": {
            "coding": [ {
              "system": "http://terminology.hl7.org/CodeSystem/measure-population",
              "code": "denominator-exclusion",
              "display": "Denominator Exclusion"
            } ]
          },
          "count": 1
        }, {
          "id": "Numerator_1",
          "code": {
            "coding": [ {
              "system": "http://terminology.hl7.org/CodeSystem/measure-population",
              "code": "numerator",
              "display": "Numerator"
            } ]
          },
          "count": 0
        } ],
        "measureScore": {
          "value": 1.0
        }
      } ],
      "evaluatedResource": [ {
        "reference": "Patient/4ade2900-b5fd-4bed-bacb-1e048c83366f"
      }, {
        "reference": "Encounter/01f963c1-8c70-4c49-8055-fcefb5839935"
      }, {
        "reference": "Condition/d50aaabc-1808-491e-827a-24cd33248205"
      }, {
        "reference": "Procedure/83af453c-d2cd-4815-8485-ba92ce314d7a"
      } ]
    },
    "request": {
      "method": "PUT",
      "url": "MeasureReport/3aa05838-6757-4626-b9e3-a8aaf3731bc0"
    }
  } ]
}