{
  "resourceType": "Bundle",
  "id": "617be46f1619a529957d62af",
  "type": "transaction",
  "entry": [ {
    "fullUrl": "https://madie.cms.gov/Patient/afb2d04b-f766-465a-9215-79cb8dfafd73",
    "resource": {
      "resourceType": "Patient",
      "id": "afb2d04b-f766-465a-9215-79cb8dfafd73",
      "meta": {
        "profile": [ "http://hl7.org/fhir/us/qicore/StructureDefinition/qicore-patient" ]
      },
      "extension": [ {
        "url": "http://hl7.org/fhir/us/core/StructureDefinition/us-core-race",
        "extension": [ {
          "url": "ombCategory",
          "valueCoding": {
            "system": "urn:oid:2.16.840.1.113883.6.238",
            "code": "2028-9",
            "display": "Asian",
            "userSelected": true
          }
        }, {
          "url": "text",
          "valueString": "Asian"
        } ]
      }, {
        "url": "http://hl7.org/fhir/us/core/StructureDefinition/us-core-ethnicity",
        "extension": [ {
          "url": "ombCategory",
          "valueCoding": {
            "system": "urn:oid:2.16.840.1.113883.6.238",
            "code": "2186-5",
            "display": "Not Hispanic or Latino",
            "userSelected": true
          }
        }, {
          "url": "text",
          "valueString": "Not Hispanic or Latino"
        } ]
      }, {
        "url": "http://hl7.org/fhir/us/core/StructureDefinition/us-core-sex",
        "valueCode": "248152002"
      } ],
      "identifier": [ {
        "type": {
          "coding": [ {
            "system": "http://terminology.hl7.org/CodeSystem/v2-0203",
            "code": "MR"
          } ]
        },
        "system": "https://bonnie-fhir.healthit.gov/",
        "value": "617be46f1619a529957d62af"
      } ],
      "name": [ {
        "family": "DenExcl6Fail",
        "given": [ "MedStartsAfterED" ]
      } ],
      "gender": "female",
      "birthDate": "1985-12-02"
    },
    "request": {
      "method": "PUT",
      "url": "Patient/afb2d04b-f766-465a-9215-79cb8dfafd73"
    }
  }, {
    "fullUrl": "https://madie.cms.gov/Encounter/1548991c-e5f2-4989-9af8-a130b4b984f7",
    "resource": {
      "resourceType": "Encounter",
      "id": "1548991c-e5f2-4989-9af8-a130b4b984f7",
      "meta": {
        "profile": [ "http://hl7.org/fhir/us/qicore/StructureDefinition/qicore-encounter" ]
      },
      "status": "finished",
      "class": {
        "system": "http://terminology.hl7.org/CodeSystem/v3-ActCode",
        "code": "EMER",
        "display": "emergency",
        "userSelected": true
      },
      "type": [ {
        "coding": [ {
          "system": "http://snomed.info/sct",
          "version": "2020-09",
          "code": "4525004",
          "display": "Emergency department patient visit (procedure)",
          "userSelected": true
        } ]
      } ],
      "subject": {
        "reference": "Patient/afb2d04b-f766-465a-9215-79cb8dfafd73"
      },
      "period": {
        "start": "2026-10-09T08:05:00.000+00:00",
        "end": "2026-10-10T07:15:00.000+00:00"
      },
      "reasonCode": [ {
        "coding": [ {
          "system": "http://hl7.org/fhir/sid/icd-10-cm",
          "version": "2021",
          "code": "I21.02",
          "display": "ST elevation (STEMI) myocardial infarction involving left anterior descending coronary artery",
          "userSelected": true
        } ]
      } ]
    },
    "request": {
      "method": "PUT",
      "url": "Encounter/1548991c-e5f2-4989-9af8-a130b4b984f7"
    }
  }, {
    "fullUrl": "https://madie.cms.gov/MedicationRequest/b0310d26-7ec4-4a97-bc7d-e2dd2e61818d",
    "resource": {
      "resourceType": "MedicationRequest",
      "id": "b0310d26-7ec4-4a97-bc7d-e2dd2e61818d",
      "meta": {
        "profile": [ "http://hl7.org/fhir/us/qicore/StructureDefinition/qicore-medicationrequest" ]
      },
      "status": "active",
      "intent": "order",
      "category": [ {
        "coding": [ {
          "system": "http://terminology.hl7.org/CodeSystem/medicationrequest-category",
          "code": "inpatient",
          "display": "Inpatient",
          "userSelected": true
        } ]
      } ],
      "medicationCodeableConcept": {
        "coding": [ {
          "system": "http://www.nlm.nih.gov/research/umls/rxnorm",
          "code": "1037045",
          "display": "dabigatran etexilate 150 MG Oral Capsule",
          "userSelected": true
        } ]
      },
      "subject": {
        "reference": "Patient/afb2d04b-f766-465a-9215-79cb8dfafd73"
      },
      "authoredOn": "2026-10-11T08:00:00.000+00:00",
      "requester": {
        "reference": "Practitioner/7a23025d-7d21-45ea-90bb-969b4f65e0dd"
      }
    },
    "request": {
      "method": "PUT",
      "url": "MedicationRequest/b0310d26-7ec4-4a97-bc7d-e2dd2e61818d"
    }
  }, {
    "fullUrl": "https://madie.cms.gov/Practitioner/7a23025d-7d21-45ea-90bb-969b4f65e0dd",
    "resource": {
      "resourceType": "Practitioner",
      "id": "7a23025d-7d21-45ea-90bb-969b4f65e0dd",
      "meta": {
        "profile": [ "http://hl7.org/fhir/us/qicore/StructureDefinition/qicore-practitioner" ]
      },
      "identifier": [ {
        "system": "http://hl7.org/fhir/sid/us-npi",
        "value": "9999999896"
      } ],
      "name": [ {
        "family": "Evil",
        "prefix": [ "Dr" ]
      } ]
    },
    "request": {
      "method": "PUT",
      "url": "Practitioner/7a23025d-7d21-45ea-90bb-969b4f65e0dd"
    }
  }, {
    "fullUrl": "https://madie.cms.gov/MeasureReport/656a6cbc-2bdc-478a-97b3-bca368ab082b",
    "resource": {
      "resourceType": "MeasureReport",
      "id": "656a6cbc-2bdc-478a-97b3-bca368ab082b",
      "meta": {
        "profile": [ "http://hl7.org/fhir/us/cqfmeasures/StructureDefinition/test-case-cqfm" ]
      },
      "contained": [ {
        "resourceType": "Parameters",
        "id": "66d7685a-ead2-4724-8666-370b97407af7-parameters",
        "parameter": [ {
          "name": "subject",
          "valueString": "afb2d04b-f766-465a-9215-79cb8dfafd73"
        } ]
      } ],
      "extension": [ {
        "url": "http://hl7.org/fhir/StructureDefinition/cqf-inputParameters",
        "valueReference": {
          "reference": "#66d7685a-ead2-4724-8666-370b97407af7-parameters"
        }
      }, {
        "url": "http://hl7.org/fhir/us/cqfmeasures/StructureDefinition/cqfm-testCaseDescription",
        "valueMarkdown": "Patient has anticoagulant medication starts after ED"
      } ],
      "modifierExtension": [ {
        "url": "http://hl7.org/fhir/us/cqfmeasures/StructureDefinition/cqfm-isTestCase",
        "valueBoolean": true
      } ],
      "status": "complete",
      "type": "individual",
      "measure": "https://madie.cms.gov/Measure/CMS996FHIRAptTxforSTEMI",
      "period": {
        "start": "2026-01-01",
        "end": "2026-12-31"
      },
      "group": [ {
        "id": "Group_1",
        "population": [ {
          "id": "InitialPopulation_1",
          "code": {
            "coding": [ {
              "system": "http://terminology.hl7.org/CodeSystem/measure-population",
              "code": "initial-population",
              "display": "Initial Population"
            } ]
          },
          "count": 1
        }, {
          "id": "Denominator_1",
          "code": {
            "coding": [ {
              "system": "http://terminology.hl7.org/CodeSystem/measure-population",
              "code": "denominator",
              "display": "Denominator"
            } ]
          },
          "count": 1
        }, {
          "id": "DenominatorExclusion_1",
          "code": {
            "coding": [ {
              "system": "http://terminology.hl7.org/CodeSystem/measure-population",
              "code": "denominator-exclusion",
              "display": "Denominator Exclusion"
            } ]
          },
          "count": 0
        }, {
          "id": "Numerator_1",
          "code": {
            "coding": [ {
              "system": "http://terminology.hl7.org/CodeSystem/measure-population",
              "code": "numerator",
              "display": "Numerator"
            } ]
          },
          "count": 0
        }, {
          "id": "DenominatorException_1",
          "code": {
            "coding": [ {
              "system": "http://terminology.hl7.org/CodeSystem/measure-population",
              "code": "denominator-exception",
              "display": "Denominator Exception"
            } ]
          },
          "count": 0
        } ],
        "measureScore": {
          "value": 0.0
        }
      } ],
      "evaluatedResource": [ {
        "reference": "Patient/afb2d04b-f766-465a-9215-79cb8dfafd73"
      }, {
        "reference": "Encounter/1548991c-e5f2-4989-9af8-a130b4b984f7"
      }, {
        "reference": "MedicationRequest/b0310d26-7ec4-4a97-bc7d-e2dd2e61818d"
      }, {
        "reference": "Practitioner/7a23025d-7d21-45ea-90bb-969b4f65e0dd"
      } ]
    },
    "request": {
      "method": "PUT",
      "url": "MeasureReport/656a6cbc-2bdc-478a-97b3-bca368ab082b"
    }
  } ]
}