{
  "resourceType": "Bundle",
  "id": "tests-9baac6c5-1826-4c06-a4a4-6ef5bfda76ba-bundle",
  "type": "transaction",
  "entry": [ {
    "fullUrl": "https://madie.cms.gov/Encounter/7a8ad5bd-8dc5-492f-800b-3cdae56ec46d",
    "resource": {
      "resourceType": "Encounter",
      "id": "7a8ad5bd-8dc5-492f-800b-3cdae56ec46d",
      "meta": {
        "profile": [ "http://hl7.org/fhir/us/qicore/StructureDefinition/qicore-encounter" ]
      },
      "status": "finished",
      "class": {
        "system": "http://terminology.hl7.org/CodeSystem/v3-ActCode",
        "code": "EMER",
        "display": "emergency"
      },
      "type": [ {
        "coding": [ {
          "system": "http://snomed.info/sct",
          "code": "4525004"
        } ]
      } ],
      "subject": {
        "reference": "Patient/92d01ab1-1808-441b-883c-4e5e9c494df3"
      },
      "period": {
        "start": "2026-09-29T08:00:00.000+00:00",
        "end": "2026-09-30T20:00:00.000+00:00"
      }
    },
    "request": {
      "method": "PUT",
      "url": "Encounter/7a8ad5bd-8dc5-492f-800b-3cdae56ec46d"
    }
  }, {
    "fullUrl": "https://madie.cms.gov/Organization/f2de52d5-b881-4966-a8e9-4686aaf52077",
    "resource": {
      "resourceType": "Organization",
      "id": "f2de52d5-b881-4966-a8e9-4686aaf52077",
      "meta": {
        "profile": [ "http://hl7.org/fhir/us/qicore/StructureDefinition/qicore-organization" ]
      },
      "identifier": [ {
        "use": "temp",
        "system": "urn:oid:2.16.840.1.113883.4.4",
        "value": "21-3259825"
      } ],
      "active": true,
      "type": [ {
        "coding": [ {
          "system": "http://terminology.hl7.org/CodeSystem/organization-type",
          "code": "pay",
          "display": "Payer"
        } ]
      } ],
      "name": "Blue Cross Blue Shield of Texas",
      "telecom": [ {
        "system": "phone",
        "value": "(+1) 972-766-6900"
      } ],
      "address": [ {
        "use": "billing",
        "type": "postal",
        "line": [ "P.O. Box 660044" ],
        "city": "Dallas",
        "state": "TX",
        "postalCode": "75266-0044",
        "country": "USA"
      } ]
    },
    "request": {
      "method": "PUT",
      "url": "Organization/f2de52d5-b881-4966-a8e9-4686aaf52077"
    }
  }, {
    "fullUrl": "https://madie.cms.gov/Observation/ca4f4012-b8ea-4d31-8106-7bef3b591ecb",
    "resource": {
      "resourceType": "Observation",
      "id": "ca4f4012-b8ea-4d31-8106-7bef3b591ecb",
      "meta": {
        "profile": [ "http://hl7.org/fhir/us/qicore/StructureDefinition/qicore-observation-lab" ]
      },
      "status": "final",
      "category": [ {
        "coding": [ {
          "system": "http://terminology.hl7.org/CodeSystem/observation-category",
          "code": "laboratory",
          "display": "Laboratory"
        } ]
      } ],
      "code": {
        "coding": [ {
          "system": "http://loinc.org",
          "version": "2.72",
          "code": "2160-0",
          "display": "Creatinine [Mass/volume] in Serum or Plasma",
          "userSelected": true
        } ]
      },
      "subject": {
        "reference": "Patient/92d01ab1-1808-441b-883c-4e5e9c494df3"
      },
      "effectiveDateTime": "2026-10-02T08:00:00.000+00:00",
      "issued": "2026-10-02T08:30:00.000+00:00",
      "valueQuantity": {
        "value": 1.1,
        "unit": "mg/dL",
        "system": "http://unitsofmeasure.org",
        "code": "mg/dL"
      }
    },
    "request": {
      "method": "PUT",
      "url": "Observation/ca4f4012-b8ea-4d31-8106-7bef3b591ecb"
    }
  }, {
    "fullUrl": "https://madie.cms.gov/Encounter/576caa23-421e-44b1-866e-2284dcae0d23",
    "resource": {
      "resourceType": "Encounter",
      "id": "576caa23-421e-44b1-866e-2284dcae0d23",
      "meta": {
        "profile": [ "http://hl7.org/fhir/us/qicore/StructureDefinition/qicore-encounter" ]
      },
      "status": "finished",
      "class": {
        "system": "http://terminology.hl7.org/CodeSystem/v3-ActCode",
        "code": "IMP",
        "display": "inpatient encounter"
      },
      "type": [ {
        "coding": [ {
          "system": "http://snomed.info/sct",
          "code": "183452005"
        } ]
      } ],
      "subject": {
        "reference": "Patient/92d01ab1-1808-441b-883c-4e5e9c494df3"
      },
      "period": {
        "start": "2026-09-29T20:00:00.000+00:00",
        "end": "2026-10-04T08:15:00.000+00:00"
      }
    },
    "request": {
      "method": "PUT",
      "url": "Encounter/576caa23-421e-44b1-866e-2284dcae0d23"
    }
  }, {
    "fullUrl": "https://madie.cms.gov/Observation/04f1971b-701b-40dc-9122-855c52545550",
    "resource": {
      "resourceType": "Observation",
      "id": "04f1971b-701b-40dc-9122-855c52545550",
      "meta": {
        "profile": [ "http://hl7.org/fhir/us/qicore/StructureDefinition/qicore-observation-lab" ]
      },
      "status": "final",
      "category": [ {
        "coding": [ {
          "system": "http://terminology.hl7.org/CodeSystem/observation-category",
          "code": "laboratory",
          "display": "Laboratory"
        } ]
      } ],
      "code": {
        "coding": [ {
          "system": "http://loinc.org",
          "version": "2.72",
          "code": "2160-0",
          "display": "Creatinine [Mass/volume] in Serum or Plasma",
          "userSelected": true
        } ]
      },
      "subject": {
        "reference": "Patient/92d01ab1-1808-441b-883c-4e5e9c494df3"
      },
      "effectiveDateTime": "2026-09-30T09:00:00.000+00:00",
      "issued": "2026-09-30T09:30:00.000+00:00",
      "valueQuantity": {
        "value": 1.1,
        "unit": "mg/dL",
        "system": "http://unitsofmeasure.org",
        "code": "mg/dL"
      }
    },
    "request": {
      "method": "PUT",
      "url": "Observation/04f1971b-701b-40dc-9122-855c52545550"
    }
  }, {
    "fullUrl": "https://madie.cms.gov/Observation/9a673a8e-2616-4664-97e4-74ab3bcf599b",
    "resource": {
      "resourceType": "Observation",
      "id": "9a673a8e-2616-4664-97e4-74ab3bcf599b",
      "meta": {
        "profile": [ "http://hl7.org/fhir/us/qicore/StructureDefinition/qicore-observation-lab" ]
      },
      "status": "final",
      "category": [ {
        "coding": [ {
          "system": "http://terminology.hl7.org/CodeSystem/observation-category",
          "code": "laboratory",
          "display": "Laboratory"
        } ]
      } ],
      "code": {
        "coding": [ {
          "system": "http://loinc.org",
          "code": "2160-0",
          "display": "Creatinine [Mass/volume] in Serum or Plasma"
        } ]
      },
      "subject": {
        "reference": "Patient/92d01ab1-1808-441b-883c-4e5e9c494df3"
      },
      "effectiveDateTime": "2026-10-03T08:00:00.000+00:00",
      "issued": "2026-10-03T08:30:00.000+00:00",
      "valueQuantity": {
        "value": 2.2,
        "unit": "mg/dL",
        "system": "http://unitsofmeasure.org",
        "code": "mg/dL"
      }
    },
    "request": {
      "method": "PUT",
      "url": "Observation/9a673a8e-2616-4664-97e4-74ab3bcf599b"
    }
  }, {
    "fullUrl": "https://madie.cms.gov/Observation/ed6f8d8f-3edc-494a-afa3-84cb05a7fa41",
    "resource": {
      "resourceType": "Observation",
      "id": "ed6f8d8f-3edc-494a-afa3-84cb05a7fa41",
      "meta": {
        "profile": [ "http://hl7.org/fhir/us/qicore/StructureDefinition/qicore-observation-lab" ]
      },
      "status": "final",
      "category": [ {
        "coding": [ {
          "system": "http://terminology.hl7.org/CodeSystem/observation-category",
          "code": "laboratory",
          "display": "Laboratory"
        } ]
      } ],
      "code": {
        "coding": [ {
          "system": "http://loinc.org",
          "version": "2.72",
          "code": "2160-0",
          "display": "Creatinine [Mass/volume] in Serum or Plasma",
          "userSelected": true
        } ]
      },
      "subject": {
        "reference": "Patient/92d01ab1-1808-441b-883c-4e5e9c494df3"
      },
      "effectiveDateTime": "2026-09-30T08:00:00.000+00:00",
      "issued": "2026-09-30T08:30:00.000+00:00",
      "valueQuantity": {
        "value": 1,
        "unit": "mg/dL",
        "system": "http://unitsofmeasure.org",
        "code": "mg/dL"
      }
    },
    "request": {
      "method": "PUT",
      "url": "Observation/ed6f8d8f-3edc-494a-afa3-84cb05a7fa41"
    }
  }, {
    "fullUrl": "https://madie.cms.gov/Coverage/624502da-cdc5-4a81-9b13-8b7824aa938d",
    "resource": {
      "resourceType": "Coverage",
      "id": "624502da-cdc5-4a81-9b13-8b7824aa938d",
      "meta": {
        "profile": [ "http://hl7.org/fhir/us/qicore/StructureDefinition/qicore-coverage" ]
      },
      "status": "active",
      "type": {
        "coding": [ {
          "system": "https://nahdo.org/sopt",
          "version": "9.2",
          "code": "211",
          "display": "Medicaid HMO"
        } ]
      },
      "beneficiary": {
        "reference": "Patient/92d01ab1-1808-441b-883c-4e5e9c494df3"
      },
      "period": {
        "start": "2024-12-01T00:00:00.000+00:00"
      },
      "payor": [ {
        "reference": "Organization/f2de52d5-b881-4966-a8e9-4686aaf52077"
      } ]
    },
    "request": {
      "method": "PUT",
      "url": "Coverage/624502da-cdc5-4a81-9b13-8b7824aa938d"
    }
  }, {
    "fullUrl": "https://madie.cms.gov/Procedure/d95fec40-cbec-4b99-958a-5d2493a81032",
    "resource": {
      "resourceType": "Procedure",
      "id": "d95fec40-cbec-4b99-958a-5d2493a81032",
      "meta": {
        "profile": [ "http://hl7.org/fhir/us/qicore/StructureDefinition/qicore-procedure" ]
      },
      "status": "completed",
      "code": {
        "coding": [ {
          "system": "http://snomed.info/sct",
          "code": "11932001"
        } ]
      },
      "subject": {
        "reference": "Patient/92d01ab1-1808-441b-883c-4e5e9c494df3"
      },
      "performedDateTime": "2026-10-02T08:30:00.000+00:00",
      "performer": [ {
        "actor": {
          "reference": "Organization/f2de52d5-b881-4966-a8e9-4686aaf52077"
        }
      } ]
    },
    "request": {
      "method": "PUT",
      "url": "Procedure/d95fec40-cbec-4b99-958a-5d2493a81032"
    }
  }, {
    "fullUrl": "https://madie.cms.gov/Patient/92d01ab1-1808-441b-883c-4e5e9c494df3",
    "resource": {
      "resourceType": "Patient",
      "id": "92d01ab1-1808-441b-883c-4e5e9c494df3",
      "meta": {
        "profile": [ "http://hl7.org/fhir/us/qicore/StructureDefinition/qicore-patient" ]
      },
      "text": {
        "status": "generated",
        "div": "<div xmlns=\"http://www.w3.org/1999/xhtml\"><div class=\"hapiHeaderText\">Turns 18 day of Encounter <b>NUMERPass </b></div><table class=\"hapiPropertyTable\"><tbody><tr><td>Identifier</td><td>f0eda1c9668fdacdcad3378589bf6e0a71e7dec1618f14fca4d442ec96e402b1</td></tr><tr><td>Date of birth</td><td><span>29 September 2006</span></td></tr></tbody></table></div>"
      },
      "extension": [ {
        "url": "http://hl7.org/fhir/us/core/StructureDefinition/us-core-race",
        "extension": [ {
          "url": "ombCategory",
          "valueCoding": {
            "system": "urn:oid:2.16.840.1.113883.6.238",
            "code": "1002-5",
            "display": "American Indian or Alaska Native",
            "userSelected": true
          }
        }, {
          "url": "text",
          "valueString": "American Indian or Alaska Native"
        } ]
      }, {
        "url": "http://hl7.org/fhir/us/core/StructureDefinition/us-core-ethnicity",
        "extension": [ {
          "url": "ombCategory",
          "valueCoding": {
            "system": "urn:oid:2.16.840.1.113883.6.238",
            "code": "2135-2",
            "display": "Hispanic or Latino",
            "userSelected": true
          }
        }, {
          "url": "text",
          "valueString": "Hispanic or Latino"
        } ]
      }, {
        "url": "http://hl7.org/fhir/us/core/StructureDefinition/us-core-sex",
        "valueCode": "248152002"
      } ],
      "identifier": [ {
        "type": {
          "coding": [ {
            "system": "http://terminology.hl7.org/CodeSystem/v2-0203",
            "code": "MR"
          } ]
        },
        "system": "http://bonnie-fhir.healthit.gov/",
        "value": "NUMERPass-SCrIncrease2x"
      } ],
      "active": true,
      "name": [ {
        "use": "usual",
        "family": "NUMERPass",
        "given": [ "SCrIncrease2x" ]
      } ],
      "gender": "female",
      "birthDate": "1983-10-10"
    },
    "request": {
      "method": "PUT",
      "url": "Patient/92d01ab1-1808-441b-883c-4e5e9c494df3"
    }
  }, {
    "fullUrl": "https://madie.cms.gov/MeasureReport/d0b76e68-ed45-4293-8205-b31a08d4fcc2",
    "resource": {
      "resourceType": "MeasureReport",
      "id": "d0b76e68-ed45-4293-8205-b31a08d4fcc2",
      "meta": {
        "profile": [ "http://hl7.org/fhir/us/cqfmeasures/StructureDefinition/test-case-cqfm" ]
      },
      "contained": [ {
        "resourceType": "Parameters",
        "id": "51c92cac-3061-4972-8148-9cbfc88b2f6b-parameters",
        "parameter": [ {
          "name": "subject",
          "valueString": "92d01ab1-1808-441b-883c-4e5e9c494df3"
        } ]
      } ],
      "extension": [ {
        "url": "http://hl7.org/fhir/StructureDefinition/cqf-inputParameters",
        "valueReference": {
          "reference": "#51c92cac-3061-4972-8148-9cbfc88b2f6b-parameters"
        }
      }, {
        "url": "http://hl7.org/fhir/us/cqfmeasures/StructureDefinition/cqfm-testCaseDescription",
        "valueMarkdown": "2TimeIncreaseInCreatUseRelevantPeriod FEMALE\nDialysis performed more than 48 hours after encounter start\n"
      } ],
      "modifierExtension": [ {
        "url": "http://hl7.org/fhir/us/cqfmeasures/StructureDefinition/cqfm-isTestCase",
        "valueBoolean": true
      } ],
      "status": "complete",
      "type": "individual",
      "measure": "https://madie.cms.gov/Measure/CMS832FHIRHHAKI",
      "period": {
        "start": "2026-01-01",
        "end": "2026-12-31"
      },
      "group": [ {
        "id": "Group_1",
        "population": [ {
          "id": "InitialPopulation_1",
          "code": {
            "coding": [ {
              "system": "http://terminology.hl7.org/CodeSystem/measure-population",
              "code": "initial-population",
              "display": "Initial Population"
            } ]
          },
          "count": 1
        }, {
          "id": "Denominator_1",
          "code": {
            "coding": [ {
              "system": "http://terminology.hl7.org/CodeSystem/measure-population",
              "code": "denominator",
              "display": "Denominator"
            } ]
          },
          "count": 1
        }, {
          "id": "DenominatorExclusion_1",
          "code": {
            "coding": [ {
              "system": "http://terminology.hl7.org/CodeSystem/measure-population",
              "code": "denominator-exclusion",
              "display": "Denominator Exclusion"
            } ]
          },
          "count": 0
        }, {
          "id": "Numerator_1",
          "code": {
            "coding": [ {
              "system": "http://terminology.hl7.org/CodeSystem/measure-population",
              "code": "numerator",
              "display": "Numerator"
            } ]
          },
          "count": 1
        } ],
        "measureScore": {
          "value": 0.0
        }
      } ],
      "evaluatedResource": [ {
        "reference": "Encounter/7a8ad5bd-8dc5-492f-800b-3cdae56ec46d"
      }, {
        "reference": "Organization/f2de52d5-b881-4966-a8e9-4686aaf52077"
      }, {
        "reference": "Observation/ca4f4012-b8ea-4d31-8106-7bef3b591ecb"
      }, {
        "reference": "Encounter/576caa23-421e-44b1-866e-2284dcae0d23"
      }, {
        "reference": "Observation/04f1971b-701b-40dc-9122-855c52545550"
      }, {
        "reference": "Observation/9a673a8e-2616-4664-97e4-74ab3bcf599b"
      }, {
        "reference": "Observation/ed6f8d8f-3edc-494a-afa3-84cb05a7fa41"
      }, {
        "reference": "Coverage/624502da-cdc5-4a81-9b13-8b7824aa938d"
      }, {
        "reference": "Procedure/d95fec40-cbec-4b99-958a-5d2493a81032"
      }, {
        "reference": "Patient/92d01ab1-1808-441b-883c-4e5e9c494df3"
      } ]
    },
    "request": {
      "method": "PUT",
      "url": "MeasureReport/d0b76e68-ed45-4293-8205-b31a08d4fcc2"
    }
  } ]
}