{
  "resourceType": "Bundle",
  "id": "61781cfe3ce875c62010f4b6",
  "type": "transaction",
  "entry": [ {
    "fullUrl": "https://madie.cms.gov/Patient/57a93727-9cac-45c2-83e6-ddb24566bd4d",
    "resource": {
      "resourceType": "Patient",
      "id": "57a93727-9cac-45c2-83e6-ddb24566bd4d",
      "meta": {
        "profile": [ "http://hl7.org/fhir/us/qicore/StructureDefinition/qicore-patient" ]
      },
      "extension": [ {
        "url": "http://hl7.org/fhir/us/core/StructureDefinition/us-core-race",
        "extension": [ {
          "url": "ombCategory",
          "valueCoding": {
            "system": "urn:oid:2.16.840.1.113883.6.238",
            "code": "2076-8",
            "display": "Native Hawaiian or Other Pacific Islander",
            "userSelected": true
          }
        }, {
          "url": "text",
          "valueString": "Native Hawaiian or Other Pacific Islander"
        } ]
      }, {
        "url": "http://hl7.org/fhir/us/core/StructureDefinition/us-core-ethnicity",
        "extension": [ {
          "url": "ombCategory",
          "valueCoding": {
            "system": "urn:oid:2.16.840.1.113883.6.238",
            "code": "2186-5",
            "display": "Not Hispanic or Latino",
            "userSelected": true
          }
        }, {
          "url": "text",
          "valueString": "Not Hispanic or Latino"
        } ]
      }, {
        "url": "http://hl7.org/fhir/us/core/StructureDefinition/us-core-sex",
        "valueCode": "248152002"
      } ],
      "identifier": [ {
        "type": {
          "coding": [ {
            "system": "http://terminology.hl7.org/CodeSystem/v2-0203",
            "code": "MR"
          } ]
        },
        "system": "https://bonnie-fhir.healthit.gov/",
        "value": "61781cfe3ce875c62010f4b6"
      } ],
      "name": [ {
        "family": "DenExcl1Fail",
        "given": [ "DxExclStartsAfterEndsAfterED" ]
      } ],
      "gender": "female",
      "birthDate": "1985-12-02"
    },
    "request": {
      "method": "PUT",
      "url": "Patient/57a93727-9cac-45c2-83e6-ddb24566bd4d"
    }
  }, {
    "fullUrl": "https://madie.cms.gov/Encounter/9ec15be1-296b-4a85-bf75-2b5143a637f3",
    "resource": {
      "resourceType": "Encounter",
      "id": "9ec15be1-296b-4a85-bf75-2b5143a637f3",
      "meta": {
        "profile": [ "http://hl7.org/fhir/us/qicore/StructureDefinition/qicore-encounter" ]
      },
      "status": "finished",
      "class": {
        "system": "http://terminology.hl7.org/CodeSystem/v3-ActCode",
        "code": "EMER",
        "display": "emergency",
        "userSelected": true
      },
      "type": [ {
        "coding": [ {
          "system": "http://snomed.info/sct",
          "version": "2020-09",
          "code": "4525004",
          "display": "Emergency department patient visit (procedure)",
          "userSelected": true
        } ]
      } ],
      "subject": {
        "reference": "Patient/57a93727-9cac-45c2-83e6-ddb24566bd4d"
      },
      "period": {
        "start": "2026-10-09T08:05:00.000+00:00",
        "end": "2026-10-10T07:15:00.000+00:00"
      },
      "reasonReference": [ {
        "reference": "Condition/b8a72b39-9e94-46f7-8f0d-b801440f7e93"
      } ]
    },
    "request": {
      "method": "PUT",
      "url": "Encounter/9ec15be1-296b-4a85-bf75-2b5143a637f3"
    }
  }, {
    "fullUrl": "https://madie.cms.gov/Condition/ca21a0a2-487a-448f-8fd2-f05e98cfe603",
    "resource": {
      "resourceType": "Condition",
      "id": "ca21a0a2-487a-448f-8fd2-f05e98cfe603",
      "meta": {
        "profile": [ "http://hl7.org/fhir/us/qicore/StructureDefinition/qicore-condition-problems-health-concerns" ]
      },
      "clinicalStatus": {
        "coding": [ {
          "system": "http://terminology.hl7.org/CodeSystem/condition-clinical",
          "code": "inactive",
          "display": "Inactive",
          "userSelected": true
        } ]
      },
      "verificationStatus": {
        "coding": [ {
          "system": "http://terminology.hl7.org/CodeSystem/condition-ver-status",
          "code": "differential"
        } ]
      },
      "category": [ {
        "coding": [ {
          "system": "http://terminology.hl7.org/CodeSystem/condition-category",
          "code": "problem-list-item",
          "display": "Problem List Item",
          "userSelected": true
        } ]
      } ],
      "code": {
        "coding": [ {
          "system": "http://snomed.info/sct",
          "version": "2020-09",
          "code": "14336007",
          "display": "Ruptured abdominal aortic aneurysm (disorder)",
          "userSelected": true
        } ]
      },
      "subject": {
        "reference": "Patient/57a93727-9cac-45c2-83e6-ddb24566bd4d"
      },
      "onsetDateTime": "2026-10-15T13:00:00.000+00:00",
      "abatementDateTime": "2026-11-07T09:15:00.000+00:00"
    },
    "request": {
      "method": "PUT",
      "url": "Condition/ca21a0a2-487a-448f-8fd2-f05e98cfe603"
    }
  }, {
    "fullUrl": "https://madie.cms.gov/Condition/b8a72b39-9e94-46f7-8f0d-b801440f7e93",
    "resource": {
      "resourceType": "Condition",
      "id": "b8a72b39-9e94-46f7-8f0d-b801440f7e93",
      "meta": {
        "profile": [ "http://hl7.org/fhir/us/qicore/StructureDefinition/qicore-condition-encounter-diagnosis" ]
      },
      "clinicalStatus": {
        "coding": [ {
          "system": "http://terminology.hl7.org/CodeSystem/condition-clinical",
          "code": "active",
          "display": "Active",
          "userSelected": true
        } ]
      },
      "category": [ {
        "coding": [ {
          "system": "http://terminology.hl7.org/CodeSystem/condition-category",
          "code": "encounter-diagnosis",
          "display": "Encounter Diagnosis",
          "userSelected": true
        } ]
      } ],
      "code": {
        "coding": [ {
          "system": "http://snomed.info/sct",
          "version": "2020-09",
          "code": "401303003",
          "display": "Acute ST segment elevation myocardial infarction (disorder)",
          "userSelected": true
        } ]
      },
      "subject": {
        "reference": "Patient/57a93727-9cac-45c2-83e6-ddb24566bd4d"
      },
      "encounter": {
        "reference": "Encounter/9ec15be1-296b-4a85-bf75-2b5143a637f3"
      },
      "onsetDateTime": "2026-10-09T08:10:00.000+00:00"
    },
    "request": {
      "method": "PUT",
      "url": "Condition/b8a72b39-9e94-46f7-8f0d-b801440f7e93"
    }
  }, {
    "fullUrl": "https://madie.cms.gov/MeasureReport/66bafecb-c041-42a7-afd1-8cdafc13003f",
    "resource": {
      "resourceType": "MeasureReport",
      "id": "66bafecb-c041-42a7-afd1-8cdafc13003f",
      "meta": {
        "profile": [ "http://hl7.org/fhir/us/cqfmeasures/StructureDefinition/test-case-cqfm" ]
      },
      "contained": [ {
        "resourceType": "Parameters",
        "id": "11443f36-6964-437a-8575-c4cc19ef6942-parameters",
        "parameter": [ {
          "name": "subject",
          "valueString": "57a93727-9cac-45c2-83e6-ddb24566bd4d"
        } ]
      } ],
      "extension": [ {
        "url": "http://hl7.org/fhir/StructureDefinition/cqf-inputParameters",
        "valueReference": {
          "reference": "#11443f36-6964-437a-8575-c4cc19ef6942-parameters"
        }
      }, {
        "url": "http://hl7.org/fhir/us/cqfmeasures/StructureDefinition/cqfm-testCaseDescription",
        "valueMarkdown": "Patient has aortic dissection (exclusion diagnosis) that starts after and ends after the ED encounter"
      } ],
      "modifierExtension": [ {
        "url": "http://hl7.org/fhir/us/cqfmeasures/StructureDefinition/cqfm-isTestCase",
        "valueBoolean": true
      } ],
      "status": "complete",
      "type": "individual",
      "measure": "https://madie.cms.gov/Measure/CMS996FHIRAptTxforSTEMI",
      "period": {
        "start": "2026-01-01",
        "end": "2026-12-31"
      },
      "group": [ {
        "id": "Group_1",
        "population": [ {
          "id": "InitialPopulation_1",
          "code": {
            "coding": [ {
              "system": "http://terminology.hl7.org/CodeSystem/measure-population",
              "code": "initial-population",
              "display": "Initial Population"
            } ]
          },
          "count": 1
        }, {
          "id": "Denominator_1",
          "code": {
            "coding": [ {
              "system": "http://terminology.hl7.org/CodeSystem/measure-population",
              "code": "denominator",
              "display": "Denominator"
            } ]
          },
          "count": 1
        }, {
          "id": "DenominatorExclusion_1",
          "code": {
            "coding": [ {
              "system": "http://terminology.hl7.org/CodeSystem/measure-population",
              "code": "denominator-exclusion",
              "display": "Denominator Exclusion"
            } ]
          },
          "count": 0
        }, {
          "id": "Numerator_1",
          "code": {
            "coding": [ {
              "system": "http://terminology.hl7.org/CodeSystem/measure-population",
              "code": "numerator",
              "display": "Numerator"
            } ]
          },
          "count": 0
        }, {
          "id": "DenominatorException_1",
          "code": {
            "coding": [ {
              "system": "http://terminology.hl7.org/CodeSystem/measure-population",
              "code": "denominator-exception",
              "display": "Denominator Exception"
            } ]
          },
          "count": 0
        } ],
        "measureScore": {
          "value": 0.0
        }
      } ],
      "evaluatedResource": [ {
        "reference": "Patient/57a93727-9cac-45c2-83e6-ddb24566bd4d"
      }, {
        "reference": "Encounter/9ec15be1-296b-4a85-bf75-2b5143a637f3"
      }, {
        "reference": "Condition/ca21a0a2-487a-448f-8fd2-f05e98cfe603"
      }, {
        "reference": "Condition/b8a72b39-9e94-46f7-8f0d-b801440f7e93"
      } ]
    },
    "request": {
      "method": "PUT",
      "url": "MeasureReport/66bafecb-c041-42a7-afd1-8cdafc13003f"
    }
  } ]
}