{
  "resourceType": "Bundle",
  "id": "612e6ec702c62a011f2ef906",
  "type": "transaction",
  "entry": [ {
    "fullUrl": "https://madie.cms.gov/Patient/afb6cd61-89e3-4b1c-b4c9-b883832ddcd5",
    "resource": {
      "resourceType": "Patient",
      "id": "afb6cd61-89e3-4b1c-b4c9-b883832ddcd5",
      "meta": {
        "profile": [ "http://hl7.org/fhir/us/qicore/StructureDefinition/qicore-patient" ]
      },
      "text": {
        "status": "generated",
        "div": "<div xmlns=\"http://www.w3.org/1999/xhtml\"><div class=\"hapiHeaderText\">CMOPerfGT1DayAfterAnesEnd <b>DENEXFAIL </b></div><table class=\"hapiPropertyTable\"><tbody><tr><td>Identifier</td><td>89fbfddc5e63c9f4a082d657ebf84aee</td></tr><tr><td>Date of birth</td><td><span>03 March 1974</span></td></tr></tbody></table></div>"
      },
      "extension": [ {
        "url": "http://hl7.org/fhir/us/core/StructureDefinition/us-core-race",
        "extension": [ {
          "url": "ombCategory",
          "valueCoding": {
            "system": "urn:oid:2.16.840.1.113883.6.238",
            "code": "1002-5",
            "display": "American Indian or Alaska Native",
            "userSelected": true
          }
        }, {
          "url": "text",
          "valueString": "American Indian or Alaska Native"
        } ]
      }, {
        "url": "http://hl7.org/fhir/us/core/StructureDefinition/us-core-ethnicity",
        "extension": [ {
          "url": "ombCategory",
          "valueCoding": {
            "system": "urn:oid:2.16.840.1.113883.6.238",
            "code": "2135-2",
            "display": "Hispanic or Latino",
            "userSelected": true
          }
        }, {
          "url": "text",
          "valueString": "Hispanic or Latino"
        } ]
      } ],
      "identifier": [ {
        "type": {
          "coding": [ {
            "system": "http://terminology.hl7.org/CodeSystem/v2-0203",
            "code": "MR"
          } ]
        },
        "system": "https://bonnie-fhir.healthit.gov/",
        "value": "612e6ec702c62a011f2ef906"
      } ],
      "active": true,
      "name": [ {
        "use": "usual",
        "family": "DENEXFail",
        "given": [ "CMOPerGT1DayAfterAnesEnd" ]
      } ],
      "gender": "female",
      "birthDate": "1975-03-03"
    },
    "request": {
      "method": "PUT",
      "url": "Patient/afb6cd61-89e3-4b1c-b4c9-b883832ddcd5"
    }
  }, {
    "fullUrl": "https://madie.cms.gov/Encounter/3c99c6f9-e25b-4ee3-88e0-d4c4797adf4d",
    "resource": {
      "resourceType": "Encounter",
      "id": "3c99c6f9-e25b-4ee3-88e0-d4c4797adf4d",
      "meta": {
        "profile": [ "http://hl7.org/fhir/us/qicore/StructureDefinition/qicore-encounter" ]
      },
      "status": "finished",
      "class": {
        "system": "http://terminology.hl7.org/CodeSystem/v3-ActCode",
        "code": "IMP",
        "display": "inpatient encounter"
      },
      "type": [ {
        "coding": [ {
          "system": "http://snomed.info/sct",
          "code": "8715000"
        } ]
      } ],
      "subject": {
        "reference": "Patient/afb6cd61-89e3-4b1c-b4c9-b883832ddcd5"
      },
      "period": {
        "start": "2026-12-04T08:00:00.000+00:00",
        "end": "2026-12-30T08:15:00.000+00:00"
      },
      "length": {
        "value": 26.0,
        "unit": "days"
      },
      "location": [ {
        "location": {
          "reference": "Location/4f0e3fec-6349-4e11-8ca8-49df9a12e8da"
        },
        "period": {
          "start": "2026-12-06T08:00:00.000+00:00",
          "end": "2026-12-12T08:15:00.000+00:00"
        }
      } ]
    },
    "request": {
      "method": "PUT",
      "url": "Encounter/3c99c6f9-e25b-4ee3-88e0-d4c4797adf4d"
    }
  }, {
    "fullUrl": "https://madie.cms.gov/Procedure/a964bda0-29fd-471c-bd07-6d199e096faf",
    "resource": {
      "resourceType": "Procedure",
      "id": "a964bda0-29fd-471c-bd07-6d199e096faf",
      "meta": {
        "profile": [ "http://hl7.org/fhir/us/qicore/StructureDefinition/qicore-procedure" ]
      },
      "extension": [ {
        "url": "http://hl7.org/fhir/us/qicore/StructureDefinition/qicore-recorded",
        "valueDateTime": "2013-12-08T13:35:00.000+00:00"
      } ],
      "status": "completed",
      "code": {
        "coding": [ {
          "system": "http://snomed.info/sct",
          "code": "133918004"
        } ]
      },
      "subject": {
        "reference": "Patient/afb6cd61-89e3-4b1c-b4c9-b883832ddcd5"
      },
      "performedPeriod": {
        "start": "2026-12-08T11:30:00.000+00:00"
      }
    },
    "request": {
      "method": "PUT",
      "url": "Procedure/a964bda0-29fd-471c-bd07-6d199e096faf"
    }
  }, {
    "fullUrl": "https://madie.cms.gov/Coverage/dd580094-a2b3-47c4-8973-f18126df993c",
    "resource": {
      "resourceType": "Coverage",
      "id": "dd580094-a2b3-47c4-8973-f18126df993c",
      "status": "active",
      "beneficiary": {
        "reference": "Patient/afb6cd61-89e3-4b1c-b4c9-b883832ddcd5"
      },
      "period": {
        "start": "1975-03-03T08:00:00.000+00:00"
      },
      "payor": [ {
        "reference": "Organization/b5ef7654-a979-48e9-8d41-797ce53d9aec"
      } ]
    },
    "request": {
      "method": "PUT",
      "url": "Coverage/dd580094-a2b3-47c4-8973-f18126df993c"
    }
  }, {
    "fullUrl": "https://madie.cms.gov/Procedure/0bf46427-d2d8-4c13-99ed-72596688a529",
    "resource": {
      "resourceType": "Procedure",
      "id": "0bf46427-d2d8-4c13-99ed-72596688a529",
      "meta": {
        "profile": [ "http://hl7.org/fhir/us/qicore/StructureDefinition/qicore-procedure" ]
      },
      "extension": [ {
        "url": "http://hl7.org/fhir/us/qicore/StructureDefinition/qicore-recorded",
        "valueDateTime": "2013-12-06T13:35:00.000+00:00"
      } ],
      "status": "completed",
      "code": {
        "coding": [ {
          "system": "http://snomed.info/sct",
          "code": "18946005"
        } ]
      },
      "subject": {
        "reference": "Patient/afb6cd61-89e3-4b1c-b4c9-b883832ddcd5"
      },
      "performedPeriod": {
        "start": "2026-12-04T11:00:00.000+00:00",
        "end": "2026-12-06T11:15:00.000+00:00"
      }
    },
    "request": {
      "method": "PUT",
      "url": "Procedure/0bf46427-d2d8-4c13-99ed-72596688a529"
    }
  }, {
    "fullUrl": "https://madie.cms.gov/Location/4f0e3fec-6349-4e11-8ca8-49df9a12e8da",
    "resource": {
      "resourceType": "Location",
      "id": "4f0e3fec-6349-4e11-8ca8-49df9a12e8da",
      "meta": {
        "profile": [ "http://hl7.org/fhir/us/qicore/StructureDefinition/qicore-location" ]
      },
      "identifier": [ {
        "use": "usual",
        "system": "http://exampleoflocation.com",
        "value": "B1-S.F2"
      } ],
      "name": "Medical Surgical East, first floor",
      "type": [ {
        "coding": [ {
          "system": "https://www.cdc.gov/nhsn/cdaportal/terminology/codesystem/hsloc.html",
          "code": "1025-6",
          "display": "Trauma Critical Care",
          "userSelected": true
        } ]
      } ]
    },
    "request": {
      "method": "PUT",
      "url": "Location/4f0e3fec-6349-4e11-8ca8-49df9a12e8da"
    }
  }, {
    "fullUrl": "https://madie.cms.gov/Organization/b5ef7654-a979-48e9-8d41-797ce53d9aec",
    "resource": {
      "resourceType": "Organization",
      "id": "b5ef7654-a979-48e9-8d41-797ce53d9aec",
      "meta": {
        "profile": [ "http://hl7.org/fhir/us/qicore/StructureDefinition/qicore-organization" ]
      },
      "identifier": [ {
        "use": "temp",
        "system": "urn:oid:2.16.840.1.113883.4.4",
        "value": "21-3259825"
      } ],
      "active": true,
      "type": [ {
        "coding": [ {
          "system": "http://terminology.hl7.org/CodeSystem/organization-type",
          "code": "pay",
          "display": "Payer"
        } ]
      } ],
      "name": "Blue Cross Blue Shield of Texas",
      "telecom": [ {
        "system": "phone",
        "value": "(+1) 972-766-6900"
      } ],
      "address": [ {
        "use": "billing",
        "type": "postal",
        "line": [ "P.O. Box 660044" ],
        "city": "Dallas",
        "state": "TX",
        "postalCode": "75266-0044",
        "country": "USA"
      } ]
    },
    "request": {
      "method": "PUT",
      "url": "Organization/b5ef7654-a979-48e9-8d41-797ce53d9aec"
    }
  }, {
    "fullUrl": "https://madie.cms.gov/Practitioner/de1d5b0b-08e5-438a-bc9d-e6282db0da97",
    "resource": {
      "resourceType": "Practitioner",
      "id": "de1d5b0b-08e5-438a-bc9d-e6282db0da97",
      "identifier": [ {
        "system": "http://hl7.org/fhir/sid/us-npi",
        "value": "123456"
      } ],
      "name": [ {
        "family": "Evil",
        "prefix": [ "Dr" ]
      } ]
    },
    "request": {
      "method": "PUT",
      "url": "Practitioner/de1d5b0b-08e5-438a-bc9d-e6282db0da97"
    }
  }, {
    "fullUrl": "https://madie.cms.gov/MeasureReport/721b2f43-3e9a-4f63-84d2-0392abc4f0d6",
    "resource": {
      "resourceType": "MeasureReport",
      "id": "721b2f43-3e9a-4f63-84d2-0392abc4f0d6",
      "meta": {
        "profile": [ "http://hl7.org/fhir/us/cqfmeasures/StructureDefinition/test-case-cqfm" ]
      },
      "contained": [ {
        "resourceType": "Parameters",
        "id": "48e145a7-75ae-4551-9e2e-0b10b9d8642a-parameters",
        "parameter": [ {
          "name": "subject",
          "valueString": "afb6cd61-89e3-4b1c-b4c9-b883832ddcd5"
        } ]
      } ],
      "extension": [ {
        "url": "http://hl7.org/fhir/StructureDefinition/cqf-inputParameters",
        "valueReference": {
          "reference": "#48e145a7-75ae-4551-9e2e-0b10b9d8642a-parameters"
        }
      }, {
        "url": "http://hl7.org/fhir/us/cqfmeasures/StructureDefinition/cqfm-testCaseDescription",
        "valueMarkdown": "comfort measures > 1 day after end of neuraxial anesthesia\n"
      } ],
      "modifierExtension": [ {
        "url": "http://hl7.org/fhir/us/cqfmeasures/StructureDefinition/cqfm-isTestCase",
        "valueBoolean": true
      } ],
      "status": "complete",
      "type": "individual",
      "measure": "https://madie.cms.gov/Measure/CMS190FHIRVTEProphylaxisICU",
      "period": {
        "start": "2026-01-01",
        "end": "2026-12-31"
      },
      "group": [ {
        "id": "Group_1",
        "population": [ {
          "id": "InitialPopulation_1",
          "code": {
            "coding": [ {
              "system": "http://terminology.hl7.org/CodeSystem/measure-population",
              "code": "initial-population",
              "display": "Initial Population"
            } ]
          },
          "count": 1
        }, {
          "id": "Denominator_1",
          "code": {
            "coding": [ {
              "system": "http://terminology.hl7.org/CodeSystem/measure-population",
              "code": "denominator",
              "display": "Denominator"
            } ]
          },
          "count": 1
        }, {
          "id": "DenominatorExclusion_1",
          "code": {
            "coding": [ {
              "system": "http://terminology.hl7.org/CodeSystem/measure-population",
              "code": "denominator-exclusion",
              "display": "Denominator Exclusion"
            } ]
          },
          "count": 0
        }, {
          "id": "Numerator_1",
          "code": {
            "coding": [ {
              "system": "http://terminology.hl7.org/CodeSystem/measure-population",
              "code": "numerator",
              "display": "Numerator"
            } ]
          },
          "count": 0
        }, {
          "id": "DenominatorException_1",
          "code": {
            "coding": [ {
              "system": "http://terminology.hl7.org/CodeSystem/measure-population",
              "code": "denominator-exception",
              "display": "Denominator Exception"
            } ]
          },
          "count": 0
        } ],
        "measureScore": {
          "value": 0.0
        }
      } ],
      "evaluatedResource": [ {
        "reference": "Patient/afb6cd61-89e3-4b1c-b4c9-b883832ddcd5"
      }, {
        "reference": "Encounter/3c99c6f9-e25b-4ee3-88e0-d4c4797adf4d"
      }, {
        "reference": "Procedure/a964bda0-29fd-471c-bd07-6d199e096faf"
      }, {
        "reference": "Coverage/dd580094-a2b3-47c4-8973-f18126df993c"
      }, {
        "reference": "Procedure/0bf46427-d2d8-4c13-99ed-72596688a529"
      }, {
        "reference": "Location/4f0e3fec-6349-4e11-8ca8-49df9a12e8da"
      }, {
        "reference": "Organization/b5ef7654-a979-48e9-8d41-797ce53d9aec"
      }, {
        "reference": "Practitioner/de1d5b0b-08e5-438a-bc9d-e6282db0da97"
      } ]
    },
    "request": {
      "method": "PUT",
      "url": "MeasureReport/721b2f43-3e9a-4f63-84d2-0392abc4f0d6"
    }
  } ]
}