{
  "resourceType": "Bundle",
  "id": "612e6a7002c62a011f2ea15f",
  "type": "transaction",
  "entry": [ {
    "fullUrl": "https://madie.cms.gov/Patient/d280541b-5f7a-4b19-b82b-c2d933006f52",
    "resource": {
      "resourceType": "Patient",
      "id": "d280541b-5f7a-4b19-b82b-c2d933006f52",
      "meta": {
        "profile": [ "http://hl7.org/fhir/us/qicore/StructureDefinition/qicore-patient" ]
      },
      "text": {
        "status": "generated",
        "div": "<div xmlns=\"http://www.w3.org/1999/xhtml\"><div class=\"hapiHeaderText\">PtRefDOGCS1DayAFAnes <b>NUMERPASS </b></div><table class=\"hapiPropertyTable\"><tbody><tr><td>Identifier</td><td>24fc1ce85ce14557dd4d9eba17df9f17</td></tr><tr><td>Date of birth</td><td><span>02 January 1974</span></td></tr></tbody></table></div>"
      },
      "extension": [ {
        "url": "http://hl7.org/fhir/us/core/StructureDefinition/us-core-race",
        "extension": [ {
          "url": "ombCategory",
          "valueCoding": {
            "system": "urn:oid:2.16.840.1.113883.6.238",
            "code": "1002-5",
            "display": "American Indian or Alaska Native",
            "userSelected": true
          }
        }, {
          "url": "text",
          "valueString": "American Indian or Alaska Native"
        } ]
      }, {
        "url": "http://hl7.org/fhir/us/core/StructureDefinition/us-core-ethnicity",
        "extension": [ {
          "url": "ombCategory",
          "valueCoding": {
            "system": "urn:oid:2.16.840.1.113883.6.238",
            "code": "2135-2",
            "display": "Hispanic or Latino",
            "userSelected": true
          }
        }, {
          "url": "text",
          "valueString": "Hispanic or Latino"
        } ]
      } ],
      "identifier": [ {
        "type": {
          "coding": [ {
            "system": "http://terminology.hl7.org/CodeSystem/v2-0203",
            "code": "MR"
          } ]
        },
        "system": "https://bonnie-fhir.healthit.gov/",
        "value": "612e6a7002c62a011f2ea15f"
      } ],
      "active": true,
      "name": [ {
        "use": "usual",
        "family": "NUMERPass",
        "given": [ "PtRefDOGCS1DayAFAnes" ]
      } ],
      "gender": "male",
      "birthDate": "1975-01-02"
    },
    "request": {
      "method": "PUT",
      "url": "Patient/d280541b-5f7a-4b19-b82b-c2d933006f52"
    }
  }, {
    "fullUrl": "https://madie.cms.gov/Encounter/08462556-2e2b-4f0c-a5e3-75bddf7fa450",
    "resource": {
      "resourceType": "Encounter",
      "id": "08462556-2e2b-4f0c-a5e3-75bddf7fa450",
      "meta": {
        "profile": [ "http://hl7.org/fhir/us/qicore/StructureDefinition/qicore-encounter" ]
      },
      "status": "finished",
      "class": {
        "system": "http://terminology.hl7.org/CodeSystem/v3-ActCode",
        "code": "IMP",
        "display": "inpatient encounter"
      },
      "type": [ {
        "coding": [ {
          "system": "http://snomed.info/sct",
          "code": "8715000"
        } ]
      } ],
      "subject": {
        "reference": "Patient/d280541b-5f7a-4b19-b82b-c2d933006f52"
      },
      "period": {
        "start": "2026-11-01T08:00:00.000+00:00",
        "end": "2026-11-26T08:15:00.000+00:00"
      },
      "length": {
        "value": 25,
        "unit": "days"
      },
      "location": [ {
        "location": {
          "reference": "Location/c0a474b7-f4e7-45f4-93d0-b2a5a14c3226"
        },
        "period": {
          "start": "2026-11-01T09:00:00.000+00:00",
          "end": "2026-11-02T08:15:00.000+00:00"
        }
      } ]
    },
    "request": {
      "method": "PUT",
      "url": "Encounter/08462556-2e2b-4f0c-a5e3-75bddf7fa450"
    }
  }, {
    "fullUrl": "https://madie.cms.gov/Coverage/8ce4f539-9e4d-480d-810b-8c23ee0acd81",
    "resource": {
      "resourceType": "Coverage",
      "id": "8ce4f539-9e4d-480d-810b-8c23ee0acd81",
      "status": "active",
      "beneficiary": {
        "reference": "Patient/d280541b-5f7a-4b19-b82b-c2d933006f52"
      },
      "period": {
        "start": "1975-01-02T08:00:00.000+00:00"
      },
      "payor": [ {
        "reference": "Organization/5e38cd5a-c89e-4427-9d64-0902d8a6f566"
      } ]
    },
    "request": {
      "method": "PUT",
      "url": "Coverage/8ce4f539-9e4d-480d-810b-8c23ee0acd81"
    }
  }, {
    "fullUrl": "https://madie.cms.gov/Procedure/3d620c73-412d-4588-958d-d69526d75bc7",
    "resource": {
      "resourceType": "Procedure",
      "id": "3d620c73-412d-4588-958d-d69526d75bc7",
      "meta": {
        "profile": [ "http://hl7.org/fhir/us/qicore/StructureDefinition/qicore-procedure" ]
      },
      "extension": [ {
        "url": "http://hl7.org/fhir/us/qicore/StructureDefinition/qicore-recorded",
        "valueDateTime": "2013-11-03T13:35:00.000+00:00"
      } ],
      "status": "completed",
      "code": {
        "coding": [ {
          "system": "http://snomed.info/sct",
          "code": "18946005"
        } ]
      },
      "subject": {
        "reference": "Patient/d280541b-5f7a-4b19-b82b-c2d933006f52"
      },
      "performedPeriod": {
        "start": "2026-11-02T09:00:00.000+00:00",
        "end": "2026-11-02T09:15:00.000+00:00"
      }
    },
    "request": {
      "method": "PUT",
      "url": "Procedure/3d620c73-412d-4588-958d-d69526d75bc7"
    }
  }, {
    "fullUrl": "https://madie.cms.gov/ServiceRequest/f9430493-2f21-4d4d-a5db-da9a41195819",
    "resource": {
      "resourceType": "ServiceRequest",
      "id": "f9430493-2f21-4d4d-a5db-da9a41195819",
      "meta": {
        "profile": [ "http://hl7.org/fhir/us/qicore/StructureDefinition/qicore-servicenotrequested" ]
      },
      "extension": [ {
        "url": "http://hl7.org/fhir/us/qicore/StructureDefinition/qicore-doNotPerformReason",
        "valueCodeableConcept": {
          "coding": [ {
            "system": "http://snomed.info/sct",
            "code": "443390004",
            "display": "Refusal of treatment by patient (situation)"
          } ]
        }
      } ],
      "status": "completed",
      "intent": "order",
      "doNotPerform": true,
      "code": {
        "coding": [ {
          "system": "http://snomed.info/sct",
          "code": "348681001",
          "display": "Graduated compression elastic hosiery (physical object)",
          "userSelected": true
        } ]
      },
      "subject": {
        "reference": "Patient/d280541b-5f7a-4b19-b82b-c2d933006f52"
      },
      "authoredOn": "2026-11-03T11:00:00.000+00:00"
    },
    "request": {
      "method": "PUT",
      "url": "ServiceRequest/f9430493-2f21-4d4d-a5db-da9a41195819"
    }
  }, {
    "fullUrl": "https://madie.cms.gov/Location/c0a474b7-f4e7-45f4-93d0-b2a5a14c3226",
    "resource": {
      "resourceType": "Location",
      "id": "c0a474b7-f4e7-45f4-93d0-b2a5a14c3226",
      "meta": {
        "profile": [ "http://hl7.org/fhir/us/qicore/StructureDefinition/qicore-location" ]
      },
      "identifier": [ {
        "use": "usual",
        "system": "http://exampleoflocation.com",
        "value": "B1-S.F2"
      } ],
      "name": "Medical Surgical East, first floor",
      "type": [ {
        "coding": [ {
          "system": "https://www.cdc.gov/nhsn/cdaportal/terminology/codesystem/hsloc.html",
          "code": "1025-6",
          "display": "Trauma Critical Care",
          "userSelected": true
        } ]
      } ]
    },
    "request": {
      "method": "PUT",
      "url": "Location/c0a474b7-f4e7-45f4-93d0-b2a5a14c3226"
    }
  }, {
    "fullUrl": "https://madie.cms.gov/Organization/5e38cd5a-c89e-4427-9d64-0902d8a6f566",
    "resource": {
      "resourceType": "Organization",
      "id": "5e38cd5a-c89e-4427-9d64-0902d8a6f566",
      "meta": {
        "profile": [ "http://hl7.org/fhir/us/qicore/StructureDefinition/qicore-organization" ]
      },
      "identifier": [ {
        "use": "temp",
        "system": "urn:oid:2.16.840.1.113883.4.4",
        "value": "21-3259825"
      } ],
      "active": true,
      "type": [ {
        "coding": [ {
          "system": "http://terminology.hl7.org/CodeSystem/organization-type",
          "code": "pay",
          "display": "Payer"
        } ]
      } ],
      "name": "Blue Cross Blue Shield of Texas",
      "telecom": [ {
        "system": "phone",
        "value": "(+1) 972-766-6900"
      } ],
      "address": [ {
        "use": "billing",
        "type": "postal",
        "line": [ "P.O. Box 660044" ],
        "city": "Dallas",
        "state": "TX",
        "postalCode": "75266-0044",
        "country": "USA"
      } ]
    },
    "request": {
      "method": "PUT",
      "url": "Organization/5e38cd5a-c89e-4427-9d64-0902d8a6f566"
    }
  }, {
    "fullUrl": "https://madie.cms.gov/Practitioner/bd4e3d94-665a-465e-8bf4-0c831bb84539",
    "resource": {
      "resourceType": "Practitioner",
      "id": "bd4e3d94-665a-465e-8bf4-0c831bb84539",
      "identifier": [ {
        "system": "http://hl7.org/fhir/sid/us-npi",
        "value": "123456"
      } ],
      "name": [ {
        "family": "Evil",
        "prefix": [ "Dr" ]
      } ]
    },
    "request": {
      "method": "PUT",
      "url": "Practitioner/bd4e3d94-665a-465e-8bf4-0c831bb84539"
    }
  }, {
    "fullUrl": "https://madie.cms.gov/MeasureReport/95e56e51-00b2-4a18-9aa4-5565815ed364",
    "resource": {
      "resourceType": "MeasureReport",
      "id": "95e56e51-00b2-4a18-9aa4-5565815ed364",
      "meta": {
        "profile": [ "http://hl7.org/fhir/us/cqfmeasures/StructureDefinition/test-case-cqfm" ]
      },
      "contained": [ {
        "resourceType": "Parameters",
        "id": "f2ddb8f9-6fd9-401c-8a0c-86baf12b61bf-parameters",
        "parameter": [ {
          "name": "subject",
          "valueString": "d280541b-5f7a-4b19-b82b-c2d933006f52"
        } ]
      } ],
      "extension": [ {
        "url": "http://hl7.org/fhir/StructureDefinition/cqf-inputParameters",
        "valueReference": {
          "reference": "#f2ddb8f9-6fd9-401c-8a0c-86baf12b61bf-parameters"
        }
      }, {
        "url": "http://hl7.org/fhir/us/cqfmeasures/StructureDefinition/cqfm-testCaseDescription",
        "valueMarkdown": "meets IPP, meets Denominator, GCS ordered not done i day after Anesthesia\n"
      } ],
      "modifierExtension": [ {
        "url": "http://hl7.org/fhir/us/cqfmeasures/StructureDefinition/cqfm-isTestCase",
        "valueBoolean": true
      } ],
      "status": "complete",
      "type": "individual",
      "measure": "https://madie.cms.gov/Measure/CMS190FHIRVTEProphylaxisICU",
      "period": {
        "start": "2026-01-01",
        "end": "2026-12-31"
      },
      "group": [ {
        "id": "Group_1",
        "population": [ {
          "id": "InitialPopulation_1",
          "code": {
            "coding": [ {
              "system": "http://terminology.hl7.org/CodeSystem/measure-population",
              "code": "initial-population",
              "display": "Initial Population"
            } ]
          },
          "count": 1
        }, {
          "id": "Denominator_1",
          "code": {
            "coding": [ {
              "system": "http://terminology.hl7.org/CodeSystem/measure-population",
              "code": "denominator",
              "display": "Denominator"
            } ]
          },
          "count": 1
        }, {
          "id": "DenominatorExclusion_1",
          "code": {
            "coding": [ {
              "system": "http://terminology.hl7.org/CodeSystem/measure-population",
              "code": "denominator-exclusion",
              "display": "Denominator Exclusion"
            } ]
          },
          "count": 0
        }, {
          "id": "Numerator_1",
          "code": {
            "coding": [ {
              "system": "http://terminology.hl7.org/CodeSystem/measure-population",
              "code": "numerator",
              "display": "Numerator"
            } ]
          },
          "count": 1
        }, {
          "id": "DenominatorException_1",
          "code": {
            "coding": [ {
              "system": "http://terminology.hl7.org/CodeSystem/measure-population",
              "code": "denominator-exception",
              "display": "Denominator Exception"
            } ]
          },
          "count": 0
        } ],
        "measureScore": {
          "value": 0.0
        }
      } ],
      "evaluatedResource": [ {
        "reference": "Patient/d280541b-5f7a-4b19-b82b-c2d933006f52"
      }, {
        "reference": "Encounter/08462556-2e2b-4f0c-a5e3-75bddf7fa450"
      }, {
        "reference": "Coverage/8ce4f539-9e4d-480d-810b-8c23ee0acd81"
      }, {
        "reference": "Procedure/3d620c73-412d-4588-958d-d69526d75bc7"
      }, {
        "reference": "ServiceRequest/f9430493-2f21-4d4d-a5db-da9a41195819"
      }, {
        "reference": "Location/c0a474b7-f4e7-45f4-93d0-b2a5a14c3226"
      }, {
        "reference": "Organization/5e38cd5a-c89e-4427-9d64-0902d8a6f566"
      }, {
        "reference": "Practitioner/bd4e3d94-665a-465e-8bf4-0c831bb84539"
      } ]
    },
    "request": {
      "method": "PUT",
      "url": "MeasureReport/95e56e51-00b2-4a18-9aa4-5565815ed364"
    }
  } ]
}