{
  "resourceType": "Bundle",
  "id": "63594c7a6aee9629c82981df",
  "type": "transaction",
  "entry": [ {
    "fullUrl": "https://madie.cms.gov/Patient/7866f492-2f4f-4953-afee-598e0e8fac0e",
    "resource": {
      "resourceType": "Patient",
      "id": "7866f492-2f4f-4953-afee-598e0e8fac0e",
      "meta": {
        "profile": [ "http://hl7.org/fhir/us/qicore/StructureDefinition/qicore-patient" ]
      },
      "text": {
        "status": "generated",
        "div": "<div xmlns=\"http://www.w3.org/1999/xhtml\"><div class=\"hapiHeaderText\">Risk_ObstetricalVTE<b>RISKPass </b></div><table class=\"hapiPropertyTable\"><tbody><tr><td>Date of birth</td><td><span>01 February 2004</span></td></tr></tbody></table></div>"
      },
      "extension": [ {
        "url": "http://hl7.org/fhir/us/core/StructureDefinition/us-core-race",
        "extension": [ {
          "url": "ombCategory",
          "valueCoding": {
            "system": "urn:oid:2.16.840.1.113883.6.238",
            "code": "1002-5",
            "display": "American Indian or Alaska Native",
            "userSelected": true
          }
        }, {
          "url": "text",
          "valueString": "American Indian or Alaska Native"
        } ]
      }, {
        "url": "http://hl7.org/fhir/us/core/StructureDefinition/us-core-ethnicity",
        "extension": [ {
          "url": "ombCategory",
          "valueCoding": {
            "system": "urn:oid:2.16.840.1.113883.6.238",
            "code": "2135-2",
            "display": "Hispanic or Latino",
            "userSelected": true
          }
        }, {
          "url": "text",
          "valueString": "Hispanic or Latino"
        } ]
      } ],
      "identifier": [ {
        "type": {
          "coding": [ {
            "system": "http://terminology.hl7.org/CodeSystem/v2-0203",
            "code": "MR"
          } ]
        },
        "system": "https://bonnie-fhir.healthit.gov/",
        "value": "63594c7a6aee9629c82981df"
      } ],
      "active": true,
      "name": [ {
        "use": "usual",
        "family": "RiskPass",
        "given": [ "RiskObstetricalVTE" ]
      } ],
      "gender": "female",
      "birthDate": "2005-02-01"
    },
    "request": {
      "method": "PUT",
      "url": "Patient/7866f492-2f4f-4953-afee-598e0e8fac0e"
    }
  }, {
    "fullUrl": "https://madie.cms.gov/Observation/e4d87d81-1763-44e4-ad5a-3e9eb00f3146",
    "resource": {
      "resourceType": "Observation",
      "id": "e4d87d81-1763-44e4-ad5a-3e9eb00f3146",
      "meta": {
        "profile": [ "http://hl7.org/fhir/us/qicore/StructureDefinition/qicore-simple-observation" ]
      },
      "status": "final",
      "category": [ {
        "coding": [ {
          "system": "http://terminology.hl7.org/CodeSystem/observation-category",
          "code": "exam",
          "display": "exam",
          "userSelected": true
        } ]
      } ],
      "code": {
        "coding": [ {
          "system": "http://loinc.org",
          "code": "93857-1"
        } ]
      },
      "subject": {
        "reference": "Patient/7866f492-2f4f-4953-afee-598e0e8fac0e"
      },
      "effectiveDateTime": "2026-02-01T08:00:00.000+00:00",
      "performer": [ {
        "reference": "Organization/example1",
        "display": "Hendricks Country Hospital"
      } ],
      "valueDateTime": "2026-02-01T08:00:00.000+00:00"
    },
    "request": {
      "method": "PUT",
      "url": "Observation/e4d87d81-1763-44e4-ad5a-3e9eb00f3146"
    }
  }, {
    "fullUrl": "https://madie.cms.gov/Observation/29a923b3-87ba-4172-8e13-074c578aad89",
    "resource": {
      "resourceType": "Observation",
      "id": "29a923b3-87ba-4172-8e13-074c578aad89",
      "meta": {
        "profile": [ "http://hl7.org/fhir/us/qicore/StructureDefinition/qicore-simple-observation" ]
      },
      "status": "final",
      "category": [ {
        "coding": [ {
          "system": "http://terminology.hl7.org/CodeSystem/observation-category",
          "code": "exam",
          "display": "exam",
          "userSelected": true
        } ]
      } ],
      "code": {
        "coding": [ {
          "system": "http://loinc.org",
          "code": "11778-8"
        } ]
      },
      "subject": {
        "reference": "Patient/7866f492-2f4f-4953-afee-598e0e8fac0e"
      },
      "effectiveDateTime": "2026-02-01T08:00:00.000+00:00",
      "performer": [ {
        "reference": "Organization/example1",
        "display": "Hendricks Country Hospital"
      } ],
      "valueDateTime": "2026-02-01T00:00:00.000+00:00"
    },
    "request": {
      "method": "PUT",
      "url": "Observation/29a923b3-87ba-4172-8e13-074c578aad89"
    }
  }, {
    "fullUrl": "https://madie.cms.gov/Encounter/8c2b71b9-68f1-4edf-bd16-26336189f29d",
    "resource": {
      "resourceType": "Encounter",
      "id": "8c2b71b9-68f1-4edf-bd16-26336189f29d",
      "meta": {
        "profile": [ "http://hl7.org/fhir/us/qicore/StructureDefinition/qicore-encounter" ]
      },
      "status": "finished",
      "class": {
        "system": "http://terminology.hl7.org/CodeSystem/v3-ActCode",
        "code": "IMP",
        "display": "inpatient encounter"
      },
      "type": [ {
        "coding": [ {
          "system": "http://snomed.info/sct",
          "code": "183452005"
        } ]
      } ],
      "subject": {
        "reference": "Patient/7866f492-2f4f-4953-afee-598e0e8fac0e"
      },
      "period": {
        "start": "2026-02-01T08:00:00.000+00:00",
        "end": "2026-02-05T08:15:00.000+00:00"
      },
      "diagnosis": [ {
        "extension": [ {
          "url": "http://hl7.org/fhir/us/qicore/StructureDefinition/qicore-encounter-diagnosisPresentOnAdmission",
          "valueCodeableConcept": {
            "coding": [ {
              "system": "https://www.cms.gov/Medicare/Medicare-Fee-for-Service-Payment/HospitalAcqCond/Coding",
              "code": "Y"
            } ]
          }
        } ],
        "condition": {
          "reference": "Condition/6002b9ab-ef5b-480a-906d-029b6a91201c"
        }
      }, {
        "extension": [ {
          "url": "http://hl7.org/fhir/us/qicore/StructureDefinition/qicore-encounter-diagnosisPresentOnAdmission",
          "valueCodeableConcept": {
            "coding": [ {
              "system": "https://www.cms.gov/Medicare/Medicare-Fee-for-Service-Payment/HospitalAcqCond/Coding",
              "code": "N"
            } ]
          }
        } ],
        "condition": {
          "reference": "Condition/68c682f0-df0a-4d15-ba5a-e43393dba073"
        }
      } ]
    },
    "request": {
      "method": "PUT",
      "url": "Encounter/8c2b71b9-68f1-4edf-bd16-26336189f29d"
    }
  }, {
    "fullUrl": "https://madie.cms.gov/Claim/915a0ffd-cebe-4033-a5d8-18a2537c1b4a",
    "resource": {
      "resourceType": "Claim",
      "id": "915a0ffd-cebe-4033-a5d8-18a2537c1b4a",
      "meta": {
        "profile": [ "http://hl7.org/fhir/us/qicore/StructureDefinition/qicore-claim" ]
      },
      "status": "active",
      "type": {
        "coding": [ {
          "system": "http://terminology.hl7.org/CodeSystem/claim-type",
          "code": "institutional",
          "display": "Institutional"
        } ]
      },
      "use": "claim",
      "patient": {
        "reference": "Patient/7866f492-2f4f-4953-afee-598e0e8fac0e"
      },
      "created": "2026-11-08",
      "provider": {
        "reference": "Practitioner/practitioner-123456"
      },
      "priority": {
        "coding": [ {
          "system": "http://terminology.hl7.org/CodeSystem/processpriority",
          "code": "normal"
        } ]
      },
      "diagnosis": [ {
        "sequence": 1,
        "diagnosisCodeableConcept": {
          "coding": [ {
            "system": "http://hl7.org/fhir/sid/icd-10-cm",
            "code": "O22.30",
            "display": "Obstetrical VTE"
          } ]
        },
        "type": [ {
          "coding": [ {
            "system": "http://terminology.hl7.org/CodeSystem/ex-diagnosistype",
            "code": "discharge",
            "display": "Discharge Diagnosis"
          } ]
        } ],
        "onAdmission": {
          "coding": [ {
            "system": "https://www.cms.gov/Medicare/Medicare-Fee-for-Service-Payment/HospitalAcqCond/Coding",
            "code": "Y"
          } ]
        }
      }, {
        "sequence": 2,
        "diagnosisCodeableConcept": {
          "coding": [ {
            "system": "http://hl7.org/fhir/sid/icd-10-cm",
            "code": "A32.7",
            "display": "Listerial sepsis"
          } ]
        },
        "type": [ {
          "coding": [ {
            "system": "http://terminology.hl7.org/CodeSystem/ex-diagnosistype",
            "code": "discharge",
            "display": "Discharge Diagnosis"
          } ]
        } ],
        "onAdmission": {
          "coding": [ {
            "system": "https://www.cms.gov/Medicare/Medicare-Fee-for-Service-Payment/HospitalAcqCond/Coding",
            "code": "N"
          } ]
        }
      } ],
      "insurance": [ {
        "sequence": 1,
        "focal": true,
        "coverage": {
          "reference": "Coverage/Coverage-1"
        }
      } ],
      "item": [ {
        "sequence": 1,
        "careTeamSequence": [ 1 ],
        "diagnosisSequence": [ 1 ],
        "productOrService": {
          "coding": [ {
            "system": "http://www.ama-assn.org/go/cpt",
            "code": "99232"
          } ]
        },
        "encounter": [ {
          "reference": "Encounter/8c2b71b9-68f1-4edf-bd16-26336189f29d"
        } ]
      }, {
        "sequence": 2,
        "careTeamSequence": [ 1 ],
        "diagnosisSequence": [ 2 ],
        "productOrService": {
          "coding": [ {
            "system": "http://www.ama-assn.org/go/cpt",
            "code": "99233"
          } ]
        },
        "encounter": [ {
          "reference": "Encounter/8c2b71b9-68f1-4edf-bd16-26336189f29d"
        } ]
      } ],
      "total": {
        "value": 3800,
        "currency": "USD"
      }
    },
    "request": {
      "method": "PUT",
      "url": "Claim/915a0ffd-cebe-4033-a5d8-18a2537c1b4a"
    }
  }, {
    "fullUrl": "https://madie.cms.gov/Procedure/3a69caf0-545d-40e9-90da-a6d3c9d733e9",
    "resource": {
      "resourceType": "Procedure",
      "id": "3a69caf0-545d-40e9-90da-a6d3c9d733e9",
      "meta": {
        "profile": [ "http://hl7.org/fhir/us/qicore/StructureDefinition/qicore-procedure" ]
      },
      "extension": [ {
        "url": "http://hl7.org/fhir/us/qicore/StructureDefinition/qicore-recorded",
        "valueDateTime": "2014-04-05T13:35:00.000+00:00"
      } ],
      "status": "completed",
      "code": {
        "coding": [ {
          "system": "http://snomed.info/sct",
          "code": "10745001"
        } ]
      },
      "subject": {
        "reference": "Patient/7866f492-2f4f-4953-afee-598e0e8fac0e"
      },
      "performedDateTime": "2026-02-01T08:00:00.000+00:00"
    },
    "request": {
      "method": "PUT",
      "url": "Procedure/3a69caf0-545d-40e9-90da-a6d3c9d733e9"
    }
  }, {
    "fullUrl": "https://madie.cms.gov/Condition/68c682f0-df0a-4d15-ba5a-e43393dba073",
    "resource": {
      "resourceType": "Condition",
      "id": "68c682f0-df0a-4d15-ba5a-e43393dba073",
      "meta": {
        "profile": [ "http://hl7.org/fhir/us/qicore/StructureDefinition/qicore-condition-encounter-diagnosis" ]
      },
      "category": [ {
        "coding": [ {
          "system": "http://terminology.hl7.org/CodeSystem/condition-category",
          "code": "encounter-diagnosis",
          "display": "Encounter Diagnosis"
        } ]
      } ],
      "code": {
        "coding": [ {
          "system": "http://hl7.org/fhir/sid/icd-10-cm",
          "version": "2023",
          "code": "A32.7",
          "display": "Listerial sepsis",
          "userSelected": true
        } ]
      },
      "subject": {
        "reference": "Patient/7866f492-2f4f-4953-afee-598e0e8fac0e"
      },
      "recordedDate": "2026-10-26T08:00:00.000+00:00"
    },
    "request": {
      "method": "PUT",
      "url": "Condition/68c682f0-df0a-4d15-ba5a-e43393dba073"
    }
  }, {
    "fullUrl": "https://madie.cms.gov/Condition/6002b9ab-ef5b-480a-906d-029b6a91201c",
    "resource": {
      "resourceType": "Condition",
      "id": "6002b9ab-ef5b-480a-906d-029b6a91201c",
      "meta": {
        "profile": [ "http://hl7.org/fhir/us/qicore/StructureDefinition/qicore-condition-encounter-diagnosis" ]
      },
      "category": [ {
        "coding": [ {
          "system": "http://terminology.hl7.org/CodeSystem/condition-category",
          "code": "encounter-diagnosis",
          "display": "Encounter Diagnosis"
        } ]
      } ],
      "code": {
        "coding": [ {
          "system": "http://hl7.org/fhir/sid/icd-10-cm",
          "version": "2023",
          "code": "O22.30",
          "display": "Obstetrical VTE",
          "userSelected": true
        } ]
      },
      "subject": {
        "reference": "Patient/7866f492-2f4f-4953-afee-598e0e8fac0e"
      },
      "recordedDate": "2026-10-26T08:00:00.000+00:00"
    },
    "request": {
      "method": "PUT",
      "url": "Condition/6002b9ab-ef5b-480a-906d-029b6a91201c"
    }
  }, {
    "fullUrl": "https://madie.cms.gov/MeasureReport/c78b230b-6976-46cb-9736-bc6269ff7795",
    "resource": {
      "resourceType": "MeasureReport",
      "id": "c78b230b-6976-46cb-9736-bc6269ff7795",
      "meta": {
        "profile": [ "http://hl7.org/fhir/us/cqfmeasures/StructureDefinition/test-case-cqfm" ]
      },
      "contained": [ {
        "resourceType": "Parameters",
        "id": "6642ec64-f94a-4548-b6ea-b2e55053009b-parameters",
        "parameter": [ {
          "name": "subject",
          "valueString": "7866f492-2f4f-4953-afee-598e0e8fac0e"
        } ]
      } ],
      "extension": [ {
        "url": "http://hl7.org/fhir/StructureDefinition/cqf-inputParameters",
        "valueReference": {
          "reference": "#6642ec64-f94a-4548-b6ea-b2e55053009b-parameters"
        }
      }, {
        "url": "http://hl7.org/fhir/us/cqfmeasures/StructureDefinition/cqfm-testCaseDescription",
        "valueMarkdown": "Risk variable of obstetrical VTE\n\n"
      } ],
      "modifierExtension": [ {
        "url": "http://hl7.org/fhir/us/cqfmeasures/StructureDefinition/cqfm-isTestCase",
        "valueBoolean": true
      } ],
      "status": "complete",
      "type": "individual",
      "measure": "https://madie.cms.gov/Measure/CMS1028FHIRPCSevereOBComps",
      "period": {
        "start": "2026-01-01",
        "end": "2026-12-31"
      },
      "group": [ {
        "id": "Group_1",
        "population": [ {
          "id": "InitialPopulation_1",
          "code": {
            "coding": [ {
              "system": "http://terminology.hl7.org/CodeSystem/measure-population",
              "code": "initial-population",
              "display": "Initial Population"
            } ]
          },
          "count": 1
        }, {
          "id": "Denominator_1",
          "code": {
            "coding": [ {
              "system": "http://terminology.hl7.org/CodeSystem/measure-population",
              "code": "denominator",
              "display": "Denominator"
            } ]
          },
          "count": 1
        }, {
          "id": "Numerator_1",
          "code": {
            "coding": [ {
              "system": "http://terminology.hl7.org/CodeSystem/measure-population",
              "code": "numerator",
              "display": "Numerator"
            } ]
          },
          "count": 1
        }, {
          "id": "NumeratorExclusion_1",
          "code": {
            "coding": [ {
              "system": "http://terminology.hl7.org/CodeSystem/measure-population",
              "code": "numerator-exclusion",
              "display": "Numerator Exclusion"
            } ]
          },
          "count": 0
        } ],
        "measureScore": {
          "value": 0.0
        }
      }, {
        "id": "Group_2",
        "population": [ {
          "id": "InitialPopulation_2",
          "code": {
            "coding": [ {
              "system": "http://terminology.hl7.org/CodeSystem/measure-population",
              "code": "initial-population",
              "display": "Initial Population"
            } ]
          },
          "count": 1
        }, {
          "id": "Denominator_2",
          "code": {
            "coding": [ {
              "system": "http://terminology.hl7.org/CodeSystem/measure-population",
              "code": "denominator",
              "display": "Denominator"
            } ]
          },
          "count": 1
        }, {
          "id": "Numerator_2",
          "code": {
            "coding": [ {
              "system": "http://terminology.hl7.org/CodeSystem/measure-population",
              "code": "numerator",
              "display": "Numerator"
            } ]
          },
          "count": 1
        }, {
          "id": "NumeratorExclusion_2",
          "code": {
            "coding": [ {
              "system": "http://terminology.hl7.org/CodeSystem/measure-population",
              "code": "numerator-exclusion",
              "display": "Numerator Exclusion"
            } ]
          },
          "count": 0
        } ],
        "measureScore": {
          "value": 0.0
        }
      } ],
      "evaluatedResource": [ {
        "reference": "Patient/7866f492-2f4f-4953-afee-598e0e8fac0e"
      }, {
        "reference": "Observation/e4d87d81-1763-44e4-ad5a-3e9eb00f3146"
      }, {
        "reference": "Observation/29a923b3-87ba-4172-8e13-074c578aad89"
      }, {
        "reference": "Encounter/8c2b71b9-68f1-4edf-bd16-26336189f29d"
      }, {
        "reference": "Claim/915a0ffd-cebe-4033-a5d8-18a2537c1b4a"
      }, {
        "reference": "Procedure/3a69caf0-545d-40e9-90da-a6d3c9d733e9"
      }, {
        "reference": "Condition/68c682f0-df0a-4d15-ba5a-e43393dba073"
      }, {
        "reference": "Condition/6002b9ab-ef5b-480a-906d-029b6a91201c"
      } ]
    },
    "request": {
      "method": "PUT",
      "url": "MeasureReport/c78b230b-6976-46cb-9736-bc6269ff7795"
    }
  } ]
}