{
  "resourceType": "Bundle",
  "id": "657cbdc9b4f1f0343662347a",
  "type": "transaction",
  "entry": [ {
    "fullUrl": "https://madie.cms.gov/Patient/950d0fc0-914c-40e9-ae8f-5d06c0a8edf5",
    "resource": {
      "resourceType": "Patient",
      "id": "950d0fc0-914c-40e9-ae8f-5d06c0a8edf5",
      "meta": {
        "profile": [ "http://hl7.org/fhir/us/qicore/StructureDefinition/qicore-patient" ]
      },
      "extension": [ {
        "url": "http://hl7.org/fhir/us/core/StructureDefinition/us-core-race",
        "extension": [ {
          "url": "ombCategory",
          "valueCoding": {
            "system": "urn:oid:2.16.840.1.113883.6.238",
            "code": "2106-3",
            "display": "White",
            "userSelected": true
          }
        }, {
          "url": "text",
          "valueString": "White"
        } ]
      }, {
        "url": "http://hl7.org/fhir/us/core/StructureDefinition/us-core-ethnicity",
        "extension": [ {
          "url": "ombCategory",
          "valueCoding": {
            "system": "urn:oid:2.16.840.1.113883.6.238",
            "code": "2186-5",
            "display": "Not Hispanic or Latino",
            "userSelected": true
          }
        }, {
          "url": "text",
          "valueString": "Not Hispanic or Latino"
        } ]
      } ],
      "identifier": [ {
        "type": {
          "coding": [ {
            "system": "http://terminology.hl7.org/CodeSystem/v2-0203",
            "code": "MR"
          } ]
        },
        "system": "https://bonnie-fhir.healthit.gov/",
        "value": "657cbdc9b4f1f0343662347a"
      } ],
      "name": [ {
        "family": "ServiceRequestFail",
        "given": [ "ServiceRequest1MinBeforeEnc" ]
      } ],
      "gender": "female",
      "birthDate": "2008-01-01"
    },
    "request": {
      "method": "PUT",
      "url": "Patient/950d0fc0-914c-40e9-ae8f-5d06c0a8edf5"
    }
  }, {
    "fullUrl": "https://madie.cms.gov/Encounter/4e629fd6-8664-4b68-b82e-dd661c9fffa1",
    "resource": {
      "resourceType": "Encounter",
      "id": "4e629fd6-8664-4b68-b82e-dd661c9fffa1",
      "meta": {
        "profile": [ "http://hl7.org/fhir/us/qicore/StructureDefinition/qicore-encounter" ]
      },
      "status": "finished",
      "class": {
        "system": "http://terminology.hl7.org/CodeSystem/v3-ActCode",
        "code": "ACUTE",
        "display": "inpatient acute"
      },
      "type": [ {
        "coding": [ {
          "system": "http://snomed.info/sct",
          "version": "2024",
          "code": "32485007",
          "display": "Hospital admission (procedure)",
          "userSelected": true
        } ]
      } ],
      "subject": {
        "reference": "Patient/950d0fc0-914c-40e9-ae8f-5d06c0a8edf5"
      },
      "period": {
        "start": "2026-01-01T08:00:00.000Z",
        "end": "2026-01-02T09:15:00.000Z"
      }
    },
    "request": {
      "method": "PUT",
      "url": "Encounter/4e629fd6-8664-4b68-b82e-dd661c9fffa1"
    }
  }, {
    "fullUrl": "https://madie.cms.gov/Location/56212ce1-67f6-4b6c-862e-c44c9533980d",
    "resource": {
      "resourceType": "Location",
      "id": "56212ce1-67f6-4b6c-862e-c44c9533980d",
      "meta": {
        "profile": [ "http://hl7.org/fhir/us/qicore/StructureDefinition/qicore-location" ]
      },
      "identifier": [ {
        "use": "usual",
        "system": "http://exampleoflocation.com",
        "value": "B1-S.F2"
      } ],
      "name": "Medical Surgical East, first floor",
      "type": [ {
        "coding": [ {
          "system": "https://www.cdc.gov/nhsn/cdaportal/terminology/codesystem/hsloc.html",
          "code": "1028-0",
          "display": "Medical Cardiac Critical Care",
          "userSelected": true
        } ]
      } ]
    },
    "request": {
      "method": "PUT",
      "url": "Location/56212ce1-67f6-4b6c-862e-c44c9533980d"
    }
  }, {
    "fullUrl": "https://madie.cms.gov/MedicationRequest/165e9e7b-d819-4ce9-996b-75e4b46a0b51",
    "resource": {
      "resourceType": "MedicationRequest",
      "id": "165e9e7b-d819-4ce9-996b-75e4b46a0b51",
      "meta": {
        "profile": [ "http://hl7.org/fhir/us/qicore/StructureDefinition/qicore-medicationrequest" ]
      },
      "status": "completed",
      "intent": "order",
      "medicationCodeableConcept": {
        "coding": [ {
          "system": "http://www.nlm.nih.gov/research/umls/rxnorm",
          "version": "06052023",
          "code": "1007184"
        } ]
      },
      "subject": {
        "reference": "Patient/950d0fc0-914c-40e9-ae8f-5d06c0a8edf5"
      },
      "authoredOn": "2026-01-01T08:15:00.000Z",
      "requester": {
        "reference": "Practitioner/33d87640-6b2a-40b0-ab11-542478a88d5a"
      },
      "dosageInstruction": [ {
        "timing": {
          "repeat": {
            "boundsPeriod": {
              "start": "2025-01-01T08:15:00.000Z"
            }
          }
        }
      } ]
    },
    "request": {
      "method": "PUT",
      "url": "MedicationRequest/165e9e7b-d819-4ce9-996b-75e4b46a0b51"
    }
  }, {
    "fullUrl": "https://madie.cms.gov/ServiceRequest/5f2b2f3d-77e3-4ec1-bcb7-a05fd129e31a",
    "resource": {
      "resourceType": "ServiceRequest",
      "id": "5f2b2f3d-77e3-4ec1-bcb7-a05fd129e31a",
      "meta": {
        "profile": [ "http://hl7.org/fhir/us/qicore/StructureDefinition/qicore-servicerequest" ]
      },
      "status": "active",
      "intent": "order",
      "doNotPerform": false,
      "code": {
        "coding": [ {
          "system": "http://www.ama-assn.org/go/cpt",
          "version": "2024",
          "code": "64450",
          "display": "Injection(s), anesthetic agent(s) and/or steroid; other peripheral nerve or branch",
          "userSelected": true
        } ]
      },
      "subject": {
        "reference": "Patient/950d0fc0-914c-40e9-ae8f-5d06c0a8edf5"
      },
      "authoredOn": "2026-01-01T07:59:00.000Z"
    },
    "request": {
      "method": "PUT",
      "url": "ServiceRequest/5f2b2f3d-77e3-4ec1-bcb7-a05fd129e31a"
    }
  }, {
    "fullUrl": "https://madie.cms.gov/Coverage/d4de1649-f991-4aec-86d6-5804f5af0fc9",
    "resource": {
      "resourceType": "Coverage",
      "id": "d4de1649-f991-4aec-86d6-5804f5af0fc9",
      "meta": {
        "profile": [ "http://hl7.org/fhir/us/qicore/StructureDefinition/qicore-coverage" ]
      },
      "identifier": [ {
        "system": "http://benefitsinc.com/certificate",
        "value": "12345"
      } ],
      "status": "active",
      "type": {
        "coding": [ {
          "system": "https://nahdo.org/sopt",
          "version": "1.0.1",
          "code": "1",
          "display": "MEDICARE",
          "userSelected": true
        } ]
      },
      "subscriberId": "AB9876",
      "beneficiary": {
        "reference": "Patient/950d0fc0-914c-40e9-ae8f-5d06c0a8edf5"
      },
      "relationship": {
        "coding": [ {
          "system": "http://terminology.hl7.org/CodeSystem/subscriber-relationship",
          "code": "self"
        } ]
      },
      "period": {
        "start": "2026-01-01T00:00:00.000Z",
        "end": "2027-03-26T08:15:00.000Z"
      },
      "payor": [ {
        "reference": "Organization/25508759-9dff-4d8b-bae8-c9d0de0266f4"
      } ]
    },
    "request": {
      "method": "PUT",
      "url": "Coverage/d4de1649-f991-4aec-86d6-5804f5af0fc9"
    }
  }, {
    "fullUrl": "https://madie.cms.gov/Organization/25508759-9dff-4d8b-bae8-c9d0de0266f4",
    "resource": {
      "resourceType": "Organization",
      "id": "25508759-9dff-4d8b-bae8-c9d0de0266f4",
      "meta": {
        "profile": [ "http://hl7.org/fhir/us/qicore/StructureDefinition/qicore-organization" ]
      },
      "identifier": [ {
        "use": "temp",
        "system": "urn:oid:2.16.840.1.113883.4.4",
        "value": "21-3259825"
      } ],
      "active": true,
      "type": [ {
        "coding": [ {
          "system": "http://terminology.hl7.org/CodeSystem/organization-type",
          "code": "pay",
          "display": "Payer"
        } ]
      } ],
      "name": "Blue Cross Blue Shield of Texas",
      "telecom": [ {
        "system": "phone",
        "value": "(+1) 972-766-6900"
      } ],
      "address": [ {
        "use": "billing",
        "type": "postal",
        "line": [ "P.O. Box 660044" ],
        "city": "Dallas",
        "state": "TX",
        "postalCode": "75266-0044",
        "country": "USA"
      } ]
    },
    "request": {
      "method": "PUT",
      "url": "Organization/25508759-9dff-4d8b-bae8-c9d0de0266f4"
    }
  }, {
    "fullUrl": "https://madie.cms.gov/Practitioner/7994361b-3b7c-4fcc-93af-2d06692f35e9",
    "resource": {
      "resourceType": "Practitioner",
      "id": "7994361b-3b7c-4fcc-93af-2d06692f35e9",
      "meta": {
        "profile": [ "http://hl7.org/fhir/us/qicore/StructureDefinition/qicore-practitioner" ]
      },
      "identifier": [ {
        "system": "http://hl7.org/fhir/sid/us-npi",
        "value": "0723660813"
      } ],
      "name": [ {
        "family": "Evil",
        "prefix": [ "Dr" ]
      } ]
    },
    "request": {
      "method": "PUT",
      "url": "Practitioner/7994361b-3b7c-4fcc-93af-2d06692f35e9"
    }
  }, {
    "fullUrl": "https://madie.cms.gov/MeasureReport/b7183067-ad91-40ce-b69d-0b60ddfe11ec",
    "resource": {
      "resourceType": "MeasureReport",
      "id": "b7183067-ad91-40ce-b69d-0b60ddfe11ec",
      "meta": {
        "profile": [ "http://hl7.org/fhir/us/cqfmeasures/StructureDefinition/test-case-cqfm" ]
      },
      "contained": [ {
        "resourceType": "Parameters",
        "id": "42704a18-8311-4cd9-b5b2-17d784977ccd-parameters",
        "parameter": [ {
          "name": "subject",
          "valueString": "950d0fc0-914c-40e9-ae8f-5d06c0a8edf5"
        } ]
      } ],
      "extension": [ {
        "url": "http://hl7.org/fhir/StructureDefinition/cqf-inputParameters",
        "valueReference": {
          "reference": "#42704a18-8311-4cd9-b5b2-17d784977ccd-parameters"
        }
      }, {
        "url": "http://hl7.org/fhir/us/cqfmeasures/StructureDefinition/cqfm-testCaseDescription",
        "valueMarkdown": "Inpatient encounter with diabetic medication during MP with service request 1 minute prior to start of encounter"
      } ],
      "modifierExtension": [ {
        "url": "http://hl7.org/fhir/us/cqfmeasures/StructureDefinition/cqfm-isTestCase",
        "valueBoolean": true
      } ],
      "status": "complete",
      "type": "individual",
      "measure": "https://madie.cms.gov/Measure/NHSNGlycemicControlHypoglycemiaInitialPopulation",
      "period": {
        "start": "2026-01-01",
        "end": "2026-12-31"
      },
      "group": [ {
        "id": "Group_1",
        "population": [ {
          "id": "InitialPopulation_1",
          "code": {
            "coding": [ {
              "system": "http://terminology.hl7.org/CodeSystem/measure-population",
              "code": "initial-population",
              "display": "Initial Population"
            } ]
          },
          "count": 1
        } ],
        "measureScore": {
          "value": 0.0
        }
      } ],
      "evaluatedResource": [ {
        "reference": "Patient/950d0fc0-914c-40e9-ae8f-5d06c0a8edf5"
      }, {
        "reference": "Encounter/4e629fd6-8664-4b68-b82e-dd661c9fffa1"
      }, {
        "reference": "Location/56212ce1-67f6-4b6c-862e-c44c9533980d"
      }, {
        "reference": "MedicationRequest/165e9e7b-d819-4ce9-996b-75e4b46a0b51"
      }, {
        "reference": "ServiceRequest/5f2b2f3d-77e3-4ec1-bcb7-a05fd129e31a"
      }, {
        "reference": "Coverage/d4de1649-f991-4aec-86d6-5804f5af0fc9"
      }, {
        "reference": "Organization/25508759-9dff-4d8b-bae8-c9d0de0266f4"
      }, {
        "reference": "Practitioner/7994361b-3b7c-4fcc-93af-2d06692f35e9"
      } ]
    },
    "request": {
      "method": "PUT",
      "url": "MeasureReport/b7183067-ad91-40ce-b69d-0b60ddfe11ec"
    }
  } ]
}