{
  "resourceType": "Bundle",
  "id": "610965b998086b538055c155",
  "type": "collection",
  "entry": [ {
    "fullUrl": "https://madie.cms.gov/Patient/e2c3ca6d-c054-4245-b59c-12f83919cfaa",
    "resource": {
      "resourceType": "Patient",
      "id": "e2c3ca6d-c054-4245-b59c-12f83919cfaa",
      "meta": {
        "profile": [ "http://hl7.org/fhir/us/qicore/StructureDefinition/qicore-patient" ]
      },
      "text": {
        "status": "generated",
        "div": "<div xmlns=\"http://www.w3.org/1999/xhtml\"><div class=\"hapiHeaderText\">LabTestAfterMP <b>NUMERFAIL </b></div><table class=\"hapiPropertyTable\"><tbody><tr><td>Date of birth</td><td><span>31 July 1992</span></td></tr></tbody></table></div>"
      },
      "extension": [ {
        "url": "http://hl7.org/fhir/us/core/StructureDefinition/us-core-race",
        "extension": [ {
          "url": "ombCategory",
          "valueCoding": {
            "system": "urn:oid:2.16.840.1.113883.6.238",
            "code": "2106-3",
            "display": "White",
            "userSelected": true
          }
        }, {
          "url": "text",
          "valueString": "White"
        } ]
      }, {
        "url": "http://hl7.org/fhir/us/core/StructureDefinition/us-core-ethnicity",
        "extension": [ {
          "url": "ombCategory",
          "valueCoding": {
            "system": "urn:oid:2.16.840.1.113883.6.238",
            "code": "2186-5",
            "display": "Not Hispanic or Latino",
            "userSelected": true
          }
        }, {
          "url": "text",
          "valueString": "Not Hispanic or Latino"
        } ]
      } ],
      "identifier": [ {
        "type": {
          "coding": [ {
            "system": "http://terminology.hl7.org/CodeSystem/v2-0203",
            "code": "MR"
          } ]
        },
        "system": "https://bonnie-fhir.healthit.gov/",
        "value": "610965b998086b538055c155"
      } ],
      "active": true,
      "name": [ {
        "use": "usual",
        "family": "NUMERFail",
        "given": [ "LabTestAfterMP" ]
      } ],
      "gender": "male",
      "birthDate": "2004-07-31"
    }
  }, {
    "fullUrl": "https://madie.cms.gov/Condition/ff5ad89b-bf77-4031-be2b-bcee728ddf29",
    "resource": {
      "resourceType": "Condition",
      "id": "ff5ad89b-bf77-4031-be2b-bcee728ddf29",
      "meta": {
        "profile": [ "http://hl7.org/fhir/us/qicore/StructureDefinition/qicore-condition-encounter-diagnosis" ]
      },
      "clinicalStatus": {
        "coding": [ {
          "system": "http://terminology.hl7.org/CodeSystem/condition-clinical",
          "code": "active",
          "display": "Active",
          "userSelected": true
        } ]
      },
      "category": [ {
        "coding": [ {
          "system": "http://terminology.hl7.org/CodeSystem/condition-category",
          "code": "encounter-diagnosis",
          "display": "Encounter Diagnosis",
          "userSelected": true
        } ]
      } ],
      "code": {
        "coding": [ {
          "system": "http://hl7.org/fhir/sid/icd-9-cm",
          "code": "042"
        } ]
      },
      "subject": {
        "reference": "Patient/e2c3ca6d-c054-4245-b59c-12f83919cfaa"
      },
      "onsetDateTime": "2026-04-06T08:00:00.000+00:00"
    }
  }, {
    "fullUrl": "https://madie.cms.gov/Encounter/297512d8-c7b0-49ee-bf1e-288ac8fca449",
    "resource": {
      "resourceType": "Encounter",
      "id": "297512d8-c7b0-49ee-bf1e-288ac8fca449",
      "meta": {
        "profile": [ "http://hl7.org/fhir/us/qicore/StructureDefinition/qicore-encounter" ]
      },
      "status": "finished",
      "class": {
        "system": "http://terminology.hl7.org/CodeSystem/v3-ActCode",
        "code": "AMB",
        "display": "ambulatory",
        "userSelected": true
      },
      "type": [ {
        "coding": [ {
          "system": "http://snomed.info/sct",
          "code": "185463005"
        } ]
      } ],
      "subject": {
        "reference": "Patient/e2c3ca6d-c054-4245-b59c-12f83919cfaa"
      },
      "period": {
        "start": "2026-10-24T08:00:00.000+00:00",
        "end": "2026-10-24T08:15:00.000+00:00"
      }
    }
  }, {
    "fullUrl": "https://madie.cms.gov/Observation/0f2f7340-f0ec-4f67-bc33-8a7db9f4e366",
    "resource": {
      "resourceType": "Observation",
      "id": "0f2f7340-f0ec-4f67-bc33-8a7db9f4e366",
      "meta": {
        "profile": [ "http://hl7.org/fhir/us/qicore/StructureDefinition/qicore-observation-lab" ]
      },
      "status": "amended",
      "category": [ {
        "coding": [ {
          "system": "http://terminology.hl7.org/CodeSystem/observation-category",
          "code": "laboratory",
          "display": "Laboratory",
          "userSelected": true
        } ]
      }, {
        "coding": [ {
          "system": "http://terminology.hl7.org/CodeSystem/observation-category",
          "code": "survey"
        } ]
      } ],
      "code": {
        "coding": [ {
          "system": "http://loinc.org",
          "code": "75622-1"
        } ]
      },
      "subject": {
        "reference": "Patient/e2c3ca6d-c054-4245-b59c-12f83919cfaa"
      },
      "effectiveDateTime": "2027-01-01T08:00:00.000+00:00",
      "valueBoolean": true
    }
  }, {
    "fullUrl": "https://madie.cms.gov/MeasureReport/1ac3a1b2-9b78-4e43-ab37-189524576802",
    "resource": {
      "resourceType": "MeasureReport",
      "id": "1ac3a1b2-9b78-4e43-ab37-189524576802",
      "meta": {
        "profile": [ "http://hl7.org/fhir/us/cqfmeasures/StructureDefinition/test-case-cqfm" ]
      },
      "contained": [ {
        "resourceType": "Parameters",
        "id": "1c0b17c1-ba65-42b5-b6db-938116bb3abd-parameters",
        "parameter": [ {
          "name": "subject",
          "valueString": "e2c3ca6d-c054-4245-b59c-12f83919cfaa"
        } ]
      } ],
      "extension": [ {
        "url": "http://hl7.org/fhir/StructureDefinition/cqf-inputParameters",
        "valueReference": {
          "reference": "#1c0b17c1-ba65-42b5-b6db-938116bb3abd-parameters"
        }
      }, {
        "url": "http://hl7.org/fhir/us/cqfmeasures/StructureDefinition/cqfm-testCaseDescription",
        "valueMarkdown": "Patient 20 at start of MP,  qual encounter during MP, HIV diagnosis starts during MP, lab test at 20 after MP."
      } ],
      "modifierExtension": [ {
        "url": "http://hl7.org/fhir/us/cqfmeasures/StructureDefinition/cqfm-isTestCase",
        "valueBoolean": true
      } ],
      "status": "complete",
      "type": "individual",
      "measure": "https://madie.cms.gov/Measure/CMS349FHIRHIVScreening",
      "period": {
        "start": "2026-01-01",
        "end": "2026-12-31"
      },
      "group": [ {
        "id": "Group_1",
        "population": [ {
          "id": "InitialPopulation_1",
          "code": {
            "coding": [ {
              "system": "http://terminology.hl7.org/CodeSystem/measure-population",
              "code": "initial-population",
              "display": "Initial Population"
            } ]
          },
          "count": 1
        }, {
          "id": "Denominator_1",
          "code": {
            "coding": [ {
              "system": "http://terminology.hl7.org/CodeSystem/measure-population",
              "code": "denominator",
              "display": "Denominator"
            } ]
          },
          "count": 1
        }, {
          "id": "DenominatorExclusion_1",
          "code": {
            "coding": [ {
              "system": "http://terminology.hl7.org/CodeSystem/measure-population",
              "code": "denominator-exclusion",
              "display": "Denominator Exclusion"
            } ]
          },
          "count": 0
        }, {
          "id": "Numerator_1",
          "code": {
            "coding": [ {
              "system": "http://terminology.hl7.org/CodeSystem/measure-population",
              "code": "numerator",
              "display": "Numerator"
            } ]
          },
          "count": 0
        }, {
          "id": "DenominatorException_1",
          "code": {
            "coding": [ {
              "system": "http://terminology.hl7.org/CodeSystem/measure-population",
              "code": "denominator-exception",
              "display": "Denominator Exception"
            } ]
          },
          "count": 0
        } ],
        "measureScore": {
          "value": 1.0
        }
      } ],
      "evaluatedResource": [ {
        "reference": "Patient/e2c3ca6d-c054-4245-b59c-12f83919cfaa"
      }, {
        "reference": "Condition/ff5ad89b-bf77-4031-be2b-bcee728ddf29"
      }, {
        "reference": "Encounter/297512d8-c7b0-49ee-bf1e-288ac8fca449"
      }, {
        "reference": "Observation/0f2f7340-f0ec-4f67-bc33-8a7db9f4e366"
      } ]
    }
  } ]
}