{
  "resourceType": "Bundle",
  "id": "63487c2d0968f80122540160",
  "type": "transaction",
  "entry": [ {
    "fullUrl": "https://madie.cms.gov/Patient/839d14a7-b370-4b12-b324-60a7a810b77c",
    "resource": {
      "resourceType": "Patient",
      "id": "839d14a7-b370-4b12-b324-60a7a810b77c",
      "meta": {
        "profile": [ "http://hl7.org/fhir/us/qicore/StructureDefinition/qicore-patient" ]
      },
      "text": {
        "status": "generated",
        "div": "<div xmlns=\"http://www.w3.org/1999/xhtml\"><div class=\"hapiHeaderText\">AssessTerm0RelDtTimeB4TimeOfDelivDtTime <b>DENPASS </b></div><table class=\"hapiPropertyTable\"><tbody><tr><td>Identifier</td><td>98b486907e2f425b582fc615d2904634e2f052873def7e64eba3846957a32ac0</td></tr><tr><td>Date of birth</td><td><span>14 February 1985</span></td></tr></tbody></table></div>"
      },
      "extension": [ {
        "url": "http://hl7.org/fhir/us/core/StructureDefinition/us-core-race",
        "extension": [ {
          "url": "ombCategory",
          "valueCoding": {
            "system": "urn:oid:2.16.840.1.113883.6.238",
            "code": "1002-5",
            "display": "American Indian or Alaska Native",
            "userSelected": true
          }
        }, {
          "url": "text",
          "valueString": "American Indian or Alaska Native"
        } ]
      }, {
        "url": "http://hl7.org/fhir/us/core/StructureDefinition/us-core-ethnicity",
        "extension": [ {
          "url": "ombCategory",
          "valueCoding": {
            "system": "urn:oid:2.16.840.1.113883.6.238",
            "code": "2135-2",
            "display": "Hispanic or Latino",
            "userSelected": true
          }
        }, {
          "url": "text",
          "valueString": "Hispanic or Latino"
        } ]
      } ],
      "identifier": [ {
        "type": {
          "coding": [ {
            "system": "http://terminology.hl7.org/CodeSystem/v2-0203",
            "code": "MR"
          } ]
        },
        "system": "https://bonnie-fhir.healthit.gov/",
        "value": "63487c2d0968f80122540160"
      } ],
      "active": true,
      "name": [ {
        "use": "usual",
        "family": "DENPass",
        "given": [ "AssessTerm0RelDtTimeB4TimeOfDelivDtTime" ]
      } ],
      "gender": "female",
      "birthDate": "1998-02-14"
    },
    "request": {
      "method": "PUT",
      "url": "Patient/839d14a7-b370-4b12-b324-60a7a810b77c"
    }
  }, {
    "fullUrl": "https://madie.cms.gov/Observation/f8fd7f45-72d9-4f69-a5a4-8d6f6f04fcc0",
    "resource": {
      "resourceType": "Observation",
      "id": "f8fd7f45-72d9-4f69-a5a4-8d6f6f04fcc0",
      "meta": {
        "profile": [ "http://hl7.org/fhir/us/qicore/StructureDefinition/qicore-simple-observation" ]
      },
      "status": "final",
      "category": [ {
        "coding": [ {
          "system": "http://terminology.hl7.org/CodeSystem/observation-category",
          "code": "exam",
          "display": "exam",
          "userSelected": true
        } ]
      } ],
      "code": {
        "coding": [ {
          "system": "http://loinc.org",
          "code": "11637-6"
        } ]
      },
      "subject": {
        "reference": "Patient/839d14a7-b370-4b12-b324-60a7a810b77c"
      },
      "effectiveDateTime": "2025-09-19T09:00:00.000+00:00",
      "valueInteger": 0
    },
    "request": {
      "method": "PUT",
      "url": "Observation/f8fd7f45-72d9-4f69-a5a4-8d6f6f04fcc0"
    }
  }, {
    "fullUrl": "https://madie.cms.gov/Observation/b8819765-ee53-414d-96b9-b4ccd8f8e890",
    "resource": {
      "resourceType": "Observation",
      "id": "b8819765-ee53-414d-96b9-b4ccd8f8e890",
      "meta": {
        "profile": [ "http://hl7.org/fhir/us/qicore/StructureDefinition/qicore-simple-observation" ]
      },
      "status": "final",
      "category": [ {
        "coding": [ {
          "system": "http://terminology.hl7.org/CodeSystem/observation-category",
          "code": "exam",
          "display": "exam",
          "userSelected": true
        } ]
      } ],
      "code": {
        "coding": [ {
          "system": "http://loinc.org",
          "code": "11639-2"
        } ]
      },
      "subject": {
        "reference": "Patient/839d14a7-b370-4b12-b324-60a7a810b77c"
      },
      "effectiveDateTime": "2026-06-08T17:00:00.000+00:00",
      "valueInteger": 0
    },
    "request": {
      "method": "PUT",
      "url": "Observation/b8819765-ee53-414d-96b9-b4ccd8f8e890"
    }
  }, {
    "fullUrl": "https://madie.cms.gov/Observation/c4177374-5301-4f98-85ec-964b924d8c7e",
    "resource": {
      "resourceType": "Observation",
      "id": "c4177374-5301-4f98-85ec-964b924d8c7e",
      "meta": {
        "profile": [ "http://hl7.org/fhir/us/qicore/StructureDefinition/qicore-simple-observation" ]
      },
      "status": "final",
      "category": [ {
        "coding": [ {
          "system": "http://terminology.hl7.org/CodeSystem/observation-category",
          "code": "exam",
          "display": "exam",
          "userSelected": true
        } ]
      } ],
      "code": {
        "coding": [ {
          "system": "http://loinc.org",
          "code": "11884-4"
        } ]
      },
      "subject": {
        "reference": "Patient/839d14a7-b370-4b12-b324-60a7a810b77c"
      },
      "effectiveDateTime": "2026-06-08T20:00:00.000+00:00",
      "valueQuantity": {
        "value": 37,
        "system": "http://unitsofmeasure.org",
        "code": "wk"
      }
    },
    "request": {
      "method": "PUT",
      "url": "Observation/c4177374-5301-4f98-85ec-964b924d8c7e"
    }
  }, {
    "fullUrl": "https://madie.cms.gov/Observation/a087fe1e-5d3f-41ea-bfea-8b1b7ac39230",
    "resource": {
      "resourceType": "Observation",
      "id": "a087fe1e-5d3f-41ea-bfea-8b1b7ac39230",
      "meta": {
        "profile": [ "http://hl7.org/fhir/us/qicore/StructureDefinition/qicore-simple-observation" ]
      },
      "status": "final",
      "category": [ {
        "coding": [ {
          "system": "http://terminology.hl7.org/CodeSystem/observation-category",
          "code": "exam",
          "display": "exam",
          "userSelected": true
        } ]
      } ],
      "code": {
        "coding": [ {
          "system": "http://loinc.org",
          "code": "93857-1"
        } ]
      },
      "subject": {
        "reference": "Patient/839d14a7-b370-4b12-b324-60a7a810b77c"
      },
      "effectiveDateTime": "2026-06-08T20:00:00.000+00:00",
      "valueDateTime": "2026-06-08T20:00:00.000+00:00"
    },
    "request": {
      "method": "PUT",
      "url": "Observation/a087fe1e-5d3f-41ea-bfea-8b1b7ac39230"
    }
  }, {
    "fullUrl": "https://madie.cms.gov/Encounter/b0580990-ae7c-4128-84c6-3c203e81a612",
    "resource": {
      "resourceType": "Encounter",
      "id": "b0580990-ae7c-4128-84c6-3c203e81a612",
      "meta": {
        "profile": [ "http://hl7.org/fhir/us/qicore/StructureDefinition/qicore-encounter" ]
      },
      "status": "finished",
      "class": {
        "system": "http://terminology.hl7.org/CodeSystem/v3-ActCode",
        "code": "IMP",
        "display": "inpatient encounter"
      },
      "type": [ {
        "coding": [ {
          "system": "http://snomed.info/sct",
          "code": "8715000"
        } ]
      } ],
      "subject": {
        "reference": "Patient/839d14a7-b370-4b12-b324-60a7a810b77c"
      },
      "period": {
        "start": "2026-06-08T08:00:00.000+00:00",
        "end": "2026-06-10T08:15:00.000+00:00"
      },
      "length": {
        "value": 2,
        "unit": "days"
      },
      "reasonReference": [ {
        "reference": "Condition/d4b35009-8020-4187-80b1-020821811637"
      } ]
    },
    "request": {
      "method": "PUT",
      "url": "Encounter/b0580990-ae7c-4128-84c6-3c203e81a612"
    }
  }, {
    "fullUrl": "https://madie.cms.gov/Coverage/5f5f9e471c76ba674bb032bf",
    "resource": {
      "resourceType": "Coverage",
      "id": "5f5f9e471c76ba674bb032bf",
      "meta": {
        "profile": [ "http://hl7.org/fhir/us/qicore/StructureDefinition/qicore-coverage" ]
      },
      "status": "active",
      "subscriberId": "523435",
      "beneficiary": {
        "reference": "Patient/839d14a7-b370-4b12-b324-60a7a810b77c"
      },
      "relationship": {
        "coding": [ {
          "system": "http://terminology.hl7.org/CodeSystem/subscriber-relationship",
          "code": "self"
        } ]
      },
      "period": {
        "start": "1986-02-14T08:00:00.000+00:00"
      },
      "payor": [ {
        "reference": "Organization/3c83022e-d7d2-47db-9716-861d61111cf5"
      } ]
    },
    "request": {
      "method": "PUT",
      "url": "Coverage/5f5f9e471c76ba674bb032bf"
    }
  }, {
    "fullUrl": "https://madie.cms.gov/Procedure/faf04605-faa1-4545-a9ef-3522efb85f22",
    "resource": {
      "resourceType": "Procedure",
      "id": "faf04605-faa1-4545-a9ef-3522efb85f22",
      "meta": {
        "profile": [ "http://hl7.org/fhir/us/qicore/StructureDefinition/qicore-procedure" ]
      },
      "extension": [ {
        "url": "http://hl7.org/fhir/us/qicore/StructureDefinition/qicore-recorded",
        "valueDateTime": "2014-04-05T13:35:00.000+00:00"
      } ],
      "status": "completed",
      "code": {
        "coding": [ {
          "system": "http://www.cms.gov/Medicare/Coding/ICD10",
          "code": "10D00Z0"
        }, {
          "system": "http://snomed.info/sct",
          "code": "4504004"
        } ]
      },
      "subject": {
        "reference": "Patient/839d14a7-b370-4b12-b324-60a7a810b77c"
      },
      "performedPeriod": {
        "start": "2026-06-08T20:00:00.000+00:00",
        "end": "2026-06-08T20:15:00.000+00:00"
      }
    },
    "request": {
      "method": "PUT",
      "url": "Procedure/faf04605-faa1-4545-a9ef-3522efb85f22"
    }
  }, {
    "fullUrl": "https://madie.cms.gov/Condition/d4b35009-8020-4187-80b1-020821811637",
    "resource": {
      "resourceType": "Condition",
      "id": "d4b35009-8020-4187-80b1-020821811637",
      "meta": {
        "profile": [ "http://hl7.org/fhir/us/qicore/StructureDefinition/qicore-condition-encounter-diagnosis" ]
      },
      "category": [ {
        "coding": [ {
          "system": "http://terminology.hl7.org/CodeSystem/condition-category",
          "code": "encounter-diagnosis",
          "display": "Encounter Diagnosis"
        } ]
      } ],
      "code": {
        "coding": [ {
          "system": "http://snomed.info/sct",
          "version": "2022-09",
          "code": "169826009",
          "display": "Single live birth from singleton pregnancy (finding)",
          "userSelected": true
        } ]
      },
      "subject": {
        "reference": "Patient/839d14a7-b370-4b12-b324-60a7a810b77c"
      },
      "encounter": {
        "reference": "Encounter/b0580990-ae7c-4128-84c6-3c203e81a612"
      },
      "recordedDate": "2026-10-20T08:00:00.000+00:00"
    },
    "request": {
      "method": "PUT",
      "url": "Condition/d4b35009-8020-4187-80b1-020821811637"
    }
  }, {
    "fullUrl": "https://madie.cms.gov/Organization/3c83022e-d7d2-47db-9716-861d61111cf5",
    "resource": {
      "resourceType": "Organization",
      "id": "3c83022e-d7d2-47db-9716-861d61111cf5",
      "meta": {
        "profile": [ "http://hl7.org/fhir/us/qicore/StructureDefinition/qicore-organization" ]
      },
      "identifier": [ {
        "use": "temp",
        "system": "urn:oid:2.16.840.1.113883.4.4",
        "value": "21-3259825"
      } ],
      "active": true,
      "type": [ {
        "coding": [ {
          "system": "http://terminology.hl7.org/CodeSystem/organization-type",
          "code": "pay",
          "display": "Payer"
        } ]
      } ],
      "name": "Blue Cross Blue Shield of Texas",
      "telecom": [ {
        "system": "phone",
        "value": "(+1) 972-766-6900"
      } ],
      "address": [ {
        "use": "billing",
        "type": "postal",
        "line": [ "P.O. Box 660044" ],
        "city": "Dallas",
        "state": "TX",
        "postalCode": "75266-0044",
        "country": "USA"
      } ]
    },
    "request": {
      "method": "PUT",
      "url": "Organization/3c83022e-d7d2-47db-9716-861d61111cf5"
    }
  }, {
    "fullUrl": "https://madie.cms.gov/Practitioner/8e8f1c4a-7988-43c9-8758-e450fe847367",
    "resource": {
      "resourceType": "Practitioner",
      "id": "8e8f1c4a-7988-43c9-8758-e450fe847367",
      "meta": {
        "profile": [ "http://hl7.org/fhir/us/qicore/StructureDefinition/qicore-practitioner" ]
      },
      "identifier": [ {
        "system": "http://hl7.org/fhir/sid/us-npi",
        "value": "1234567890"
      } ],
      "name": [ {
        "family": "Evil",
        "prefix": [ "Dr" ]
      } ]
    },
    "request": {
      "method": "PUT",
      "url": "Practitioner/8e8f1c4a-7988-43c9-8758-e450fe847367"
    }
  }, {
    "fullUrl": "https://madie.cms.gov/MeasureReport/89dd8ac3-2d39-446e-9a62-e2d1f0a9af1d",
    "resource": {
      "resourceType": "MeasureReport",
      "id": "89dd8ac3-2d39-446e-9a62-e2d1f0a9af1d",
      "meta": {
        "profile": [ "http://hl7.org/fhir/us/cqfmeasures/StructureDefinition/test-case-cqfm" ]
      },
      "contained": [ {
        "resourceType": "Parameters",
        "id": "f6d7a4c2-ff18-4e86-9eb2-1b44f51898f0-parameters",
        "parameter": [ {
          "name": "subject",
          "valueString": "839d14a7-b370-4b12-b324-60a7a810b77c"
        } ]
      } ],
      "extension": [ {
        "url": "http://hl7.org/fhir/StructureDefinition/cqf-inputParameters",
        "valueReference": {
          "reference": "#f6d7a4c2-ff18-4e86-9eb2-1b44f51898f0-parameters"
        }
      }, {
        "url": "http://hl7.org/fhir/us/cqfmeasures/StructureDefinition/cqfm-testCaseDescription",
        "valueMarkdown": "\"Preterm Births=0, rel date/time < 42weeks prior to delivery\nTerm Newborn=0, rel date/time same date and before delivery time\"\n"
      } ],
      "modifierExtension": [ {
        "url": "http://hl7.org/fhir/us/cqfmeasures/StructureDefinition/cqfm-isTestCase",
        "valueBoolean": true
      } ],
      "status": "complete",
      "type": "individual",
      "measure": "https://madie.cms.gov/Measure/CMS0334FHIRPCCesareanBirth",
      "period": {
        "start": "2026-01-01",
        "end": "2026-12-31"
      },
      "group": [ {
        "id": "Group_1",
        "population": [ {
          "id": "InitialPopulation_1",
          "code": {
            "coding": [ {
              "system": "http://terminology.hl7.org/CodeSystem/measure-population",
              "code": "initial-population",
              "display": "Initial Population"
            } ]
          },
          "count": 1
        }, {
          "id": "Denominator_1",
          "code": {
            "coding": [ {
              "system": "http://terminology.hl7.org/CodeSystem/measure-population",
              "code": "denominator",
              "display": "Denominator"
            } ]
          },
          "count": 1
        }, {
          "id": "DenominatorExclusion_1",
          "code": {
            "coding": [ {
              "system": "http://terminology.hl7.org/CodeSystem/measure-population",
              "code": "denominator-exclusion",
              "display": "Denominator Exclusion"
            } ]
          },
          "count": 0
        }, {
          "id": "Numerator_1",
          "code": {
            "coding": [ {
              "system": "http://terminology.hl7.org/CodeSystem/measure-population",
              "code": "numerator",
              "display": "Numerator"
            } ]
          },
          "count": 1
        } ],
        "measureScore": {
          "value": 0.0
        }
      } ],
      "evaluatedResource": [ {
        "reference": "Patient/839d14a7-b370-4b12-b324-60a7a810b77c"
      }, {
        "reference": "Observation/f8fd7f45-72d9-4f69-a5a4-8d6f6f04fcc0"
      }, {
        "reference": "Observation/b8819765-ee53-414d-96b9-b4ccd8f8e890"
      }, {
        "reference": "Observation/c4177374-5301-4f98-85ec-964b924d8c7e"
      }, {
        "reference": "Observation/a087fe1e-5d3f-41ea-bfea-8b1b7ac39230"
      }, {
        "reference": "Encounter/b0580990-ae7c-4128-84c6-3c203e81a612"
      }, {
        "reference": "Coverage/5f5f9e471c76ba674bb032bf"
      }, {
        "reference": "Procedure/faf04605-faa1-4545-a9ef-3522efb85f22"
      }, {
        "reference": "Condition/d4b35009-8020-4187-80b1-020821811637"
      }, {
        "reference": "Organization/3c83022e-d7d2-47db-9716-861d61111cf5"
      }, {
        "reference": "Practitioner/8e8f1c4a-7988-43c9-8758-e450fe847367"
      } ]
    },
    "request": {
      "method": "PUT",
      "url": "MeasureReport/89dd8ac3-2d39-446e-9a62-e2d1f0a9af1d"
    }
  } ]
}