{
  "resourceType": "Bundle",
  "id": "tests-9baac6c5-1826-4c06-a4a4-6ef5bfda76ba-bundle",
  "type": "transaction",
  "entry": [ {
    "fullUrl": "https://madie.cms.gov/Encounter/fe68bef1-a8d0-4674-b60b-f32d41a1f5e9",
    "resource": {
      "resourceType": "Encounter",
      "id": "fe68bef1-a8d0-4674-b60b-f32d41a1f5e9",
      "meta": {
        "profile": [ "http://hl7.org/fhir/us/qicore/StructureDefinition/qicore-encounter" ]
      },
      "status": "finished",
      "class": {
        "system": "http://terminology.hl7.org/CodeSystem/v3-ActCode",
        "code": "EMER",
        "display": "emergency"
      },
      "type": [ {
        "coding": [ {
          "system": "http://snomed.info/sct",
          "code": "4525004"
        } ]
      } ],
      "subject": {
        "reference": "Patient/83920944-d004-4763-a21b-dbff77e4ef48"
      },
      "period": {
        "start": "2026-09-29T08:00:00.000+00:00",
        "end": "2026-09-30T20:00:00.000+00:00"
      }
    },
    "request": {
      "method": "PUT",
      "url": "Encounter/fe68bef1-a8d0-4674-b60b-f32d41a1f5e9"
    }
  }, {
    "fullUrl": "https://madie.cms.gov/Organization/44cebf6c-0db7-4803-9719-d1842968b647",
    "resource": {
      "resourceType": "Organization",
      "id": "44cebf6c-0db7-4803-9719-d1842968b647",
      "meta": {
        "profile": [ "http://hl7.org/fhir/us/qicore/StructureDefinition/qicore-organization" ]
      },
      "identifier": [ {
        "use": "temp",
        "system": "urn:oid:2.16.840.1.113883.4.4",
        "value": "21-3259825"
      } ],
      "active": true,
      "type": [ {
        "coding": [ {
          "system": "http://terminology.hl7.org/CodeSystem/organization-type",
          "code": "pay",
          "display": "Payer"
        } ]
      } ],
      "name": "Blue Cross Blue Shield of Texas",
      "telecom": [ {
        "system": "phone",
        "value": "(+1) 972-766-6900"
      } ],
      "address": [ {
        "use": "billing",
        "type": "postal",
        "line": [ "P.O. Box 660044" ],
        "city": "Dallas",
        "state": "TX",
        "postalCode": "75266-0044",
        "country": "USA"
      } ]
    },
    "request": {
      "method": "PUT",
      "url": "Organization/44cebf6c-0db7-4803-9719-d1842968b647"
    }
  }, {
    "fullUrl": "https://madie.cms.gov/Observation/4015c319-0607-4935-bf43-101f35aff834",
    "resource": {
      "resourceType": "Observation",
      "id": "4015c319-0607-4935-bf43-101f35aff834",
      "meta": {
        "profile": [ "http://hl7.org/fhir/us/qicore/StructureDefinition/qicore-observation-lab" ]
      },
      "status": "final",
      "category": [ {
        "coding": [ {
          "system": "http://terminology.hl7.org/CodeSystem/observation-category",
          "code": "laboratory",
          "display": "Laboratory"
        } ]
      } ],
      "code": {
        "coding": [ {
          "system": "http://loinc.org",
          "version": "2.72",
          "code": "2160-0",
          "display": "Creatinine [Mass/volume] in Serum or Plasma",
          "userSelected": true
        } ]
      },
      "subject": {
        "reference": "Patient/83920944-d004-4763-a21b-dbff77e4ef48"
      },
      "effectiveDateTime": "2026-10-02T08:00:00.000+00:00",
      "issued": "2026-10-02T08:30:00.000+00:00",
      "valueQuantity": {
        "value": 1.1,
        "unit": "mg/dL",
        "system": "http://unitsofmeasure.org",
        "code": "mg/dL"
      }
    },
    "request": {
      "method": "PUT",
      "url": "Observation/4015c319-0607-4935-bf43-101f35aff834"
    }
  }, {
    "fullUrl": "https://madie.cms.gov/Encounter/1745a23b-e80f-4a47-ac2b-91e108809a49",
    "resource": {
      "resourceType": "Encounter",
      "id": "1745a23b-e80f-4a47-ac2b-91e108809a49",
      "meta": {
        "profile": [ "http://hl7.org/fhir/us/qicore/StructureDefinition/qicore-encounter" ]
      },
      "status": "finished",
      "class": {
        "system": "http://terminology.hl7.org/CodeSystem/v3-ActCode",
        "code": "IMP",
        "display": "inpatient encounter"
      },
      "type": [ {
        "coding": [ {
          "system": "http://snomed.info/sct",
          "code": "183452005"
        } ]
      } ],
      "subject": {
        "reference": "Patient/83920944-d004-4763-a21b-dbff77e4ef48"
      },
      "period": {
        "start": "2026-09-29T20:00:00.000+00:00",
        "end": "2026-10-04T08:15:00.000+00:00"
      }
    },
    "request": {
      "method": "PUT",
      "url": "Encounter/1745a23b-e80f-4a47-ac2b-91e108809a49"
    }
  }, {
    "fullUrl": "https://madie.cms.gov/Observation/bbbd6f5f-d09d-4e23-8ba2-53d814fbb5d8",
    "resource": {
      "resourceType": "Observation",
      "id": "bbbd6f5f-d09d-4e23-8ba2-53d814fbb5d8",
      "meta": {
        "profile": [ "http://hl7.org/fhir/us/qicore/StructureDefinition/qicore-observation-lab" ]
      },
      "status": "final",
      "category": [ {
        "coding": [ {
          "system": "http://terminology.hl7.org/CodeSystem/observation-category",
          "code": "laboratory",
          "display": "Laboratory"
        } ]
      } ],
      "code": {
        "coding": [ {
          "system": "http://loinc.org",
          "version": "2.72",
          "code": "2160-0",
          "display": "Creatinine [Mass/volume] in Serum or Plasma",
          "userSelected": true
        } ]
      },
      "subject": {
        "reference": "Patient/83920944-d004-4763-a21b-dbff77e4ef48"
      },
      "effectiveDateTime": "2026-09-30T09:00:00.000+00:00",
      "issued": "2026-09-30T09:30:00.000+00:00",
      "valueQuantity": {
        "value": 1.1,
        "unit": "mg/dL",
        "system": "http://unitsofmeasure.org",
        "code": "mg/dL"
      }
    },
    "request": {
      "method": "PUT",
      "url": "Observation/bbbd6f5f-d09d-4e23-8ba2-53d814fbb5d8"
    }
  }, {
    "fullUrl": "https://madie.cms.gov/Observation/e4a2795b-8163-4ea9-9715-df3e40860f69",
    "resource": {
      "resourceType": "Observation",
      "id": "e4a2795b-8163-4ea9-9715-df3e40860f69",
      "meta": {
        "profile": [ "http://hl7.org/fhir/us/qicore/StructureDefinition/qicore-observation-lab" ]
      },
      "status": "final",
      "category": [ {
        "coding": [ {
          "system": "http://terminology.hl7.org/CodeSystem/observation-category",
          "code": "laboratory",
          "display": "Laboratory"
        } ]
      } ],
      "code": {
        "coding": [ {
          "system": "http://loinc.org",
          "code": "2160-0",
          "display": "Creatinine [Mass/volume] in Serum or Plasma"
        } ]
      },
      "subject": {
        "reference": "Patient/83920944-d004-4763-a21b-dbff77e4ef48"
      },
      "effectiveDateTime": "2026-10-03T08:00:00.000+00:00",
      "issued": "2026-10-03T08:30:00.000+00:00",
      "valueQuantity": {
        "value": 2,
        "unit": "mg/dL",
        "system": "http://unitsofmeasure.org",
        "code": "mg/dL"
      }
    },
    "request": {
      "method": "PUT",
      "url": "Observation/e4a2795b-8163-4ea9-9715-df3e40860f69"
    }
  }, {
    "fullUrl": "https://madie.cms.gov/Observation/f1baf83d-f4bf-4021-9f5a-a9ac88c4173a",
    "resource": {
      "resourceType": "Observation",
      "id": "f1baf83d-f4bf-4021-9f5a-a9ac88c4173a",
      "meta": {
        "profile": [ "http://hl7.org/fhir/us/qicore/StructureDefinition/qicore-observation-lab" ]
      },
      "status": "final",
      "category": [ {
        "coding": [ {
          "system": "http://terminology.hl7.org/CodeSystem/observation-category",
          "code": "laboratory",
          "display": "Laboratory"
        } ]
      } ],
      "code": {
        "coding": [ {
          "system": "http://loinc.org",
          "version": "2.72",
          "code": "2160-0",
          "display": "Creatinine [Mass/volume] in Serum or Plasma",
          "userSelected": true
        } ]
      },
      "subject": {
        "reference": "Patient/83920944-d004-4763-a21b-dbff77e4ef48"
      },
      "effectiveDateTime": "2026-09-30T08:00:00.000+00:00",
      "issued": "2026-09-30T08:30:00.000+00:00",
      "valueQuantity": {
        "value": 1,
        "unit": "mg/dL",
        "system": "http://unitsofmeasure.org",
        "code": "mg/dL"
      }
    },
    "request": {
      "method": "PUT",
      "url": "Observation/f1baf83d-f4bf-4021-9f5a-a9ac88c4173a"
    }
  }, {
    "fullUrl": "https://madie.cms.gov/Coverage/8cd4d4d3-f8c7-4790-a33b-34183533c99f",
    "resource": {
      "resourceType": "Coverage",
      "id": "8cd4d4d3-f8c7-4790-a33b-34183533c99f",
      "meta": {
        "profile": [ "http://hl7.org/fhir/us/qicore/StructureDefinition/qicore-coverage" ]
      },
      "status": "active",
      "type": {
        "coding": [ {
          "system": "https://nahdo.org/sopt",
          "version": "9.2",
          "code": "211",
          "display": "Medicaid HMO"
        } ]
      },
      "beneficiary": {
        "reference": "Patient/83920944-d004-4763-a21b-dbff77e4ef48"
      },
      "period": {
        "start": "2024-12-01T00:00:00.000+00:00"
      },
      "payor": [ {
        "reference": "Organization/44cebf6c-0db7-4803-9719-d1842968b647"
      } ]
    },
    "request": {
      "method": "PUT",
      "url": "Coverage/8cd4d4d3-f8c7-4790-a33b-34183533c99f"
    }
  }, {
    "fullUrl": "https://madie.cms.gov/Procedure/67093a82-08ec-4397-ae47-7900fdbcebb6",
    "resource": {
      "resourceType": "Procedure",
      "id": "67093a82-08ec-4397-ae47-7900fdbcebb6",
      "meta": {
        "profile": [ "http://hl7.org/fhir/us/qicore/StructureDefinition/qicore-procedure" ]
      },
      "status": "completed",
      "code": {
        "coding": [ {
          "system": "http://snomed.info/sct",
          "code": "11932001"
        } ]
      },
      "subject": {
        "reference": "Patient/83920944-d004-4763-a21b-dbff77e4ef48"
      },
      "performedDateTime": "2026-09-30T08:30:00.000+00:00",
      "performer": [ {
        "actor": {
          "reference": "Organization/44cebf6c-0db7-4803-9719-d1842968b647"
        }
      } ]
    },
    "request": {
      "method": "PUT",
      "url": "Procedure/67093a82-08ec-4397-ae47-7900fdbcebb6"
    }
  }, {
    "fullUrl": "https://madie.cms.gov/Patient/83920944-d004-4763-a21b-dbff77e4ef48",
    "resource": {
      "resourceType": "Patient",
      "id": "83920944-d004-4763-a21b-dbff77e4ef48",
      "meta": {
        "profile": [ "http://hl7.org/fhir/us/qicore/StructureDefinition/qicore-patient" ]
      },
      "text": {
        "status": "generated",
        "div": "<div xmlns=\"http://www.w3.org/1999/xhtml\"><div class=\"hapiHeaderText\">Turns 18 day of Encounter <b>NUMERPass </b></div><table class=\"hapiPropertyTable\"><tbody><tr><td>Identifier</td><td>f0eda1c9668fdacdcad3378589bf6e0a71e7dec1618f14fca4d442ec96e402b1</td></tr><tr><td>Date of birth</td><td><span>29 September 2006</span></td></tr></tbody></table></div>"
      },
      "extension": [ {
        "url": "http://hl7.org/fhir/us/core/StructureDefinition/us-core-race",
        "extension": [ {
          "url": "ombCategory",
          "valueCoding": {
            "system": "urn:oid:2.16.840.1.113883.6.238",
            "code": "1002-5",
            "display": "American Indian or Alaska Native",
            "userSelected": true
          }
        }, {
          "url": "text",
          "valueString": "American Indian or Alaska Native"
        } ]
      }, {
        "url": "http://hl7.org/fhir/us/core/StructureDefinition/us-core-ethnicity",
        "extension": [ {
          "url": "ombCategory",
          "valueCoding": {
            "system": "urn:oid:2.16.840.1.113883.6.238",
            "code": "2135-2",
            "display": "Hispanic or Latino",
            "userSelected": true
          }
        }, {
          "url": "text",
          "valueString": "Hispanic or Latino"
        } ]
      }, {
        "url": "http://hl7.org/fhir/us/core/StructureDefinition/us-core-sex",
        "valueCode": "248152002"
      } ],
      "identifier": [ {
        "type": {
          "coding": [ {
            "system": "http://terminology.hl7.org/CodeSystem/v2-0203",
            "code": "MR"
          } ]
        },
        "system": "http://bonnie-fhir.healthit.gov/",
        "value": "NUMERPass-SCrIncrease2x"
      } ],
      "active": true,
      "name": [ {
        "use": "usual",
        "family": "NUMERPass",
        "given": [ "SCrIncrease2x" ]
      } ],
      "gender": "female",
      "birthDate": "1983-10-10"
    },
    "request": {
      "method": "PUT",
      "url": "Patient/83920944-d004-4763-a21b-dbff77e4ef48"
    }
  }, {
    "fullUrl": "https://madie.cms.gov/MeasureReport/a2b2eabe-0466-42ad-b4f9-1aa82b4c1f88",
    "resource": {
      "resourceType": "MeasureReport",
      "id": "a2b2eabe-0466-42ad-b4f9-1aa82b4c1f88",
      "meta": {
        "profile": [ "http://hl7.org/fhir/us/cqfmeasures/StructureDefinition/test-case-cqfm" ]
      },
      "contained": [ {
        "resourceType": "Parameters",
        "id": "af6fe1e7-ff5b-4c60-a009-9589de12450c-parameters",
        "parameter": [ {
          "name": "subject",
          "valueString": "83920944-d004-4763-a21b-dbff77e4ef48"
        } ]
      } ],
      "extension": [ {
        "url": "http://hl7.org/fhir/StructureDefinition/cqf-inputParameters",
        "valueReference": {
          "reference": "#af6fe1e7-ff5b-4c60-a009-9589de12450c-parameters"
        }
      }, {
        "url": "http://hl7.org/fhir/us/cqfmeasures/StructureDefinition/cqfm-testCaseDescription",
        "valueMarkdown": "Encounter with multiple create with no 2x increase and dialysis less than 48hours\n\n"
      } ],
      "modifierExtension": [ {
        "url": "http://hl7.org/fhir/us/cqfmeasures/StructureDefinition/cqfm-isTestCase",
        "valueBoolean": true
      } ],
      "status": "complete",
      "type": "individual",
      "measure": "https://madie.cms.gov/Measure/CMS832FHIRHHAKI",
      "period": {
        "start": "2026-01-01",
        "end": "2026-12-31"
      },
      "group": [ {
        "id": "Group_1",
        "population": [ {
          "id": "InitialPopulation_1",
          "code": {
            "coding": [ {
              "system": "http://terminology.hl7.org/CodeSystem/measure-population",
              "code": "initial-population",
              "display": "Initial Population"
            } ]
          },
          "count": 1
        }, {
          "id": "Denominator_1",
          "code": {
            "coding": [ {
              "system": "http://terminology.hl7.org/CodeSystem/measure-population",
              "code": "denominator",
              "display": "Denominator"
            } ]
          },
          "count": 1
        }, {
          "id": "DenominatorExclusion_1",
          "code": {
            "coding": [ {
              "system": "http://terminology.hl7.org/CodeSystem/measure-population",
              "code": "denominator-exclusion",
              "display": "Denominator Exclusion"
            } ]
          },
          "count": 0
        }, {
          "id": "Numerator_1",
          "code": {
            "coding": [ {
              "system": "http://terminology.hl7.org/CodeSystem/measure-population",
              "code": "numerator",
              "display": "Numerator"
            } ]
          },
          "count": 1
        } ],
        "measureScore": {
          "value": 0.0
        }
      } ],
      "evaluatedResource": [ {
        "reference": "Encounter/fe68bef1-a8d0-4674-b60b-f32d41a1f5e9"
      }, {
        "reference": "Organization/44cebf6c-0db7-4803-9719-d1842968b647"
      }, {
        "reference": "Observation/4015c319-0607-4935-bf43-101f35aff834"
      }, {
        "reference": "Encounter/1745a23b-e80f-4a47-ac2b-91e108809a49"
      }, {
        "reference": "Observation/bbbd6f5f-d09d-4e23-8ba2-53d814fbb5d8"
      }, {
        "reference": "Observation/e4a2795b-8163-4ea9-9715-df3e40860f69"
      }, {
        "reference": "Observation/f1baf83d-f4bf-4021-9f5a-a9ac88c4173a"
      }, {
        "reference": "Coverage/8cd4d4d3-f8c7-4790-a33b-34183533c99f"
      }, {
        "reference": "Procedure/67093a82-08ec-4397-ae47-7900fdbcebb6"
      }, {
        "reference": "Patient/83920944-d004-4763-a21b-dbff77e4ef48"
      } ]
    },
    "request": {
      "method": "PUT",
      "url": "MeasureReport/a2b2eabe-0466-42ad-b4f9-1aa82b4c1f88"
    }
  } ]
}