{
  "resourceType": "Bundle",
  "id": "63236cd48d26c655c5601f06",
  "type": "transaction",
  "entry": [ {
    "fullUrl": "https://madie.cms.gov/Patient/dde136d4-fa51-4b59-9bef-21dc51caf3d5",
    "resource": {
      "resourceType": "Patient",
      "id": "dde136d4-fa51-4b59-9bef-21dc51caf3d5",
      "meta": {
        "profile": [ "http://hl7.org/fhir/us/qicore/StructureDefinition/qicore-patient" ]
      },
      "extension": [ {
        "url": "http://hl7.org/fhir/us/core/StructureDefinition/us-core-race",
        "extension": [ {
          "url": "ombCategory",
          "valueCoding": {
            "system": "urn:oid:2.16.840.1.113883.6.238",
            "code": "1002-5",
            "display": "American Indian or Alaska Native",
            "userSelected": true
          }
        }, {
          "url": "text",
          "valueString": "American Indian or Alaska Native"
        } ]
      }, {
        "url": "http://hl7.org/fhir/us/core/StructureDefinition/us-core-ethnicity",
        "extension": [ {
          "url": "ombCategory",
          "valueCoding": {
            "system": "urn:oid:2.16.840.1.113883.6.238",
            "code": "2135-2",
            "display": "Hispanic or Latino",
            "userSelected": true
          }
        }, {
          "url": "text",
          "valueString": "Hispanic or Latino"
        } ]
      } ],
      "identifier": [ {
        "system": "http://hospital.smarthealthit.org",
        "value": "999999999"
      } ],
      "name": [ {
        "family": "NUMERFail",
        "given": [ "2Opioids1MissingCategory" ]
      } ],
      "gender": "male",
      "birthDate": "2006-12-31"
    },
    "request": {
      "method": "PUT",
      "url": "Patient/dde136d4-fa51-4b59-9bef-21dc51caf3d5"
    }
  }, {
    "fullUrl": "https://madie.cms.gov/Encounter/12f40ada-9ecd-41e4-88d2-1b8e0f3705c3",
    "resource": {
      "resourceType": "Encounter",
      "id": "12f40ada-9ecd-41e4-88d2-1b8e0f3705c3",
      "meta": {
        "profile": [ "http://hl7.org/fhir/us/qicore/StructureDefinition/qicore-encounter" ]
      },
      "status": "finished",
      "class": {
        "system": "http://terminology.hl7.org/CodeSystem/v3-ActCode",
        "code": "IMP",
        "display": "inpatient encounter"
      },
      "type": [ {
        "coding": [ {
          "system": "http://snomed.info/sct",
          "code": "183452005",
          "display": "Emergency hospital admission (procedure)",
          "userSelected": true
        } ]
      } ],
      "subject": {
        "reference": "Patient/dde136d4-fa51-4b59-9bef-21dc51caf3d5"
      },
      "period": {
        "start": "2026-01-01T00:00:00.000+00:00",
        "end": "2026-01-03T00:30:00.000+00:00"
      }
    },
    "request": {
      "method": "PUT",
      "url": "Encounter/12f40ada-9ecd-41e4-88d2-1b8e0f3705c3"
    }
  }, {
    "fullUrl": "https://madie.cms.gov/MedicationRequest/cddabf7f-4f05-4697-acc2-d176a1c04ef3",
    "resource": {
      "resourceType": "MedicationRequest",
      "id": "cddabf7f-4f05-4697-acc2-d176a1c04ef3",
      "meta": {
        "profile": [ "http://hl7.org/fhir/us/qicore/StructureDefinition/qicore-medicationrequest" ]
      },
      "status": "active",
      "intent": "order",
      "category": [ {
        "coding": [ {
          "system": "http://terminology.hl7.org/CodeSystem/medicationrequest-category",
          "code": "discharge",
          "display": "Discharge",
          "userSelected": true
        } ]
      } ],
      "doNotPerform": false,
      "medicationCodeableConcept": {
        "coding": [ {
          "system": "http://www.nlm.nih.gov/research/umls/rxnorm",
          "code": "1014632",
          "display": "acetaminophen 300 MG / oxycodone hydrochloride 7.5 MG Oral Tablet",
          "userSelected": true
        } ]
      },
      "subject": {
        "reference": "Patient/dde136d4-fa51-4b59-9bef-21dc51caf3d5"
      },
      "authoredOn": "2026-01-03T00:30:00.000+00:00",
      "requester": {
        "reference": "Practitioner/f0e7445a-d372-411c-ab68-f1ef577b67e0"
      }
    },
    "request": {
      "method": "PUT",
      "url": "MedicationRequest/cddabf7f-4f05-4697-acc2-d176a1c04ef3"
    }
  }, {
    "fullUrl": "https://madie.cms.gov/Practitioner/f0e7445a-d372-411c-ab68-f1ef577b67e0",
    "resource": {
      "resourceType": "Practitioner",
      "id": "f0e7445a-d372-411c-ab68-f1ef577b67e0",
      "meta": {
        "profile": [ "http://hl7.org/fhir/us/qicore/StructureDefinition/qicore-practitioner" ]
      },
      "identifier": [ {
        "system": "http://hl7.org/fhir/sid/us-npi",
        "value": "9999999896"
      } ],
      "active": true,
      "name": [ {
        "family": "Ramires",
        "given": [ "Alma" ],
        "prefix": [ "Dr" ]
      } ],
      "address": [ {
        "use": "home",
        "line": [ "534 Erewhon St" ],
        "city": "Netherville",
        "state": "IN",
        "postalCode": "46131"
      } ],
      "qualification": [ {
        "identifier": [ {
          "system": "http://goodhealth.org/prIdentifier",
          "value": "12345"
        } ],
        "code": {
          "coding": [ {
            "system": "http://terminology.hl7.org/CodeSystem/v2-0360|2.7",
            "code": "BS",
            "display": "Bachelor of Science"
          } ],
          "text": "Bachelor of Science"
        },
        "period": {
          "start": "1995"
        },
        "issuer": {
          "display": "Example University"
        }
      } ]
    },
    "request": {
      "method": "PUT",
      "url": "Practitioner/f0e7445a-d372-411c-ab68-f1ef577b67e0"
    }
  }, {
    "fullUrl": "https://madie.cms.gov/MedicationRequest/cddabf7f-4f05-4697-acc2-d176a1c04ef32",
    "resource": {
      "resourceType": "MedicationRequest",
      "id": "cddabf7f-4f05-4697-acc2-d176a1c04ef32",
      "meta": {
        "profile": [ "http://hl7.org/fhir/us/qicore/StructureDefinition/qicore-medicationrequest" ]
      },
      "status": "active",
      "intent": "order",
      "doNotPerform": false,
      "medicationCodeableConcept": {
        "coding": [ {
          "system": "http://www.nlm.nih.gov/research/umls/rxnorm",
          "code": "1014599",
          "display": "acetaminophen 300 MG / oxycodone hydrochloride 10 MG Oral Tablet",
          "userSelected": true
        } ]
      },
      "subject": {
        "reference": "Patient/dde136d4-fa51-4b59-9bef-21dc51caf3d5"
      },
      "authoredOn": "2026-01-03T00:25:00.000+00:00",
      "requester": {
        "reference": "Practitioner/f0e7445a-d372-411c-ab68-f1ef577b67e0"
      }
    },
    "request": {
      "method": "PUT",
      "url": "MedicationRequest/cddabf7f-4f05-4697-acc2-d176a1c04ef32"
    }
  }, {
    "fullUrl": "https://madie.cms.gov/Coverage/cfa19f1e-5b49-4ac3-9354-75214ffc4bff",
    "resource": {
      "resourceType": "Coverage",
      "id": "cfa19f1e-5b49-4ac3-9354-75214ffc4bff",
      "meta": {
        "profile": [ "http://hl7.org/fhir/us/qicore/StructureDefinition/qicore-coverage" ]
      },
      "status": "active",
      "subscriberId": "523435",
      "beneficiary": {
        "reference": "Patient/dde136d4-fa51-4b59-9bef-21dc51caf3d5"
      },
      "relationship": {
        "coding": [ {
          "system": "http://terminology.hl7.org/CodeSystem/subscriber-relationship",
          "code": "self"
        } ]
      },
      "payor": [ {
        "reference": "Organization/3ce90d7d-2626-42d9-a051-98928b43fd99"
      } ]
    },
    "request": {
      "method": "PUT",
      "url": "Coverage/cfa19f1e-5b49-4ac3-9354-75214ffc4bff"
    }
  }, {
    "fullUrl": "https://madie.cms.gov/Organization/3ce90d7d-2626-42d9-a051-98928b43fd99",
    "resource": {
      "resourceType": "Organization",
      "id": "3ce90d7d-2626-42d9-a051-98928b43fd99",
      "meta": {
        "profile": [ "http://hl7.org/fhir/us/qicore/StructureDefinition/qicore-organization" ]
      },
      "identifier": [ {
        "use": "temp",
        "system": "urn:oid:2.16.840.1.113883.4.4",
        "value": "21-3259825"
      } ],
      "active": true,
      "type": [ {
        "coding": [ {
          "system": "http://terminology.hl7.org/CodeSystem/organization-type",
          "code": "pay",
          "display": "Payer"
        } ]
      } ],
      "name": "Blue Cross Blue Shield of Texas",
      "telecom": [ {
        "system": "phone",
        "value": "(+1) 972-766-6900"
      } ],
      "address": [ {
        "use": "billing",
        "type": "postal",
        "line": [ "P.O. Box 660044" ],
        "city": "Dallas",
        "state": "TX",
        "postalCode": "75266-0044",
        "country": "USA"
      } ]
    },
    "request": {
      "method": "PUT",
      "url": "Organization/3ce90d7d-2626-42d9-a051-98928b43fd99"
    }
  }, {
    "fullUrl": "https://madie.cms.gov/MeasureReport/c252a399-a9ee-471b-accf-a37c75bc3578",
    "resource": {
      "resourceType": "MeasureReport",
      "id": "c252a399-a9ee-471b-accf-a37c75bc3578",
      "meta": {
        "profile": [ "http://hl7.org/fhir/us/cqfmeasures/StructureDefinition/test-case-cqfm" ]
      },
      "contained": [ {
        "resourceType": "Parameters",
        "id": "a50f92da-5b34-43bf-ad96-29e96383cf36-parameters",
        "parameter": [ {
          "name": "subject",
          "valueString": "dde136d4-fa51-4b59-9bef-21dc51caf3d5"
        } ]
      } ],
      "extension": [ {
        "url": "http://hl7.org/fhir/StructureDefinition/cqf-inputParameters",
        "valueReference": {
          "reference": "#a50f92da-5b34-43bf-ad96-29e96383cf36-parameters"
        }
      }, {
        "url": "http://hl7.org/fhir/us/cqfmeasures/StructureDefinition/cqfm-testCaseDescription",
        "valueMarkdown": "Encounter 1/1 - 1/3, age 18 one day before MP, 2 distinct opioids, 1 with missing category (MedicationRequest-2)"
      } ],
      "modifierExtension": [ {
        "url": "http://hl7.org/fhir/us/cqfmeasures/StructureDefinition/cqfm-isTestCase",
        "valueBoolean": true
      } ],
      "status": "complete",
      "type": "individual",
      "measure": "https://madie.cms.gov/Measure/CMS506FHIRSafeUseofOpioids",
      "period": {
        "start": "2026-01-01",
        "end": "2026-12-31"
      },
      "group": [ {
        "id": "Group_1",
        "population": [ {
          "id": "InitialPopulation_1",
          "code": {
            "coding": [ {
              "system": "http://terminology.hl7.org/CodeSystem/measure-population",
              "code": "initial-population",
              "display": "Initial Population"
            } ]
          },
          "count": 1
        }, {
          "id": "Denominator_1",
          "code": {
            "coding": [ {
              "system": "http://terminology.hl7.org/CodeSystem/measure-population",
              "code": "denominator",
              "display": "Denominator"
            } ]
          },
          "count": 1
        }, {
          "id": "DenominatorExclusion_1",
          "code": {
            "coding": [ {
              "system": "http://terminology.hl7.org/CodeSystem/measure-population",
              "code": "denominator-exclusion",
              "display": "Denominator Exclusion"
            } ]
          },
          "count": 0
        }, {
          "id": "Numerator_1",
          "code": {
            "coding": [ {
              "system": "http://terminology.hl7.org/CodeSystem/measure-population",
              "code": "numerator",
              "display": "Numerator"
            } ]
          },
          "count": 0
        } ],
        "measureScore": {
          "value": 0.0
        }
      } ],
      "evaluatedResource": [ {
        "reference": "Patient/dde136d4-fa51-4b59-9bef-21dc51caf3d5"
      }, {
        "reference": "Encounter/12f40ada-9ecd-41e4-88d2-1b8e0f3705c3"
      }, {
        "reference": "MedicationRequest/cddabf7f-4f05-4697-acc2-d176a1c04ef3"
      }, {
        "reference": "Practitioner/f0e7445a-d372-411c-ab68-f1ef577b67e0"
      }, {
        "reference": "MedicationRequest/cddabf7f-4f05-4697-acc2-d176a1c04ef32"
      }, {
        "reference": "Coverage/cfa19f1e-5b49-4ac3-9354-75214ffc4bff"
      }, {
        "reference": "Organization/3ce90d7d-2626-42d9-a051-98928b43fd99"
      } ]
    },
    "request": {
      "method": "PUT",
      "url": "MeasureReport/c252a399-a9ee-471b-accf-a37c75bc3578"
    }
  } ]
}