{
  "resourceType": "Bundle",
  "id": "6499d99e1037008f66e1d7e4",
  "type": "collection",
  "entry": [ {
    "fullUrl": "https://madie.cms.gov/Patient/6e36591c-d366-4dc0-b1b4-4b939b920a85",
    "resource": {
      "resourceType": "Patient",
      "id": "6e36591c-d366-4dc0-b1b4-4b939b920a85",
      "meta": {
        "profile": [ "http://hl7.org/fhir/us/qicore/StructureDefinition/qicore-patient" ]
      },
      "extension": [ {
        "url": "http://hl7.org/fhir/us/core/StructureDefinition/us-core-race",
        "extension": [ {
          "url": "ombCategory",
          "valueCoding": {
            "system": "urn:oid:2.16.840.1.113883.6.238",
            "code": "2106-3",
            "display": "White",
            "userSelected": true
          }
        }, {
          "url": "text",
          "valueString": "White"
        } ]
      }, {
        "url": "http://hl7.org/fhir/us/core/StructureDefinition/us-core-ethnicity",
        "extension": [ {
          "url": "ombCategory",
          "valueCoding": {
            "system": "urn:oid:2.16.840.1.113883.6.238",
            "code": "2186-5",
            "display": "Not Hispanic or Latino",
            "userSelected": true
          }
        }, {
          "url": "text",
          "valueString": "Not Hispanic or Latino"
        } ]
      } ],
      "identifier": [ {
        "type": {
          "coding": [ {
            "system": "http://terminology.hl7.org/CodeSystem/v2-0203",
            "code": "MR"
          } ]
        },
        "system": "https://bonnie-fhir.healthit.gov/",
        "value": "6499d99e1037008f66e1d7e4"
      } ],
      "name": [ {
        "family": "NumPass",
        "given": [ "TestDuringMPResultDRCNotDetectedRelevantdateTime" ]
      } ],
      "gender": "female",
      "birthDate": "1987-05-25"
    }
  }, {
    "fullUrl": "https://madie.cms.gov/Condition/42b4cf3b-7cd7-4859-85a4-1cd240b07052",
    "resource": {
      "resourceType": "Condition",
      "id": "42b4cf3b-7cd7-4859-85a4-1cd240b07052",
      "meta": {
        "profile": [ "http://hl7.org/fhir/us/qicore/StructureDefinition/qicore-condition-problems-health-concerns" ]
      },
      "clinicalStatus": {
        "coding": [ {
          "system": "http://terminology.hl7.org/CodeSystem/condition-clinical",
          "code": "active",
          "display": "active",
          "userSelected": true
        } ]
      },
      "category": [ {
        "coding": [ {
          "system": "http://terminology.hl7.org/CodeSystem/condition-category",
          "code": "problem-list-item",
          "display": "Problem List Item"
        } ]
      } ],
      "code": {
        "coding": [ {
          "system": "http://hl7.org/fhir/sid/icd-9-cm",
          "version": "2013",
          "code": "042",
          "display": "Human immunodeficiency virus [HIV] disease",
          "userSelected": true
        }, {
          "system": "http://snomed.info/sct",
          "version": "http://snomed.info/sct/731000124108/version/20250301",
          "code": "165816005",
          "userSelected": true
        } ]
      },
      "subject": {
        "reference": "Patient/6e36591c-d366-4dc0-b1b4-4b939b920a85"
      },
      "onsetDateTime": "2020-12-02T12:00:00.000+00:00",
      "recordedDate": "2020-12-02T12:00:00.000+00:00"
    }
  }, {
    "fullUrl": "https://madie.cms.gov/Encounter/728b6462-66af-4748-bd4d-901f5eb91567",
    "resource": {
      "resourceType": "Encounter",
      "id": "728b6462-66af-4748-bd4d-901f5eb91567",
      "meta": {
        "profile": [ "http://hl7.org/fhir/us/qicore/StructureDefinition/qicore-encounter" ]
      },
      "status": "finished",
      "class": {
        "system": "http://terminology.hl7.org/CodeSystem/v3-ActCode",
        "code": "AMB",
        "display": "ambulatory"
      },
      "type": [ {
        "coding": [ {
          "system": "http://www.ama-assn.org/go/cpt",
          "code": "99386",
          "userSelected": true
        } ]
      } ],
      "subject": {
        "reference": "Patient/6e36591c-d366-4dc0-b1b4-4b939b920a85"
      },
      "period": {
        "start": "2026-08-29T15:02:00.000+00:00",
        "end": "2026-08-29T15:55:00.000+00:00"
      }
    }
  }, {
    "fullUrl": "https://madie.cms.gov/Observation/70e53986-24c2-4a80-be9f-a999f2c85751",
    "resource": {
      "resourceType": "Observation",
      "id": "70e53986-24c2-4a80-be9f-a999f2c85751",
      "meta": {
        "profile": [ "http://hl7.org/fhir/us/qicore/StructureDefinition/qicore-observation-lab" ]
      },
      "status": "final",
      "category": [ {
        "coding": [ {
          "system": "http://terminology.hl7.org/CodeSystem/observation-category",
          "code": "laboratory",
          "display": "Laboratory"
        } ]
      }, {
        "coding": [ {
          "system": "http://terminology.hl7.org/CodeSystem/observation-category",
          "code": "survey"
        } ]
      } ],
      "code": {
        "coding": [ {
          "system": "http://loinc.org",
          "version": "2.73",
          "code": "10351-5",
          "display": "HIV 1 RNA [Units/volume] (viral load) in Serum or Plasma by Probe with amplification",
          "userSelected": true
        } ]
      },
      "subject": {
        "reference": "Patient/6e36591c-d366-4dc0-b1b4-4b939b920a85"
      },
      "effectiveDateTime": "2026-08-07T08:02:00.000+00:00",
      "issued": "2026-08-07T08:02:00.000+00:00",
      "valueCodeableConcept": {
        "coding": [ {
          "system": "http://snomed.info/sct",
          "code": "260415000",
          "display": "Not detected (qualifier value)",
          "userSelected": true
        } ]
      }
    }
  }, {
    "fullUrl": "https://madie.cms.gov/Coverage/c7c1cd1a-4274-483a-ad90-499a3a4a0763",
    "resource": {
      "resourceType": "Coverage",
      "id": "c7c1cd1a-4274-483a-ad90-499a3a4a0763",
      "meta": {
        "profile": [ "http://hl7.org/fhir/us/qicore/StructureDefinition/qicore-coverage" ]
      },
      "status": "active",
      "subscriberId": "123456",
      "beneficiary": {
        "reference": "Patient/6e36591c-d366-4dc0-b1b4-4b939b920a85"
      },
      "relationship": {
        "coding": [ {
          "system": "http://terminology.hl7.org/CodeSystem/subscriber-relationship",
          "code": "self",
          "display": "Self"
        } ]
      },
      "payor": [ {
        "reference": "Organization/707acf4d-fb8f-4c69-88e8-2e7760b0a80f"
      } ]
    }
  }, {
    "fullUrl": "https://madie.cms.gov/Organization/707acf4d-fb8f-4c69-88e8-2e7760b0a80f",
    "resource": {
      "resourceType": "Organization",
      "id": "707acf4d-fb8f-4c69-88e8-2e7760b0a80f",
      "meta": {
        "profile": [ "http://hl7.org/fhir/us/qicore/StructureDefinition/qicore-organization" ]
      },
      "identifier": [ {
        "use": "temp",
        "system": "urn:oid:2.16.840.1.113883.4.4",
        "value": "21-3259825"
      } ],
      "active": true,
      "type": [ {
        "coding": [ {
          "system": "http://terminology.hl7.org/CodeSystem/organization-type",
          "code": "pay",
          "display": "Payer"
        } ]
      } ],
      "name": "Blue Cross Blue Shield of Texas",
      "telecom": [ {
        "system": "phone",
        "value": "(+1) 972-766-6900"
      } ],
      "address": [ {
        "use": "billing",
        "type": "postal",
        "line": [ "P.O. Box 660044" ],
        "city": "Dallas",
        "state": "TX",
        "postalCode": "75266-0044",
        "country": "USA"
      } ]
    }
  }, {
    "fullUrl": "https://madie.cms.gov/Practitioner/43e041be-7f9a-478e-843f-0991470ca5bb",
    "resource": {
      "resourceType": "Practitioner",
      "id": "43e041be-7f9a-478e-843f-0991470ca5bb",
      "meta": {
        "profile": [ "http://hl7.org/fhir/us/qicore/StructureDefinition/qicore-practitioner" ]
      },
      "identifier": [ {
        "system": "http://hl7.org/fhir/sid/us-npi",
        "value": "1689411712"
      } ],
      "name": [ {
        "family": "Evil",
        "prefix": [ "Dr" ]
      } ]
    }
  }, {
    "fullUrl": "https://madie.cms.gov/MeasureReport/74536f51-6896-4cbe-aee1-85e3259e32aa",
    "resource": {
      "resourceType": "MeasureReport",
      "id": "74536f51-6896-4cbe-aee1-85e3259e32aa",
      "meta": {
        "profile": [ "http://hl7.org/fhir/us/cqfmeasures/StructureDefinition/test-case-cqfm" ]
      },
      "contained": [ {
        "resourceType": "Parameters",
        "id": "2696f003-45b6-43b8-ac6e-b5228d955faa-parameters",
        "parameter": [ {
          "name": "subject",
          "valueString": "6e36591c-d366-4dc0-b1b4-4b939b920a85"
        } ]
      } ],
      "extension": [ {
        "url": "http://hl7.org/fhir/StructureDefinition/cqf-inputParameters",
        "valueReference": {
          "reference": "#2696f003-45b6-43b8-ac6e-b5228d955faa-parameters"
        }
      }, {
        "url": "http://hl7.org/fhir/us/cqfmeasures/StructureDefinition/cqfm-testCaseDescription",
        "valueMarkdown": "Patient with a diagnosis of HIV years before start of the MP and a qualifying encounter on inside 240 day edge of the MP AND a viral load test during the MP with a result using DRC Not Detected"
      } ],
      "modifierExtension": [ {
        "url": "http://hl7.org/fhir/us/cqfmeasures/StructureDefinition/cqfm-isTestCase",
        "valueBoolean": true
      } ],
      "status": "complete",
      "type": "individual",
      "measure": "https://madie.cms.gov/Measure/CMS314FHIRHIVViralSuppression",
      "period": {
        "start": "2026-01-01",
        "end": "2026-12-31"
      },
      "group": [ {
        "id": "Group_1",
        "population": [ {
          "id": "InitialPopulation_1",
          "code": {
            "coding": [ {
              "system": "http://terminology.hl7.org/CodeSystem/measure-population",
              "code": "initial-population",
              "display": "Initial Population"
            } ]
          },
          "count": 1
        }, {
          "id": "Denominator_1",
          "code": {
            "coding": [ {
              "system": "http://terminology.hl7.org/CodeSystem/measure-population",
              "code": "denominator",
              "display": "Denominator"
            } ]
          },
          "count": 1
        }, {
          "id": "Numerator_1",
          "code": {
            "coding": [ {
              "system": "http://terminology.hl7.org/CodeSystem/measure-population",
              "code": "numerator",
              "display": "Numerator"
            } ]
          },
          "count": 1
        } ],
        "measureScore": {
          "value": 1.0
        }
      } ],
      "evaluatedResource": [ {
        "reference": "Patient/6e36591c-d366-4dc0-b1b4-4b939b920a85"
      }, {
        "reference": "Condition/42b4cf3b-7cd7-4859-85a4-1cd240b07052"
      }, {
        "reference": "Encounter/728b6462-66af-4748-bd4d-901f5eb91567"
      }, {
        "reference": "Observation/70e53986-24c2-4a80-be9f-a999f2c85751"
      }, {
        "reference": "Coverage/c7c1cd1a-4274-483a-ad90-499a3a4a0763"
      }, {
        "reference": "Organization/707acf4d-fb8f-4c69-88e8-2e7760b0a80f"
      }, {
        "reference": "Practitioner/43e041be-7f9a-478e-843f-0991470ca5bb"
      } ]
    }
  } ]
}