{
  "resourceType": "Bundle",
  "id": "64a2fc596bc362e28fa378c1",
  "type": "collection",
  "entry": [ {
    "fullUrl": "https://madie.cms.gov/Patient/77973e2d-625a-4c4f-aa69-2c716af0ad3c",
    "resource": {
      "resourceType": "Patient",
      "id": "77973e2d-625a-4c4f-aa69-2c716af0ad3c",
      "meta": {
        "profile": [ "http://hl7.org/fhir/us/qicore/StructureDefinition/qicore-patient" ]
      },
      "extension": [ {
        "url": "http://hl7.org/fhir/us/core/StructureDefinition/us-core-race",
        "extension": [ {
          "url": "ombCategory",
          "valueCoding": {
            "system": "urn:oid:2.16.840.1.113883.6.238",
            "code": "2054-5",
            "display": "Black or African American",
            "userSelected": true
          }
        }, {
          "url": "text",
          "valueString": "Black or African American"
        } ]
      }, {
        "url": "http://hl7.org/fhir/us/core/StructureDefinition/us-core-ethnicity",
        "extension": [ {
          "url": "ombCategory",
          "valueCoding": {
            "system": "urn:oid:2.16.840.1.113883.6.238",
            "code": "2186-5",
            "display": "Not Hispanic or Latino",
            "userSelected": true
          }
        }, {
          "url": "text",
          "valueString": "Not Hispanic or Latino"
        } ]
      } ],
      "identifier": [ {
        "type": {
          "coding": [ {
            "system": "http://terminology.hl7.org/CodeSystem/v2-0203",
            "code": "MR"
          } ]
        },
        "system": "https://bonnie-fhir.healthit.gov/",
        "value": "64a2fc596bc362e28fa378c1"
      } ],
      "name": [ {
        "family": "NumPass",
        "given": [ "AllLabTestsTestingrelevantPeriodMissingEnddatetime" ]
      } ],
      "gender": "female",
      "birthDate": "2001-02-04"
    }
  }, {
    "fullUrl": "https://madie.cms.gov/Condition/5738c944-e716-49b8-8015-c069d868d65e",
    "resource": {
      "resourceType": "Condition",
      "id": "5738c944-e716-49b8-8015-c069d868d65e",
      "meta": {
        "profile": [ "http://hl7.org/fhir/us/qicore/StructureDefinition/qicore-condition-problems-health-concerns" ]
      },
      "clinicalStatus": {
        "coding": [ {
          "system": "http://terminology.hl7.org/CodeSystem/condition-clinical",
          "code": "active",
          "display": "active",
          "userSelected": true
        } ]
      },
      "category": [ {
        "coding": [ {
          "system": "http://terminology.hl7.org/CodeSystem/condition-category",
          "code": "problem-list-item",
          "display": "Problem List Item"
        } ]
      } ],
      "code": {
        "coding": [ {
          "system": "http://hl7.org/fhir/sid/icd-9-cm",
          "version": "2013",
          "code": "042",
          "display": "Human immunodeficiency virus [HIV] disease",
          "userSelected": true
        }, {
          "system": "http://snomed.info/sct",
          "version": "http://snomed.info/sct/731000124108/version/20250301",
          "code": "165816005",
          "userSelected": true
        } ]
      },
      "subject": {
        "reference": "Patient/77973e2d-625a-4c4f-aa69-2c716af0ad3c"
      },
      "onsetDateTime": "2018-09-28T08:00:00.000+00:00",
      "recordedDate": "2018-09-28T08:00:00.000+00:00"
    }
  }, {
    "fullUrl": "https://madie.cms.gov/Encounter/4a4d604e-5962-40d8-9ff8-850d86ca2583",
    "resource": {
      "resourceType": "Encounter",
      "id": "4a4d604e-5962-40d8-9ff8-850d86ca2583",
      "meta": {
        "profile": [ "http://hl7.org/fhir/us/qicore/StructureDefinition/qicore-encounter" ]
      },
      "status": "finished",
      "class": {
        "system": "http://terminology.hl7.org/CodeSystem/v3-ActCode",
        "code": "AMB",
        "display": "ambulatory"
      },
      "type": [ {
        "coding": [ {
          "system": "http://www.ama-assn.org/go/cpt",
          "version": "2023",
          "code": "99391",
          "display": "Periodic comprehensive preventive medicine reevaluation and management of an individual including an age and gender appropriate history, examination, counseling/anticipatory guidance/risk factor reduction interventions, and the ordering of laboratory/diagnostic procedures, established patient; infant (age younger than 1 year)",
          "userSelected": true
        } ]
      } ],
      "subject": {
        "reference": "Patient/77973e2d-625a-4c4f-aa69-2c716af0ad3c"
      },
      "period": {
        "start": "2026-09-29T08:00:00.000+00:00",
        "end": "2026-09-29T08:30:00.000+00:00"
      }
    }
  }, {
    "fullUrl": "https://madie.cms.gov/Observation/eba23089-c7ff-4c03-b4f9-dc3750579d5e",
    "resource": {
      "resourceType": "Observation",
      "id": "eba23089-c7ff-4c03-b4f9-dc3750579d5e",
      "meta": {
        "profile": [ "http://hl7.org/fhir/us/qicore/StructureDefinition/qicore-observation-lab" ]
      },
      "status": "final",
      "category": [ {
        "coding": [ {
          "system": "http://terminology.hl7.org/CodeSystem/observation-category",
          "code": "laboratory",
          "display": "Laboratory"
        } ]
      }, {
        "coding": [ {
          "system": "http://terminology.hl7.org/CodeSystem/observation-category",
          "code": "survey"
        } ]
      } ],
      "code": {
        "coding": [ {
          "system": "http://loinc.org",
          "version": "2.73",
          "code": "11084-1",
          "display": "Reagin Ab [Titer] in Serum",
          "userSelected": true
        } ]
      },
      "subject": {
        "reference": "Patient/77973e2d-625a-4c4f-aa69-2c716af0ad3c"
      },
      "effectivePeriod": {
        "start": "2026-08-30T08:00:00.000+00:00",
        "end": "2026-08-30T08:15:00.000+00:00"
      },
      "issued": "2026-08-30T08:00:00.000+00:00",
      "valueQuantity": {
        "value": 18
      }
    }
  }, {
    "fullUrl": "https://madie.cms.gov/Observation/e29e414a-e973-4023-8c92-5f7fb95b9fd8",
    "resource": {
      "resourceType": "Observation",
      "id": "e29e414a-e973-4023-8c92-5f7fb95b9fd8",
      "meta": {
        "profile": [ "http://hl7.org/fhir/us/qicore/StructureDefinition/qicore-observation-lab" ]
      },
      "status": "final",
      "category": [ {
        "coding": [ {
          "system": "http://terminology.hl7.org/CodeSystem/observation-category",
          "code": "laboratory",
          "display": "Laboratory"
        } ]
      }, {
        "coding": [ {
          "system": "http://terminology.hl7.org/CodeSystem/observation-category",
          "code": "survey"
        } ]
      } ],
      "code": {
        "coding": [ {
          "system": "http://loinc.org",
          "version": "2.73",
          "code": "21415-5",
          "display": "Neisseria gonorrhoeae DNA [Presence] in Urethra by NAA with probe detection",
          "userSelected": true
        } ]
      },
      "subject": {
        "reference": "Patient/77973e2d-625a-4c4f-aa69-2c716af0ad3c"
      },
      "effectivePeriod": {
        "start": "2026-08-30T08:00:00.000+00:00"
      },
      "issued": "2026-08-30T08:00:00.000+00:00",
      "valueQuantity": {
        "value": 19
      }
    }
  }, {
    "fullUrl": "https://madie.cms.gov/Observation/16d34529-7457-4d0d-8164-f070cdcd5d38",
    "resource": {
      "resourceType": "Observation",
      "id": "16d34529-7457-4d0d-8164-f070cdcd5d38",
      "meta": {
        "profile": [ "http://hl7.org/fhir/us/qicore/StructureDefinition/qicore-observation-lab" ]
      },
      "status": "final",
      "category": [ {
        "coding": [ {
          "system": "http://terminology.hl7.org/CodeSystem/observation-category",
          "code": "laboratory",
          "display": "Laboratory"
        } ]
      }, {
        "coding": [ {
          "system": "http://terminology.hl7.org/CodeSystem/observation-category",
          "code": "survey"
        } ]
      } ],
      "code": {
        "coding": [ {
          "system": "http://loinc.org",
          "version": "2.73",
          "code": "14463-4",
          "display": "Chlamydia trachomatis [Presence] in Cervix by Organism specific culture",
          "userSelected": true
        } ]
      },
      "subject": {
        "reference": "Patient/77973e2d-625a-4c4f-aa69-2c716af0ad3c"
      },
      "effectivePeriod": {
        "start": "2026-08-30T08:00:00.000+00:00",
        "end": "2026-08-30T08:16:00.000+00:00"
      },
      "issued": "2026-08-30T08:00:00.000+00:00",
      "valueQuantity": {
        "value": 16
      }
    }
  }, {
    "fullUrl": "https://madie.cms.gov/Coverage/48a08862-a337-4316-a5f4-18bffcb1580a",
    "resource": {
      "resourceType": "Coverage",
      "id": "48a08862-a337-4316-a5f4-18bffcb1580a",
      "meta": {
        "profile": [ "http://hl7.org/fhir/us/qicore/StructureDefinition/qicore-coverage" ]
      },
      "status": "active",
      "subscriberId": "123456",
      "beneficiary": {
        "reference": "Patient/77973e2d-625a-4c4f-aa69-2c716af0ad3c"
      },
      "relationship": {
        "coding": [ {
          "system": "http://terminology.hl7.org/CodeSystem/subscriber-relationship",
          "code": "self",
          "display": "Self"
        } ]
      },
      "payor": [ {
        "reference": "Organization/3177eafc-5b08-42d2-aa17-ed06766d0f76"
      } ]
    }
  }, {
    "fullUrl": "https://madie.cms.gov/Organization/3177eafc-5b08-42d2-aa17-ed06766d0f76",
    "resource": {
      "resourceType": "Organization",
      "id": "3177eafc-5b08-42d2-aa17-ed06766d0f76",
      "meta": {
        "profile": [ "http://hl7.org/fhir/us/qicore/StructureDefinition/qicore-organization" ]
      },
      "identifier": [ {
        "use": "temp",
        "system": "urn:oid:2.16.840.1.113883.4.4",
        "value": "21-3259825"
      } ],
      "active": true,
      "type": [ {
        "coding": [ {
          "system": "http://terminology.hl7.org/CodeSystem/organization-type",
          "code": "pay",
          "display": "Payer"
        } ]
      } ],
      "name": "Blue Cross Blue Shield of Texas",
      "telecom": [ {
        "system": "phone",
        "value": "(+1) 972-766-6900"
      } ],
      "address": [ {
        "use": "billing",
        "type": "postal",
        "line": [ "P.O. Box 660044" ],
        "city": "Dallas",
        "state": "TX",
        "postalCode": "75266-0044",
        "country": "USA"
      } ]
    }
  }, {
    "fullUrl": "https://madie.cms.gov/Practitioner/13237b14-1134-4a82-a2d9-3691c29adefb",
    "resource": {
      "resourceType": "Practitioner",
      "id": "13237b14-1134-4a82-a2d9-3691c29adefb",
      "meta": {
        "profile": [ "http://hl7.org/fhir/us/qicore/StructureDefinition/qicore-practitioner" ]
      },
      "identifier": [ {
        "system": "http://hl7.org/fhir/sid/us-npi",
        "value": "1689411712"
      } ],
      "name": [ {
        "family": "Evil",
        "prefix": [ "Dr" ]
      } ]
    }
  }, {
    "fullUrl": "https://madie.cms.gov/MeasureReport/29c75765-9c68-4229-90ef-7c8a0d755f1e",
    "resource": {
      "resourceType": "MeasureReport",
      "id": "29c75765-9c68-4229-90ef-7c8a0d755f1e",
      "meta": {
        "profile": [ "http://hl7.org/fhir/us/cqfmeasures/StructureDefinition/test-case-cqfm" ]
      },
      "contained": [ {
        "resourceType": "Parameters",
        "id": "831095eb-93d6-4d6f-9264-8268564731e2-parameters",
        "parameter": [ {
          "name": "subject",
          "valueString": "77973e2d-625a-4c4f-aa69-2c716af0ad3c"
        } ]
      } ],
      "extension": [ {
        "url": "http://hl7.org/fhir/StructureDefinition/cqf-inputParameters",
        "valueReference": {
          "reference": "#831095eb-93d6-4d6f-9264-8268564731e2-parameters"
        }
      }, {
        "url": "http://hl7.org/fhir/us/cqfmeasures/StructureDefinition/cqfm-testCaseDescription",
        "valueMarkdown": "Patient is over 13 years old and has an encounter during the MP and has all three lab tests during the MP -- testing relevantPeriod missing end datetime"
      } ],
      "modifierExtension": [ {
        "url": "http://hl7.org/fhir/us/cqfmeasures/StructureDefinition/cqfm-isTestCase",
        "valueBoolean": true
      } ],
      "status": "complete",
      "type": "individual",
      "measure": "https://madie.cms.gov/Measure/CMS1188FHIRHIVSTITesting",
      "period": {
        "start": "2026-01-01",
        "end": "2026-12-31"
      },
      "group": [ {
        "id": "Group_1",
        "population": [ {
          "id": "InitialPopulation_1",
          "code": {
            "coding": [ {
              "system": "http://terminology.hl7.org/CodeSystem/measure-population",
              "code": "initial-population",
              "display": "Initial Population"
            } ]
          },
          "count": 1
        }, {
          "id": "Denominator_1",
          "code": {
            "coding": [ {
              "system": "http://terminology.hl7.org/CodeSystem/measure-population",
              "code": "denominator",
              "display": "Denominator"
            } ]
          },
          "count": 1
        }, {
          "id": "Numerator_1",
          "code": {
            "coding": [ {
              "system": "http://terminology.hl7.org/CodeSystem/measure-population",
              "code": "numerator",
              "display": "Numerator"
            } ]
          },
          "count": 1
        } ],
        "measureScore": {
          "value": 1.0
        }
      } ],
      "evaluatedResource": [ {
        "reference": "Patient/77973e2d-625a-4c4f-aa69-2c716af0ad3c"
      }, {
        "reference": "Condition/5738c944-e716-49b8-8015-c069d868d65e"
      }, {
        "reference": "Encounter/4a4d604e-5962-40d8-9ff8-850d86ca2583"
      }, {
        "reference": "Observation/eba23089-c7ff-4c03-b4f9-dc3750579d5e"
      }, {
        "reference": "Observation/e29e414a-e973-4023-8c92-5f7fb95b9fd8"
      }, {
        "reference": "Observation/16d34529-7457-4d0d-8164-f070cdcd5d38"
      }, {
        "reference": "Coverage/48a08862-a337-4316-a5f4-18bffcb1580a"
      }, {
        "reference": "Organization/3177eafc-5b08-42d2-aa17-ed06766d0f76"
      }, {
        "reference": "Practitioner/13237b14-1134-4a82-a2d9-3691c29adefb"
      } ]
    }
  } ]
}