{
  "resourceType": "Bundle",
  "id": "612e6a6a02c62a011f2ea049",
  "type": "transaction",
  "entry": [ {
    "fullUrl": "https://madie.cms.gov/Patient/4df4e9bf-dff3-448c-a6f1-6415d8ebb8a6",
    "resource": {
      "resourceType": "Patient",
      "id": "4df4e9bf-dff3-448c-a6f1-6415d8ebb8a6",
      "meta": {
        "profile": [ "http://hl7.org/fhir/us/qicore/StructureDefinition/qicore-patient" ]
      },
      "text": {
        "status": "generated",
        "div": "<div xmlns=\"http://www.w3.org/1999/xhtml\"><div class=\"hapiHeaderText\">MA_Glyco_IPEnc_MedAdmRvltDT <b>NUMERPASS </b></div><table class=\"hapiPropertyTable\"><tbody><tr><td>Identifier</td><td>f3f0e593658312f8c4ef6efb1bb1d75a</td></tr><tr><td>Date of birth</td><td><span>02 January 1974</span></td></tr></tbody></table></div>"
      },
      "extension": [ {
        "url": "http://hl7.org/fhir/us/core/StructureDefinition/us-core-race",
        "extension": [ {
          "url": "ombCategory",
          "valueCoding": {
            "system": "urn:oid:2.16.840.1.113883.6.238",
            "code": "1002-5",
            "display": "American Indian or Alaska Native",
            "userSelected": true
          }
        }, {
          "url": "text",
          "valueString": "American Indian or Alaska Native"
        } ]
      }, {
        "url": "http://hl7.org/fhir/us/core/StructureDefinition/us-core-ethnicity",
        "extension": [ {
          "url": "ombCategory",
          "valueCoding": {
            "system": "urn:oid:2.16.840.1.113883.6.238",
            "code": "2135-2",
            "display": "Hispanic or Latino",
            "userSelected": true
          }
        }, {
          "url": "text",
          "valueString": "Hispanic or Latino"
        } ]
      } ],
      "identifier": [ {
        "type": {
          "coding": [ {
            "system": "http://terminology.hl7.org/CodeSystem/v2-0203",
            "code": "MR"
          } ]
        },
        "system": "https://bonnie-fhir.healthit.gov/",
        "value": "612e6a6a02c62a011f2ea049"
      } ],
      "active": true,
      "name": [ {
        "use": "usual",
        "family": "NUMERPass",
        "given": [ "MAGlycoIPEncMedAdmRvltDT" ]
      } ],
      "gender": "male",
      "birthDate": "1975-01-02"
    },
    "request": {
      "method": "PUT",
      "url": "Patient/4df4e9bf-dff3-448c-a6f1-6415d8ebb8a6"
    }
  }, {
    "fullUrl": "https://madie.cms.gov/Encounter/e5e06dd0-35f8-410c-9252-be36ca40d187",
    "resource": {
      "resourceType": "Encounter",
      "id": "e5e06dd0-35f8-410c-9252-be36ca40d187",
      "meta": {
        "profile": [ "http://hl7.org/fhir/us/qicore/StructureDefinition/qicore-encounter" ]
      },
      "status": "finished",
      "class": {
        "system": "http://terminology.hl7.org/CodeSystem/v3-ActCode",
        "code": "IMP",
        "display": "inpatient encounter"
      },
      "type": [ {
        "coding": [ {
          "system": "http://snomed.info/sct",
          "code": "8715000"
        } ]
      } ],
      "subject": {
        "reference": "Patient/4df4e9bf-dff3-448c-a6f1-6415d8ebb8a6"
      },
      "period": {
        "start": "2026-11-01T08:00:00.000+00:00",
        "end": "2026-11-26T08:15:00.000+00:00"
      },
      "length": {
        "value": 25,
        "unit": "days"
      }
    },
    "request": {
      "method": "PUT",
      "url": "Encounter/e5e06dd0-35f8-410c-9252-be36ca40d187"
    }
  }, {
    "fullUrl": "https://madie.cms.gov/Coverage/e07b3589-2ded-4419-bbba-26c5a5855f2d",
    "resource": {
      "resourceType": "Coverage",
      "id": "e07b3589-2ded-4419-bbba-26c5a5855f2d",
      "status": "active",
      "beneficiary": {
        "reference": "Patient/4df4e9bf-dff3-448c-a6f1-6415d8ebb8a6"
      },
      "period": {
        "start": "1975-01-02T08:00:00.000+00:00"
      },
      "payor": [ {
        "reference": "Organization/b1b57add-df74-4ff0-b88d-37ca2ead721c"
      } ]
    },
    "request": {
      "method": "PUT",
      "url": "Coverage/e07b3589-2ded-4419-bbba-26c5a5855f2d"
    }
  }, {
    "fullUrl": "https://madie.cms.gov/MedicationAdministration/77506fec-069f-48f7-839f-997ffcb89ffe",
    "resource": {
      "resourceType": "MedicationAdministration",
      "id": "77506fec-069f-48f7-839f-997ffcb89ffe",
      "meta": {
        "profile": [ "http://hl7.org/fhir/us/qicore/StructureDefinition/qicore-medicationadministration" ]
      },
      "status": "completed",
      "medicationCodeableConcept": {
        "coding": [ {
          "system": "http://www.nlm.nih.gov/research/umls/rxnorm",
          "code": "200349"
        } ]
      },
      "subject": {
        "reference": "Patient/4df4e9bf-dff3-448c-a6f1-6415d8ebb8a6"
      },
      "effectiveDateTime": "2026-11-01T09:00:00.000+00:00"
    },
    "request": {
      "method": "PUT",
      "url": "MedicationAdministration/77506fec-069f-48f7-839f-997ffcb89ffe"
    }
  }, {
    "fullUrl": "https://madie.cms.gov/Organization/b1b57add-df74-4ff0-b88d-37ca2ead721c",
    "resource": {
      "resourceType": "Organization",
      "id": "b1b57add-df74-4ff0-b88d-37ca2ead721c",
      "meta": {
        "profile": [ "http://hl7.org/fhir/us/qicore/StructureDefinition/qicore-organization" ]
      },
      "identifier": [ {
        "use": "temp",
        "system": "urn:oid:2.16.840.1.113883.4.4",
        "value": "21-3259825"
      } ],
      "active": true,
      "type": [ {
        "coding": [ {
          "system": "http://terminology.hl7.org/CodeSystem/organization-type",
          "code": "pay",
          "display": "Payer"
        } ]
      } ],
      "name": "Blue Cross Blue Shield of Texas",
      "telecom": [ {
        "system": "phone",
        "value": "(+1) 972-766-6900"
      } ],
      "address": [ {
        "use": "billing",
        "type": "postal",
        "line": [ "P.O. Box 660044" ],
        "city": "Dallas",
        "state": "TX",
        "postalCode": "75266-0044",
        "country": "USA"
      } ]
    },
    "request": {
      "method": "PUT",
      "url": "Organization/b1b57add-df74-4ff0-b88d-37ca2ead721c"
    }
  }, {
    "fullUrl": "https://madie.cms.gov/Practitioner/2b05bab6-dc5f-4358-aebb-0c6c62e39946",
    "resource": {
      "resourceType": "Practitioner",
      "id": "2b05bab6-dc5f-4358-aebb-0c6c62e39946",
      "identifier": [ {
        "system": "http://hl7.org/fhir/sid/us-npi",
        "value": "123456"
      } ],
      "name": [ {
        "family": "Evil",
        "prefix": [ "Dr" ]
      } ]
    },
    "request": {
      "method": "PUT",
      "url": "Practitioner/2b05bab6-dc5f-4358-aebb-0c6c62e39946"
    }
  }, {
    "fullUrl": "https://madie.cms.gov/MeasureReport/5ad2e55c-99fc-495c-8076-3821ec65a43e",
    "resource": {
      "resourceType": "MeasureReport",
      "id": "5ad2e55c-99fc-495c-8076-3821ec65a43e",
      "meta": {
        "profile": [ "http://hl7.org/fhir/us/cqfmeasures/StructureDefinition/test-case-cqfm" ]
      },
      "contained": [ {
        "resourceType": "Parameters",
        "id": "b746290d-0093-4f81-83c4-adfcd3de4829-parameters",
        "parameter": [ {
          "name": "subject",
          "valueString": "4df4e9bf-dff3-448c-a6f1-6415d8ebb8a6"
        } ]
      } ],
      "extension": [ {
        "url": "http://hl7.org/fhir/StructureDefinition/cqf-inputParameters",
        "valueReference": {
          "reference": "#b746290d-0093-4f81-83c4-adfcd3de4829-parameters"
        }
      }, {
        "url": "http://hl7.org/fhir/us/cqfmeasures/StructureDefinition/cqfm-testCaseDescription",
        "valueMarkdown": "glycoprotein IIb/IIIa inibitor =0  day after start of IP encounter\n"
      } ],
      "modifierExtension": [ {
        "url": "http://hl7.org/fhir/us/cqfmeasures/StructureDefinition/cqfm-isTestCase",
        "valueBoolean": true
      } ],
      "status": "complete",
      "type": "individual",
      "measure": "https://madie.cms.gov/Measure/CMS108FHIRVTEProphylaxis",
      "period": {
        "start": "2026-01-01",
        "end": "2026-12-31"
      },
      "group": [ {
        "id": "Group_1",
        "population": [ {
          "id": "InitialPopulation_1",
          "code": {
            "coding": [ {
              "system": "http://terminology.hl7.org/CodeSystem/measure-population",
              "code": "initial-population",
              "display": "Initial Population"
            } ]
          },
          "count": 1
        }, {
          "id": "Denominator_1",
          "code": {
            "coding": [ {
              "system": "http://terminology.hl7.org/CodeSystem/measure-population",
              "code": "denominator",
              "display": "Denominator"
            } ]
          },
          "count": 1
        }, {
          "id": "DenominatorExclusion_1",
          "code": {
            "coding": [ {
              "system": "http://terminology.hl7.org/CodeSystem/measure-population",
              "code": "denominator-exclusion",
              "display": "Denominator Exclusion"
            } ]
          },
          "count": 0
        }, {
          "id": "Numerator_1",
          "code": {
            "coding": [ {
              "system": "http://terminology.hl7.org/CodeSystem/measure-population",
              "code": "numerator",
              "display": "Numerator"
            } ]
          },
          "count": 1
        } ],
        "measureScore": {
          "value": 0.0
        }
      } ],
      "evaluatedResource": [ {
        "reference": "Patient/4df4e9bf-dff3-448c-a6f1-6415d8ebb8a6"
      }, {
        "reference": "Encounter/e5e06dd0-35f8-410c-9252-be36ca40d187"
      }, {
        "reference": "Coverage/e07b3589-2ded-4419-bbba-26c5a5855f2d"
      }, {
        "reference": "MedicationAdministration/77506fec-069f-48f7-839f-997ffcb89ffe"
      }, {
        "reference": "Organization/b1b57add-df74-4ff0-b88d-37ca2ead721c"
      }, {
        "reference": "Practitioner/2b05bab6-dc5f-4358-aebb-0c6c62e39946"
      } ]
    },
    "request": {
      "method": "PUT",
      "url": "MeasureReport/5ad2e55c-99fc-495c-8076-3821ec65a43e"
    }
  } ]
}