{
  "resourceType": "Bundle",
  "id": "tests-DENEXFail-MultipleCreatinine2-CMS832-bundle",
  "type": "transaction",
  "entry": [ {
    "fullUrl": "https://madie.cms.gov/Observation/37c70e42-50a7-4a61-ad32-bff14ff5599c",
    "resource": {
      "resourceType": "Observation",
      "id": "37c70e42-50a7-4a61-ad32-bff14ff5599c",
      "meta": {
        "profile": [ "http://hl7.org/fhir/us/qicore/StructureDefinition/qicore-observation-lab" ]
      },
      "status": "final",
      "category": [ {
        "coding": [ {
          "system": "http://terminology.hl7.org/CodeSystem/observation-category",
          "code": "laboratory",
          "display": "Laboratory"
        } ]
      } ],
      "code": {
        "coding": [ {
          "system": "http://loinc.org",
          "version": "2.72",
          "code": "21232-4",
          "display": "Creatinine [Mass/volume] in Serum or Plasma"
        } ]
      },
      "subject": {
        "reference": "Patient/056c566e-f0d0-4fd7-930e-b9ea1e5caa84"
      },
      "effectiveDateTime": "2026-10-06T10:00:00.000+00:00",
      "valueQuantity": {
        "value": 1.7,
        "unit": "mg/dL",
        "system": "http://unitsofmeasure.org",
        "code": "mg/dL"
      }
    },
    "request": {
      "method": "PUT",
      "url": "Observation/37c70e42-50a7-4a61-ad32-bff14ff5599c"
    }
  }, {
    "fullUrl": "https://madie.cms.gov/Observation/e3112ae0-7ef2-47e6-8b22-86d0d895f36a",
    "resource": {
      "resourceType": "Observation",
      "id": "e3112ae0-7ef2-47e6-8b22-86d0d895f36a",
      "meta": {
        "profile": [ "http://hl7.org/fhir/us/qicore/StructureDefinition/qicore-observation-lab" ]
      },
      "status": "final",
      "category": [ {
        "coding": [ {
          "system": "http://terminology.hl7.org/CodeSystem/observation-category",
          "code": "laboratory",
          "display": "Laboratory"
        } ]
      } ],
      "code": {
        "coding": [ {
          "system": "http://loinc.org",
          "version": "2.72",
          "code": "21232-4",
          "display": "Creatinine [Mass/volume] in Serum or Plasma"
        } ]
      },
      "subject": {
        "reference": "Patient/056c566e-f0d0-4fd7-930e-b9ea1e5caa84"
      },
      "effectiveDateTime": "2026-10-02T10:00:00.000+00:00",
      "valueQuantity": {
        "value": 1.5,
        "unit": "mg/dL",
        "system": "http://unitsofmeasure.org",
        "code": "mg/dL"
      }
    },
    "request": {
      "method": "PUT",
      "url": "Observation/e3112ae0-7ef2-47e6-8b22-86d0d895f36a"
    }
  }, {
    "fullUrl": "https://madie.cms.gov/Observation/290c410e-05f1-43e3-a21d-cc5ac54162db",
    "resource": {
      "resourceType": "Observation",
      "id": "290c410e-05f1-43e3-a21d-cc5ac54162db",
      "meta": {
        "profile": [ "http://hl7.org/fhir/us/qicore/StructureDefinition/qicore-observation-lab" ]
      },
      "status": "final",
      "category": [ {
        "coding": [ {
          "system": "http://terminology.hl7.org/CodeSystem/observation-category",
          "code": "laboratory",
          "display": "Laboratory"
        } ]
      } ],
      "code": {
        "coding": [ {
          "system": "http://loinc.org",
          "code": "21232-4",
          "display": "Creatinine [Mass/volume] in Serum or Plasma"
        } ]
      },
      "subject": {
        "reference": "Patient/056c566e-f0d0-4fd7-930e-b9ea1e5caa84"
      },
      "effectiveDateTime": "2026-09-20T08:13:00.000+00:00",
      "valueQuantity": {
        "value": 0.9,
        "unit": "mg/dL",
        "system": "http://unitsofmeasure.org",
        "code": "mg/dL"
      }
    },
    "request": {
      "method": "PUT",
      "url": "Observation/290c410e-05f1-43e3-a21d-cc5ac54162db"
    }
  }, {
    "fullUrl": "https://madie.cms.gov/Encounter/8f6adba0-45bd-4829-9f79-18d37f5dc9a1",
    "resource": {
      "resourceType": "Encounter",
      "id": "8f6adba0-45bd-4829-9f79-18d37f5dc9a1",
      "meta": {
        "profile": [ "http://hl7.org/fhir/us/qicore/StructureDefinition/qicore-encounter" ]
      },
      "status": "finished",
      "class": {
        "system": "http://terminology.hl7.org/CodeSystem/v3-ActCode",
        "code": "IMP",
        "display": "inpatient encounter"
      },
      "type": [ {
        "coding": [ {
          "system": "http://snomed.info/sct",
          "code": "183452005",
          "display": "Emergency hospital admission (procedure)"
        } ]
      } ],
      "subject": {
        "reference": "Patient/056c566e-f0d0-4fd7-930e-b9ea1e5caa84"
      },
      "period": {
        "start": "2026-09-20T08:00:00.000+00:00",
        "end": "2026-10-10T20:15:00.000+00:00"
      }
    },
    "request": {
      "method": "PUT",
      "url": "Encounter/8f6adba0-45bd-4829-9f79-18d37f5dc9a1"
    }
  }, {
    "fullUrl": "https://madie.cms.gov/Observation/2154a96d-80c0-4487-aca9-663f7ccbe9c9",
    "resource": {
      "resourceType": "Observation",
      "id": "2154a96d-80c0-4487-aca9-663f7ccbe9c9",
      "meta": {
        "profile": [ "http://hl7.org/fhir/us/qicore/StructureDefinition/qicore-observation-lab" ]
      },
      "status": "final",
      "category": [ {
        "coding": [ {
          "system": "http://terminology.hl7.org/CodeSystem/observation-category",
          "code": "laboratory",
          "display": "Laboratory"
        } ]
      } ],
      "code": {
        "coding": [ {
          "system": "http://loinc.org",
          "version": "2.72",
          "code": "21232-4",
          "display": "Creatinine [Mass/volume] in Serum or Plasma"
        } ]
      },
      "subject": {
        "reference": "Patient/056c566e-f0d0-4fd7-930e-b9ea1e5caa84"
      },
      "effectiveDateTime": "2026-09-22T13:06:00.000+00:00",
      "valueQuantity": {
        "value": 1.13,
        "unit": "mg/dL",
        "system": "http://unitsofmeasure.org",
        "code": "mg/dL"
      }
    },
    "request": {
      "method": "PUT",
      "url": "Observation/2154a96d-80c0-4487-aca9-663f7ccbe9c9"
    }
  }, {
    "fullUrl": "https://madie.cms.gov/Observation/b40d0041-24d5-4b96-98a2-250687b2467d",
    "resource": {
      "resourceType": "Observation",
      "id": "b40d0041-24d5-4b96-98a2-250687b2467d",
      "meta": {
        "profile": [ "http://hl7.org/fhir/us/qicore/StructureDefinition/qicore-observation-lab" ]
      },
      "status": "final",
      "category": [ {
        "coding": [ {
          "system": "http://terminology.hl7.org/CodeSystem/observation-category",
          "code": "laboratory",
          "display": "Laboratory"
        } ]
      } ],
      "code": {
        "coding": [ {
          "system": "http://loinc.org",
          "version": "2.72",
          "code": "21232-4",
          "display": "Creatinine [Mass/volume] in Serum or Plasma"
        } ]
      },
      "subject": {
        "reference": "Patient/056c566e-f0d0-4fd7-930e-b9ea1e5caa84"
      },
      "effectiveDateTime": "2026-09-21T07:13:00.000+00:00",
      "valueQuantity": {
        "value": 1,
        "unit": "mg/dL",
        "system": "http://unitsofmeasure.org",
        "code": "mg/dL"
      }
    },
    "request": {
      "method": "PUT",
      "url": "Observation/b40d0041-24d5-4b96-98a2-250687b2467d"
    }
  }, {
    "fullUrl": "https://madie.cms.gov/Observation/634f3dc6-97e3-4e7e-b324-a03c890dff87",
    "resource": {
      "resourceType": "Observation",
      "id": "634f3dc6-97e3-4e7e-b324-a03c890dff87",
      "meta": {
        "profile": [ "http://hl7.org/fhir/us/qicore/StructureDefinition/qicore-observation-lab" ]
      },
      "status": "final",
      "category": [ {
        "coding": [ {
          "system": "http://terminology.hl7.org/CodeSystem/observation-category",
          "code": "laboratory",
          "display": "Laboratory"
        } ]
      } ],
      "code": {
        "coding": [ {
          "system": "http://loinc.org",
          "version": "2.72",
          "code": "21232-4",
          "display": "Creatinine [Mass/volume] in Serum or Plasma"
        } ]
      },
      "subject": {
        "reference": "Patient/056c566e-f0d0-4fd7-930e-b9ea1e5caa84"
      },
      "effectiveDateTime": "2026-09-29T07:01:00.000+00:00",
      "valueQuantity": {
        "value": 1.7,
        "unit": "mg/dL",
        "system": "http://unitsofmeasure.org",
        "code": "mg/dL"
      }
    },
    "request": {
      "method": "PUT",
      "url": "Observation/634f3dc6-97e3-4e7e-b324-a03c890dff87"
    }
  }, {
    "fullUrl": "https://madie.cms.gov/Observation/231095a0-7e4b-46c0-979a-c5c4f2555037",
    "resource": {
      "resourceType": "Observation",
      "id": "231095a0-7e4b-46c0-979a-c5c4f2555037",
      "meta": {
        "profile": [ "http://hl7.org/fhir/us/qicore/StructureDefinition/qicore-observation-lab" ]
      },
      "status": "final",
      "category": [ {
        "coding": [ {
          "system": "http://terminology.hl7.org/CodeSystem/observation-category",
          "code": "laboratory",
          "display": "Laboratory"
        } ]
      } ],
      "code": {
        "coding": [ {
          "system": "http://loinc.org",
          "version": "2.72",
          "code": "21232-4",
          "display": "Creatinine [Mass/volume] in Serum or Plasma"
        } ]
      },
      "subject": {
        "reference": "Patient/056c566e-f0d0-4fd7-930e-b9ea1e5caa84"
      },
      "effectiveDateTime": "2026-10-08T08:00:00.000+00:00",
      "valueQuantity": {
        "value": 2,
        "unit": "mg/dL",
        "system": "http://unitsofmeasure.org",
        "code": "mg/dL"
      }
    },
    "request": {
      "method": "PUT",
      "url": "Observation/231095a0-7e4b-46c0-979a-c5c4f2555037"
    }
  }, {
    "fullUrl": "https://madie.cms.gov/Observation/d9ad9b8e-6ee3-412e-821b-f6d0db524d61",
    "resource": {
      "resourceType": "Observation",
      "id": "d9ad9b8e-6ee3-412e-821b-f6d0db524d61",
      "meta": {
        "profile": [ "http://hl7.org/fhir/us/qicore/StructureDefinition/qicore-observation-lab" ]
      },
      "status": "final",
      "category": [ {
        "coding": [ {
          "system": "http://terminology.hl7.org/CodeSystem/observation-category",
          "code": "laboratory",
          "display": "Laboratory"
        } ]
      } ],
      "code": {
        "coding": [ {
          "system": "http://loinc.org",
          "version": "2.72",
          "code": "21232-4",
          "display": "Creatinine [Mass/volume] in Serum or Plasma"
        } ]
      },
      "subject": {
        "reference": "Patient/056c566e-f0d0-4fd7-930e-b9ea1e5caa84"
      },
      "effectiveDateTime": "2026-10-07T09:00:00.000+00:00",
      "valueQuantity": {
        "value": 1.8,
        "unit": "mg/dL",
        "system": "http://unitsofmeasure.org",
        "code": "mg/dL"
      }
    },
    "request": {
      "method": "PUT",
      "url": "Observation/d9ad9b8e-6ee3-412e-821b-f6d0db524d61"
    }
  }, {
    "fullUrl": "https://madie.cms.gov/Patient/056c566e-f0d0-4fd7-930e-b9ea1e5caa84",
    "resource": {
      "resourceType": "Patient",
      "id": "056c566e-f0d0-4fd7-930e-b9ea1e5caa84",
      "meta": {
        "profile": [ "http://hl7.org/fhir/us/qicore/StructureDefinition/qicore-patient" ]
      },
      "extension": [ {
        "url": "http://hl7.org/fhir/us/core/StructureDefinition/us-core-race",
        "extension": [ {
          "url": "ombCategory",
          "valueCoding": {
            "system": "urn:oid:2.16.840.1.113883.6.238",
            "code": "2106-3",
            "display": "White"
          }
        }, {
          "url": "text",
          "valueString": "White"
        } ]
      }, {
        "url": "http://hl7.org/fhir/us/core/StructureDefinition/us-core-ethnicity",
        "extension": [ {
          "url": "ombCategory",
          "valueCoding": {
            "system": "urn:oid:2.16.840.1.113883.6.238",
            "code": "2135-2",
            "display": "Hispanic or Latino"
          }
        }, {
          "url": "text",
          "valueString": "Hispanic or Latino"
        } ]
      }, {
        "url": "http://hl7.org/fhir/us/core/StructureDefinition/us-core-sex",
        "valueCode": "248153007"
      } ],
      "identifier": [ {
        "system": "http://hospital.smarthealthit.org",
        "value": "999999999"
      } ],
      "name": [ {
        "family": "Example",
        "given": [ "Patient" ]
      } ],
      "gender": "female",
      "birthDate": "1956-01-01"
    },
    "request": {
      "method": "PUT",
      "url": "Patient/056c566e-f0d0-4fd7-930e-b9ea1e5caa84"
    }
  }, {
    "fullUrl": "https://madie.cms.gov/Observation/81657dae-8010-4353-b43a-95f491f13356",
    "resource": {
      "resourceType": "Observation",
      "id": "81657dae-8010-4353-b43a-95f491f13356",
      "meta": {
        "profile": [ "http://hl7.org/fhir/us/qicore/StructureDefinition/qicore-observation-lab" ]
      },
      "status": "final",
      "category": [ {
        "coding": [ {
          "system": "http://terminology.hl7.org/CodeSystem/observation-category",
          "code": "laboratory",
          "display": "Laboratory"
        } ]
      } ],
      "code": {
        "coding": [ {
          "system": "http://loinc.org",
          "version": "2.72",
          "code": "21232-4",
          "display": "Creatinine [Mass/volume] in Serum or Plasma"
        } ]
      },
      "subject": {
        "reference": "Patient/056c566e-f0d0-4fd7-930e-b9ea1e5caa84"
      },
      "effectiveDateTime": "2026-09-23T10:01:00.000+00:00",
      "valueQuantity": {
        "value": 1.9,
        "unit": "mg/dL",
        "system": "http://unitsofmeasure.org",
        "code": "mg/dL"
      }
    },
    "request": {
      "method": "PUT",
      "url": "Observation/81657dae-8010-4353-b43a-95f491f13356"
    }
  }, {
    "fullUrl": "https://madie.cms.gov/MeasureReport/1a331267-35a7-4f29-934c-5c4a5c172918",
    "resource": {
      "resourceType": "MeasureReport",
      "id": "1a331267-35a7-4f29-934c-5c4a5c172918",
      "meta": {
        "profile": [ "http://hl7.org/fhir/us/cqfmeasures/StructureDefinition/test-case-cqfm" ]
      },
      "contained": [ {
        "resourceType": "Parameters",
        "id": "6c9e9d14-0b8f-4529-b9f4-4172a05fe801-parameters",
        "parameter": [ {
          "name": "subject",
          "valueString": "056c566e-f0d0-4fd7-930e-b9ea1e5caa84"
        } ]
      } ],
      "extension": [ {
        "url": "http://hl7.org/fhir/StructureDefinition/cqf-inputParameters",
        "valueReference": {
          "reference": "#6c9e9d14-0b8f-4529-b9f4-4172a05fe801-parameters"
        }
      }, {
        "url": "http://hl7.org/fhir/us/cqfmeasures/StructureDefinition/cqfm-testCaseDescription",
        "valueMarkdown": "Encounter similar to MultipleCreatinine and following tests\n1\t09-20 08:13 AM\t0.9\n2\t09-21 07:13 AM\t1.0\n3\t09-22 01:06 PM\t1.13\n4\t09-23 10:01 AM\t1.9\n5\t09-29 07:01 AM\t1.7\n6\t10-02 10:00 AM\t1.5\n7\t10-06 10:00 AM\t1.7\n8\t10-07 09:00 AM\t1.8\n9\t10-08 08:00 AM\t2.0"
      } ],
      "modifierExtension": [ {
        "url": "http://hl7.org/fhir/us/cqfmeasures/StructureDefinition/cqfm-isTestCase",
        "valueBoolean": true
      } ],
      "status": "complete",
      "type": "individual",
      "measure": "https://madie.cms.gov/Measure/CMS832FHIRHHAKI",
      "period": {
        "start": "2026-01-01",
        "end": "2026-12-31"
      },
      "group": [ {
        "id": "Group_1",
        "population": [ {
          "id": "InitialPopulation_1",
          "code": {
            "coding": [ {
              "system": "http://terminology.hl7.org/CodeSystem/measure-population",
              "code": "initial-population",
              "display": "Initial Population"
            } ]
          },
          "count": 1
        }, {
          "id": "Denominator_1",
          "code": {
            "coding": [ {
              "system": "http://terminology.hl7.org/CodeSystem/measure-population",
              "code": "denominator",
              "display": "Denominator"
            } ]
          },
          "count": 1
        }, {
          "id": "DenominatorExclusion_1",
          "code": {
            "coding": [ {
              "system": "http://terminology.hl7.org/CodeSystem/measure-population",
              "code": "denominator-exclusion",
              "display": "Denominator Exclusion"
            } ]
          },
          "count": 0
        }, {
          "id": "Numerator_1",
          "code": {
            "coding": [ {
              "system": "http://terminology.hl7.org/CodeSystem/measure-population",
              "code": "numerator",
              "display": "Numerator"
            } ]
          },
          "count": 0
        } ],
        "measureScore": {
          "value": 0.0
        }
      } ],
      "evaluatedResource": [ {
        "reference": "Observation/37c70e42-50a7-4a61-ad32-bff14ff5599c"
      }, {
        "reference": "Observation/e3112ae0-7ef2-47e6-8b22-86d0d895f36a"
      }, {
        "reference": "Observation/290c410e-05f1-43e3-a21d-cc5ac54162db"
      }, {
        "reference": "Encounter/8f6adba0-45bd-4829-9f79-18d37f5dc9a1"
      }, {
        "reference": "Observation/2154a96d-80c0-4487-aca9-663f7ccbe9c9"
      }, {
        "reference": "Observation/b40d0041-24d5-4b96-98a2-250687b2467d"
      }, {
        "reference": "Observation/634f3dc6-97e3-4e7e-b324-a03c890dff87"
      }, {
        "reference": "Observation/231095a0-7e4b-46c0-979a-c5c4f2555037"
      }, {
        "reference": "Observation/d9ad9b8e-6ee3-412e-821b-f6d0db524d61"
      }, {
        "reference": "Patient/056c566e-f0d0-4fd7-930e-b9ea1e5caa84"
      }, {
        "reference": "Observation/81657dae-8010-4353-b43a-95f491f13356"
      } ]
    },
    "request": {
      "method": "PUT",
      "url": "MeasureReport/1a331267-35a7-4f29-934c-5c4a5c172918"
    }
  } ]
}