{
  "resourceType": "Bundle",
  "id": "tests-NUMERPass-1Encounter3GlucoseResultsLT40-bundle",
  "type": "transaction",
  "entry": [ {
    "fullUrl": "https://madie.cms.gov/Encounter/86b84685-7768-437b-b981-7c914a2e4599",
    "resource": {
      "resourceType": "Encounter",
      "id": "86b84685-7768-437b-b981-7c914a2e4599",
      "meta": {
        "profile": [ "http://hl7.org/fhir/us/qicore/StructureDefinition/qicore-encounter" ]
      },
      "status": "finished",
      "class": {
        "system": "http://terminology.hl7.org/CodeSystem/v3-ActCode",
        "code": "IMP",
        "display": "Inpatient encounter"
      },
      "type": [ {
        "coding": [ {
          "system": "http://snomed.info/sct",
          "code": "183452005",
          "display": "Emergency hospital admission"
        } ]
      } ],
      "subject": {
        "reference": "Patient/986750bc-7ca8-43ae-886b-9ed6daaf9bb2"
      },
      "period": {
        "start": "2026-01-03T08:00:00.000Z",
        "end": "2026-01-06T08:15:00.000Z"
      }
    },
    "request": {
      "method": "PUT",
      "url": "Encounter/86b84685-7768-437b-b981-7c914a2e4599"
    }
  }, {
    "fullUrl": "https://madie.cms.gov/MedicationAdministration/4e962e4b-e4d1-47f8-9829-48fe941413fe",
    "resource": {
      "resourceType": "MedicationAdministration",
      "id": "4e962e4b-e4d1-47f8-9829-48fe941413fe",
      "meta": {
        "profile": [ "http://hl7.org/fhir/us/qicore/StructureDefinition/qicore-medicationadministration" ]
      },
      "status": "completed",
      "medicationCodeableConcept": {
        "coding": [ {
          "system": "http://www.nlm.nih.gov/research/umls/rxnorm",
          "code": "1652239",
          "display": "3 ML insulin lispro 200 UNT/ML Pen Injector"
        } ]
      },
      "subject": {
        "reference": "Patient/986750bc-7ca8-43ae-886b-9ed6daaf9bb2"
      },
      "effectivePeriod": {
        "start": "2026-01-04T08:00:00.000Z",
        "end": "2026-01-04T08:15:00.000Z"
      }
    },
    "request": {
      "method": "PUT",
      "url": "MedicationAdministration/4e962e4b-e4d1-47f8-9829-48fe941413fe"
    }
  }, {
    "fullUrl": "https://madie.cms.gov/Observation/ca3fbffc-b22f-4392-8d85-5754f2893445",
    "resource": {
      "resourceType": "Observation",
      "id": "ca3fbffc-b22f-4392-8d85-5754f2893445",
      "meta": {
        "profile": [ "http://hl7.org/fhir/us/qicore/StructureDefinition/qicore-observation-lab" ]
      },
      "status": "final",
      "category": [ {
        "coding": [ {
          "system": "http://terminology.hl7.org/CodeSystem/observation-category",
          "code": "laboratory",
          "display": "Laboratory"
        } ],
        "text": "Laboratory"
      } ],
      "code": {
        "coding": [ {
          "system": "http://loinc.org",
          "code": "1556-0",
          "display": "Fasting glucose [Mass/volume] in Capillary blood"
        } ]
      },
      "subject": {
        "reference": "Patient/986750bc-7ca8-43ae-886b-9ed6daaf9bb2"
      },
      "effectivePeriod": {
        "start": "2026-01-04T11:45:00.000Z",
        "end": "2026-01-04T11:45:00.000Z"
      },
      "issued": "2026-01-04T11:45:00.000Z",
      "valueQuantity": {
        "value": 30,
        "unit": "mg/dL"
      }
    },
    "request": {
      "method": "PUT",
      "url": "Observation/ca3fbffc-b22f-4392-8d85-5754f2893445"
    }
  }, {
    "fullUrl": "https://madie.cms.gov/Observation/ba3e6aec-d2f7-494d-bdcf-36ff630bca5d",
    "resource": {
      "resourceType": "Observation",
      "id": "ba3e6aec-d2f7-494d-bdcf-36ff630bca5d",
      "meta": {
        "profile": [ "http://hl7.org/fhir/us/qicore/StructureDefinition/qicore-observation-lab" ]
      },
      "status": "final",
      "category": [ {
        "coding": [ {
          "system": "http://terminology.hl7.org/CodeSystem/observation-category",
          "code": "laboratory",
          "display": "Laboratory"
        } ],
        "text": "Laboratory"
      } ],
      "code": {
        "coding": [ {
          "system": "http://loinc.org",
          "code": "1556-0",
          "display": "Fasting glucose [Mass/volume] in Capillary blood"
        } ]
      },
      "subject": {
        "reference": "Patient/986750bc-7ca8-43ae-886b-9ed6daaf9bb2"
      },
      "effectivePeriod": {
        "start": "2026-01-04T10:00:00.000Z",
        "end": "2026-01-04T10:00:00.000Z"
      },
      "issued": "2026-01-04T10:00:00.000Z",
      "valueQuantity": {
        "value": 39,
        "unit": "mg/dL"
      }
    },
    "request": {
      "method": "PUT",
      "url": "Observation/ba3e6aec-d2f7-494d-bdcf-36ff630bca5d"
    }
  }, {
    "fullUrl": "https://madie.cms.gov/Observation/1612428b-ce6d-46e1-a84d-44e684da3fc4",
    "resource": {
      "resourceType": "Observation",
      "id": "1612428b-ce6d-46e1-a84d-44e684da3fc4",
      "meta": {
        "profile": [ "http://hl7.org/fhir/us/qicore/StructureDefinition/qicore-observation-lab" ]
      },
      "status": "final",
      "category": [ {
        "coding": [ {
          "system": "http://terminology.hl7.org/CodeSystem/observation-category",
          "code": "laboratory",
          "display": "Laboratory"
        } ],
        "text": "Laboratory"
      } ],
      "code": {
        "coding": [ {
          "system": "http://loinc.org",
          "code": "1556-0",
          "display": "Fasting glucose [Mass/volume] in Capillary blood"
        } ]
      },
      "subject": {
        "reference": "Patient/986750bc-7ca8-43ae-886b-9ed6daaf9bb2"
      },
      "effectivePeriod": {
        "start": "2026-01-05T07:00:00.000Z",
        "end": "2026-01-05T07:00:00.000Z"
      },
      "issued": "2026-01-05T07:00:00.000Z",
      "valueQuantity": {
        "value": 30,
        "unit": "mg/dL"
      }
    },
    "request": {
      "method": "PUT",
      "url": "Observation/1612428b-ce6d-46e1-a84d-44e684da3fc4"
    }
  }, {
    "fullUrl": "https://madie.cms.gov/Patient/986750bc-7ca8-43ae-886b-9ed6daaf9bb2",
    "resource": {
      "resourceType": "Patient",
      "id": "986750bc-7ca8-43ae-886b-9ed6daaf9bb2",
      "meta": {
        "profile": [ "http://hl7.org/fhir/us/qicore/StructureDefinition/qicore-patient" ]
      },
      "extension": [ {
        "url": "http://hl7.org/fhir/us/core/StructureDefinition/us-core-race",
        "extension": [ {
          "url": "ombCategory",
          "valueCoding": {
            "system": "urn:oid:2.16.840.1.113883.6.238",
            "code": "2106-3",
            "display": "White"
          }
        }, {
          "url": "text",
          "valueString": "White"
        } ]
      }, {
        "url": "http://hl7.org/fhir/us/core/StructureDefinition/us-core-ethnicity",
        "extension": [ {
          "url": "ombCategory",
          "valueCoding": {
            "system": "urn:oid:2.16.840.1.113883.6.238",
            "code": "2135-2",
            "display": "Hispanic or Latino"
          }
        }, {
          "url": "text",
          "valueString": "Hispanic or Latino"
        } ]
      }, {
        "url": "http://hl7.org/fhir/us/core/StructureDefinition/us-core-sex",
        "valueCode": "248153007"
      } ],
      "identifier": [ {
        "system": "http://hospital.smarthealthit.org",
        "value": "999999999"
      } ],
      "name": [ {
        "family": "CMSNUMERPass",
        "given": [ "1Encounter3GlucoseResultsLT40" ]
      } ],
      "gender": "female",
      "birthDate": "2000-02-03"
    },
    "request": {
      "method": "PUT",
      "url": "Patient/986750bc-7ca8-43ae-886b-9ed6daaf9bb2"
    }
  }, {
    "fullUrl": "https://madie.cms.gov/MeasureReport/e2fda61c-94d0-4e83-9eb3-99b8d1b911d2",
    "resource": {
      "resourceType": "MeasureReport",
      "id": "e2fda61c-94d0-4e83-9eb3-99b8d1b911d2",
      "meta": {
        "profile": [ "http://hl7.org/fhir/us/cqfmeasures/StructureDefinition/test-case-cqfm" ]
      },
      "contained": [ {
        "resourceType": "Parameters",
        "id": "c34eeb9e-55bf-4f24-9f7e-563381b3c328-parameters",
        "parameter": [ {
          "name": "subject",
          "valueString": "986750bc-7ca8-43ae-886b-9ed6daaf9bb2"
        } ]
      } ],
      "extension": [ {
        "url": "http://hl7.org/fhir/StructureDefinition/cqf-inputParameters",
        "valueReference": {
          "reference": "#c34eeb9e-55bf-4f24-9f7e-563381b3c328-parameters"
        }
      }, {
        "url": "http://hl7.org/fhir/us/cqfmeasures/StructureDefinition/cqfm-testCaseDescription",
        "valueMarkdown": "Encounter with meds and 3 glucose labs. All results are less than 40, and all within 24 hours of hypo med. Meets num = 1 harm per encounter.\n\n(CMS #21)"
      } ],
      "modifierExtension": [ {
        "url": "http://hl7.org/fhir/us/cqfmeasures/StructureDefinition/cqfm-isTestCase",
        "valueBoolean": true
      } ],
      "status": "complete",
      "type": "individual",
      "measure": "https://madie.cms.gov/Measure/NHSNGlycemicControlHypoglycemiaInitialPopulation",
      "period": {
        "start": "2026-01-01",
        "end": "2026-12-31"
      },
      "group": [ {
        "id": "Group_1",
        "population": [ {
          "id": "InitialPopulation_1",
          "code": {
            "coding": [ {
              "system": "http://terminology.hl7.org/CodeSystem/measure-population",
              "code": "initial-population",
              "display": "Initial Population"
            } ]
          },
          "count": 1
        } ],
        "measureScore": {
          "value": 0.0
        }
      } ],
      "evaluatedResource": [ {
        "reference": "Encounter/86b84685-7768-437b-b981-7c914a2e4599"
      }, {
        "reference": "MedicationAdministration/4e962e4b-e4d1-47f8-9829-48fe941413fe"
      }, {
        "reference": "Observation/ca3fbffc-b22f-4392-8d85-5754f2893445"
      }, {
        "reference": "Observation/ba3e6aec-d2f7-494d-bdcf-36ff630bca5d"
      }, {
        "reference": "Observation/1612428b-ce6d-46e1-a84d-44e684da3fc4"
      }, {
        "reference": "Patient/986750bc-7ca8-43ae-886b-9ed6daaf9bb2"
      } ]
    },
    "request": {
      "method": "PUT",
      "url": "MeasureReport/e2fda61c-94d0-4e83-9eb3-99b8d1b911d2"
    }
  } ]
}