{
  "resourceType": "Bundle",
  "id": "6067461f98086b57ea5ad0c4",
  "type": "collection",
  "entry": [ {
    "fullUrl": "https://madie.cms.gov/Patient/6dc1b14d-143b-4657-a96a-f743f438d0dd",
    "resource": {
      "resourceType": "Patient",
      "id": "6dc1b14d-143b-4657-a96a-f743f438d0dd",
      "meta": {
        "profile": [ "http://hl7.org/fhir/us/qicore/StructureDefinition/qicore-patient" ]
      },
      "extension": [ {
        "url": "http://hl7.org/fhir/us/core/StructureDefinition/us-core-race",
        "extension": [ {
          "url": "ombCategory",
          "valueCoding": {
            "system": "urn:oid:2.16.840.1.113883.6.238",
            "code": "1002-5",
            "display": "American Indian or Alaska Native"
          }
        }, {
          "url": "text",
          "valueString": "American Indian or Alaska Native"
        } ]
      }, {
        "url": "http://hl7.org/fhir/us/core/StructureDefinition/us-core-ethnicity",
        "extension": [ {
          "url": "ombCategory",
          "valueCoding": {
            "system": "urn:oid:2.16.840.1.113883.6.238",
            "code": "2186-5",
            "display": "Not Hispanic or Latino"
          }
        }, {
          "url": "text",
          "valueString": "Not Hispanic or Latino"
        } ]
      } ],
      "identifier": [ {
        "type": {
          "coding": [ {
            "system": "http://terminology.hl7.org/CodeSystem/v2-0203",
            "code": "MR"
          } ]
        },
        "system": "https://bonnie-fhir.healthit.gov/",
        "value": "6067461f98086b57ea5ad0c4"
      } ],
      "active": true,
      "name": [ {
        "use": "usual",
        "family": "IPFail",
        "given": [ "Age17" ]
      } ],
      "gender": "male",
      "birthDate": "2008-12-31"
    }
  }, {
    "fullUrl": "https://madie.cms.gov/Encounter/1cc04197-e8e2-4961-9120-561023464d32",
    "resource": {
      "resourceType": "Encounter",
      "id": "1cc04197-e8e2-4961-9120-561023464d32",
      "meta": {
        "profile": [ "http://hl7.org/fhir/us/qicore/StructureDefinition/qicore-encounter" ]
      },
      "status": "finished",
      "class": {
        "system": "http://terminology.hl7.org/CodeSystem/v3-ActCode",
        "code": "AMB"
      },
      "type": [ {
        "coding": [ {
          "system": "http://www.ama-assn.org/go/cpt",
          "version": "2024",
          "code": "99213"
        } ]
      } ],
      "subject": {
        "reference": "Patient/6dc1b14d-143b-4657-a96a-f743f438d0dd"
      },
      "period": {
        "start": "2026-04-19T14:40:00.000+00:00",
        "end": "2026-04-19T17:00:00.000+00:00"
      },
      "length": {
        "value": 0,
        "unit": "days"
      }
    }
  }, {
    "fullUrl": "https://madie.cms.gov/Encounter/6ffafc60-61b2-4503-b64e-8f87aa5d26de",
    "resource": {
      "resourceType": "Encounter",
      "id": "6ffafc60-61b2-4503-b64e-8f87aa5d26de",
      "meta": {
        "profile": [ "http://hl7.org/fhir/us/qicore/StructureDefinition/qicore-encounter" ]
      },
      "status": "finished",
      "class": {
        "system": "http://terminology.hl7.org/CodeSystem/v3-ActCode",
        "code": "AMB"
      },
      "type": [ {
        "coding": [ {
          "system": "http://www.ama-assn.org/go/cpt",
          "version": "2024",
          "code": "99212"
        } ]
      } ],
      "subject": {
        "reference": "Patient/6dc1b14d-143b-4657-a96a-f743f438d0dd"
      },
      "period": {
        "start": "2026-07-03T11:50:00.000+00:00",
        "end": "2026-07-03T11:50:00.000+00:00"
      },
      "length": {
        "value": 0,
        "unit": "days"
      }
    }
  }, {
    "fullUrl": "https://madie.cms.gov/Condition/422e7923-2a4e-4301-94b3-66fc05b631df",
    "resource": {
      "resourceType": "Condition",
      "id": "422e7923-2a4e-4301-94b3-66fc05b631df",
      "meta": {
        "profile": [ "http://hl7.org/fhir/us/qicore/StructureDefinition/qicore-condition-problems-health-concerns" ]
      },
      "clinicalStatus": {
        "coding": [ {
          "system": "http://terminology.hl7.org/CodeSystem/condition-clinical",
          "code": "active",
          "display": "Active"
        } ]
      },
      "verificationStatus": {
        "coding": [ {
          "system": "http://terminology.hl7.org/CodeSystem/condition-ver-status",
          "code": "confirmed",
          "display": "Confirmed"
        } ]
      },
      "category": [ {
        "coding": [ {
          "system": "http://terminology.hl7.org/CodeSystem/condition-category",
          "code": "problem-list-item",
          "display": "problem list item"
        } ]
      } ],
      "code": {
        "coding": [ {
          "system": "http://snomed.info/sct",
          "version": "http://snomed.info/sct/731000124108/version/20250301",
          "code": "10091002",
          "display": "High output heart failure (disorder)"
        } ]
      },
      "subject": {
        "reference": "Patient/6dc1b14d-143b-4657-a96a-f743f438d0dd"
      },
      "onsetPeriod": {
        "start": "2026-04-18T08:00:00.000+00:00"
      }
    }
  }, {
    "fullUrl": "https://madie.cms.gov/MeasureReport/49965d92-0c98-40ef-99c1-66d72db952bf",
    "resource": {
      "resourceType": "MeasureReport",
      "id": "49965d92-0c98-40ef-99c1-66d72db952bf",
      "meta": {
        "profile": [ "http://hl7.org/fhir/us/cqfmeasures/StructureDefinition/test-case-cqfm" ]
      },
      "contained": [ {
        "resourceType": "Parameters",
        "id": "dfb0b46f-c42a-4910-b24f-823fc2b5d8d2-parameters",
        "parameter": [ {
          "name": "subject",
          "valueString": "6dc1b14d-143b-4657-a96a-f743f438d0dd"
        } ]
      } ],
      "extension": [ {
        "url": "http://hl7.org/fhir/StructureDefinition/cqf-inputParameters",
        "valueReference": {
          "reference": "#dfb0b46f-c42a-4910-b24f-823fc2b5d8d2-parameters"
        }
      }, {
        "url": "http://hl7.org/fhir/us/cqfmeasures/StructureDefinition/cqfm-testCaseDescription",
        "valueMarkdown": "Patient age is 17 with 2 Encounters during MP. Patient not included in initial population because <18 at beginning of measurement period. "
      } ],
      "modifierExtension": [ {
        "url": "http://hl7.org/fhir/us/cqfmeasures/StructureDefinition/cqfm-isTestCase",
        "valueBoolean": true
      } ],
      "status": "complete",
      "type": "individual",
      "measure": "https://madie.cms.gov/Measure/CMS144FHIRHFBetaBlockerForLVSD",
      "period": {
        "start": "2026-01-01",
        "end": "2026-12-31"
      },
      "group": [ {
        "id": "Group_1",
        "population": [ {
          "id": "InitialPopulation_1",
          "code": {
            "coding": [ {
              "system": "http://terminology.hl7.org/CodeSystem/measure-population",
              "code": "initial-population",
              "display": "Initial Population"
            } ]
          },
          "count": 0
        }, {
          "id": "Denominator_1",
          "code": {
            "coding": [ {
              "system": "http://terminology.hl7.org/CodeSystem/measure-population",
              "code": "denominator",
              "display": "Denominator"
            } ]
          },
          "count": 0
        }, {
          "id": "DenominatorExclusion_1",
          "code": {
            "coding": [ {
              "system": "http://terminology.hl7.org/CodeSystem/measure-population",
              "code": "denominator-exclusion",
              "display": "Denominator Exclusion"
            } ]
          },
          "count": 0
        }, {
          "id": "Numerator_1",
          "code": {
            "coding": [ {
              "system": "http://terminology.hl7.org/CodeSystem/measure-population",
              "code": "numerator",
              "display": "Numerator"
            } ]
          },
          "count": 0
        }, {
          "id": "DenominatorException_1",
          "code": {
            "coding": [ {
              "system": "http://terminology.hl7.org/CodeSystem/measure-population",
              "code": "denominator-exception",
              "display": "Denominator Exception"
            } ]
          },
          "count": 0
        } ],
        "measureScore": {
          "value": 1.0
        }
      } ],
      "evaluatedResource": [ {
        "reference": "Patient/6dc1b14d-143b-4657-a96a-f743f438d0dd"
      }, {
        "reference": "Encounter/1cc04197-e8e2-4961-9120-561023464d32"
      }, {
        "reference": "Encounter/6ffafc60-61b2-4503-b64e-8f87aa5d26de"
      }, {
        "reference": "Condition/422e7923-2a4e-4301-94b3-66fc05b631df"
      } ]
    }
  } ]
}