{
  "resourceType": "Bundle",
  "id": "62aa660cc4be4c506d4a5351",
  "type": "collection",
  "entry": [ {
    "fullUrl": "https://madie.cms.gov/Patient/7ac9722f-8763-4380-a741-53ee4bb98819",
    "resource": {
      "resourceType": "Patient",
      "id": "7ac9722f-8763-4380-a741-53ee4bb98819",
      "meta": {
        "profile": [ "http://hl7.org/fhir/us/qicore/StructureDefinition/qicore-patient" ]
      },
      "extension": [ {
        "url": "http://hl7.org/fhir/us/core/StructureDefinition/us-core-race",
        "extension": [ {
          "url": "ombCategory",
          "valueCoding": {
            "system": "urn:oid:2.16.840.1.113883.6.238",
            "code": "2106-3",
            "display": "White",
            "userSelected": true
          }
        }, {
          "url": "text",
          "valueString": "White"
        } ]
      }, {
        "url": "http://hl7.org/fhir/us/core/StructureDefinition/us-core-ethnicity",
        "extension": [ {
          "url": "ombCategory",
          "valueCoding": {
            "system": "urn:oid:2.16.840.1.113883.6.238",
            "code": "2186-5",
            "display": "Not Hispanic or Latino",
            "userSelected": true
          }
        }, {
          "url": "text",
          "valueString": "Not Hispanic or Latino"
        } ]
      } ],
      "identifier": [ {
        "type": {
          "coding": [ {
            "system": "http://terminology.hl7.org/CodeSystem/v2-0203",
            "code": "MR"
          } ]
        },
        "system": "https://bonnie-fhir.healthit.gov/",
        "value": "62aa660cc4be4c506d4a5351"
      } ],
      "name": [ {
        "family": "DENEXCEPPass",
        "given": [ "NotRequestedReferralForHighWeight" ]
      } ],
      "gender": "unknown",
      "birthDate": "1957-11-07"
    }
  }, {
    "fullUrl": "https://madie.cms.gov/Encounter/e2819148-33ae-4b4b-8f58-6a14c16663c3",
    "resource": {
      "resourceType": "Encounter",
      "id": "e2819148-33ae-4b4b-8f58-6a14c16663c3",
      "meta": {
        "profile": [ "http://hl7.org/fhir/us/qicore/StructureDefinition/qicore-encounter" ]
      },
      "status": "finished",
      "class": {
        "system": "http://terminology.hl7.org/CodeSystem/v3-ActCode",
        "code": "AMB",
        "display": "ambulatory"
      },
      "type": [ {
        "coding": [ {
          "system": "http://snomed.info/sct",
          "code": "10197000",
          "display": "Psychiatric interview and evaluation (procedure)",
          "userSelected": true
        } ]
      } ],
      "subject": {
        "reference": "Patient/7ac9722f-8763-4380-a741-53ee4bb98819"
      },
      "period": {
        "start": "2026-01-01T00:00:00.000+00:00",
        "end": "2026-01-01T00:30:00.000+00:00"
      }
    }
  }, {
    "fullUrl": "https://madie.cms.gov/Observation/7f478980-bc2e-4835-b40d-797ad7040135",
    "resource": {
      "resourceType": "Observation",
      "id": "7f478980-bc2e-4835-b40d-797ad7040135",
      "meta": {
        "profile": [ "http://hl7.org/fhir/us/qicore/StructureDefinition/qicore-simple-observation" ]
      },
      "status": "amended",
      "category": [ {
        "coding": [ {
          "system": "http://terminology.hl7.org/CodeSystem/observation-category",
          "code": "vital-signs",
          "display": "Vital Signs"
        } ]
      } ],
      "code": {
        "coding": [ {
          "system": "http://loinc.org",
          "code": "39156-5",
          "display": "Body mass index (BMI) [Ratio]",
          "userSelected": true
        } ]
      },
      "subject": {
        "reference": "Patient/7ac9722f-8763-4380-a741-53ee4bb98819"
      },
      "effectiveDateTime": "2026-01-01T00:05:00.000+00:00",
      "valueQuantity": {
        "value": 25.1,
        "unit": "kg/m2"
      }
    }
  }, {
    "fullUrl": "https://madie.cms.gov/ServiceRequest/90c09f89-c1ae-4449-8188-0b884ffd6f60",
    "resource": {
      "resourceType": "ServiceRequest",
      "id": "90c09f89-c1ae-4449-8188-0b884ffd6f60",
      "meta": {
        "profile": [ "http://hl7.org/fhir/us/qicore/StructureDefinition/qicore-servicenotrequested" ]
      },
      "extension": [ {
        "url": "http://hl7.org/fhir/us/qicore/StructureDefinition/qicore-doNotPerformReason",
        "valueCodeableConcept": {
          "coding": [ {
            "system": "http://snomed.info/sct",
            "code": "183932001",
            "display": "Procedure contraindicated (situation)",
            "userSelected": true
          } ]
        }
      } ],
      "status": "completed",
      "intent": "order",
      "doNotPerform": true,
      "code": {
        "coding": [ {
          "system": "http://snomed.info/sct",
          "code": "103699006",
          "display": "Refer to dietitian",
          "userSelected": true
        } ]
      },
      "subject": {
        "reference": "Patient/7ac9722f-8763-4380-a741-53ee4bb98819"
      },
      "authoredOn": "2026-01-01T00:15:00.000+00:00",
      "reasonCode": [ {
        "coding": [ {
          "system": "http://snomed.info/sct",
          "code": "183932001",
          "display": "Procedure contraindicated (situation)",
          "userSelected": true
        } ]
      } ]
    }
  }, {
    "fullUrl": "https://madie.cms.gov/Coverage/98275ab8-87f5-408f-99b1-47a540b7faf6",
    "resource": {
      "resourceType": "Coverage",
      "id": "98275ab8-87f5-408f-99b1-47a540b7faf6",
      "meta": {
        "profile": [ "http://hl7.org/fhir/us/qicore/StructureDefinition/qicore-coverage" ]
      },
      "status": "active",
      "subscriberId": "123456",
      "beneficiary": {
        "reference": "Patient/7ac9722f-8763-4380-a741-53ee4bb98819"
      },
      "relationship": {
        "coding": [ {
          "system": "http://terminology.hl7.org/CodeSystem/subscriber-relationship",
          "code": "self",
          "display": "Self",
          "userSelected": true
        } ]
      },
      "payor": [ {
        "reference": "Organization/b2a22902-8bee-4d80-aad8-d67cbc5a6977"
      } ]
    }
  }, {
    "fullUrl": "https://madie.cms.gov/Organization/b2a22902-8bee-4d80-aad8-d67cbc5a6977",
    "resource": {
      "resourceType": "Organization",
      "id": "b2a22902-8bee-4d80-aad8-d67cbc5a6977",
      "meta": {
        "profile": [ "http://hl7.org/fhir/us/qicore/StructureDefinition/qicore-organization" ]
      },
      "identifier": [ {
        "use": "temp",
        "system": "urn:oid:2.16.840.1.113883.4.4",
        "value": "21-3259825"
      } ],
      "active": true,
      "type": [ {
        "coding": [ {
          "system": "http://terminology.hl7.org/CodeSystem/organization-type",
          "code": "pay",
          "display": "Payer"
        } ]
      } ],
      "name": "Blue Cross Blue Shield of Texas",
      "telecom": [ {
        "system": "phone",
        "value": "(+1) 972-766-6900"
      } ],
      "address": [ {
        "use": "billing",
        "type": "postal",
        "line": [ "P.O. Box 660044" ],
        "city": "Dallas",
        "state": "TX",
        "postalCode": "75266-0044",
        "country": "USA"
      } ]
    }
  }, {
    "fullUrl": "https://madie.cms.gov/Practitioner/4c57afe5-0139-4c48-bf2d-89841c23a6a7",
    "resource": {
      "resourceType": "Practitioner",
      "id": "4c57afe5-0139-4c48-bf2d-89841c23a6a7",
      "meta": {
        "profile": [ "http://hl7.org/fhir/us/qicore/StructureDefinition/qicore-practitioner" ]
      },
      "identifier": [ {
        "system": "http://hl7.org/fhir/sid/us-npi",
        "value": "1234567893"
      } ],
      "name": [ {
        "family": "Evil",
        "prefix": [ "Dr" ]
      } ]
    }
  }, {
    "fullUrl": "https://madie.cms.gov/MeasureReport/9b0681a1-b58b-43b7-850e-4f12f07d5ca3",
    "resource": {
      "resourceType": "MeasureReport",
      "id": "9b0681a1-b58b-43b7-850e-4f12f07d5ca3",
      "meta": {
        "profile": [ "http://hl7.org/fhir/us/cqfmeasures/StructureDefinition/test-case-cqfm" ]
      },
      "contained": [ {
        "resourceType": "Parameters",
        "id": "bca62067-e342-4db6-98fb-ef434d361218-parameters",
        "parameter": [ {
          "name": "subject",
          "valueString": "7ac9722f-8763-4380-a741-53ee4bb98819"
        } ]
      } ],
      "extension": [ {
        "url": "http://hl7.org/fhir/StructureDefinition/cqf-inputParameters",
        "valueReference": {
          "reference": "#bca62067-e342-4db6-98fb-ef434d361218-parameters"
        }
      }, {
        "url": "http://hl7.org/fhir/us/cqfmeasures/StructureDefinition/cqfm-testCaseDescription",
        "valueMarkdown": "Enc first day of MP, BMI 25.1 kg/m2, service not request for referral where weight assessment may occur, contraindicated"
      } ],
      "modifierExtension": [ {
        "url": "http://hl7.org/fhir/us/cqfmeasures/StructureDefinition/cqfm-isTestCase",
        "valueBoolean": true
      } ],
      "status": "complete",
      "type": "individual",
      "measure": "https://madie.cms.gov/Measure/CMS69FHIRPCSBMIScreenAndFollowUp",
      "period": {
        "start": "2026-01-01",
        "end": "2026-12-31"
      },
      "group": [ {
        "id": "Group_1",
        "population": [ {
          "id": "InitialPopulation_1",
          "code": {
            "coding": [ {
              "system": "http://terminology.hl7.org/CodeSystem/measure-population",
              "code": "initial-population",
              "display": "Initial Population"
            } ]
          },
          "count": 1
        }, {
          "id": "Denominator_1",
          "code": {
            "coding": [ {
              "system": "http://terminology.hl7.org/CodeSystem/measure-population",
              "code": "denominator",
              "display": "Denominator"
            } ]
          },
          "count": 1
        }, {
          "id": "DenominatorExclusion_1",
          "code": {
            "coding": [ {
              "system": "http://terminology.hl7.org/CodeSystem/measure-population",
              "code": "denominator-exclusion",
              "display": "Denominator Exclusion"
            } ]
          },
          "count": 0
        }, {
          "id": "Numerator_1",
          "code": {
            "coding": [ {
              "system": "http://terminology.hl7.org/CodeSystem/measure-population",
              "code": "numerator",
              "display": "Numerator"
            } ]
          },
          "count": 0
        }, {
          "id": "DenominatorException_1",
          "code": {
            "coding": [ {
              "system": "http://terminology.hl7.org/CodeSystem/measure-population",
              "code": "denominator-exception",
              "display": "Denominator Exception"
            } ]
          },
          "count": 1
        } ],
        "measureScore": {
          "value": 1.0
        }
      } ],
      "evaluatedResource": [ {
        "reference": "Patient/7ac9722f-8763-4380-a741-53ee4bb98819"
      }, {
        "reference": "Encounter/e2819148-33ae-4b4b-8f58-6a14c16663c3"
      }, {
        "reference": "Observation/7f478980-bc2e-4835-b40d-797ad7040135"
      }, {
        "reference": "ServiceRequest/90c09f89-c1ae-4449-8188-0b884ffd6f60"
      }, {
        "reference": "Coverage/98275ab8-87f5-408f-99b1-47a540b7faf6"
      }, {
        "reference": "Organization/b2a22902-8bee-4d80-aad8-d67cbc5a6977"
      }, {
        "reference": "Practitioner/4c57afe5-0139-4c48-bf2d-89841c23a6a7"
      } ]
    }
  } ]
}