{
  "resourceType": "Bundle",
  "id": "63487c300968f801225401cd",
  "type": "transaction",
  "entry": [ {
    "fullUrl": "https://madie.cms.gov/Patient/87fc86a7-5863-474f-98e2-618189d8da9b",
    "resource": {
      "resourceType": "Patient",
      "id": "87fc86a7-5863-474f-98e2-618189d8da9b",
      "meta": {
        "profile": [ "http://hl7.org/fhir/us/qicore/StructureDefinition/qicore-patient" ]
      },
      "text": {
        "status": "generated",
        "div": "<div xmlns=\"http://www.w3.org/1999/xhtml\"><div class=\"hapiHeaderText\">AssessPResultIsNull <b>DENOMFail</b></div><table class=\"hapiPropertyTable\"><tbody><tr><td>Identifier</td><td>cb4a87fae0aeb4667064306e289209af09ca2376f26fb181f5d5ea03cba5dc53</td></tr><tr><td>Date of birth</td><td><span>14 February 1985</span></td></tr></tbody></table></div>"
      },
      "extension": [ {
        "url": "http://hl7.org/fhir/us/core/StructureDefinition/us-core-race",
        "extension": [ {
          "url": "ombCategory",
          "valueCoding": {
            "system": "urn:oid:2.16.840.1.113883.6.238",
            "code": "1002-5",
            "display": "American Indian or Alaska Native",
            "userSelected": true
          }
        }, {
          "url": "text",
          "valueString": "American Indian or Alaska Native"
        } ]
      }, {
        "url": "http://hl7.org/fhir/us/core/StructureDefinition/us-core-ethnicity",
        "extension": [ {
          "url": "ombCategory",
          "valueCoding": {
            "system": "urn:oid:2.16.840.1.113883.6.238",
            "code": "2135-2",
            "display": "Hispanic or Latino",
            "userSelected": true
          }
        }, {
          "url": "text",
          "valueString": "Hispanic or Latino"
        } ]
      } ],
      "identifier": [ {
        "type": {
          "coding": [ {
            "system": "http://terminology.hl7.org/CodeSystem/v2-0203",
            "code": "MR"
          } ]
        },
        "system": "https://bonnie-fhir.healthit.gov/",
        "value": "63487c300968f801225401cd"
      } ],
      "active": true,
      "name": [ {
        "use": "usual",
        "family": "DENOMFail",
        "given": [ "AssessPResultIsNull" ]
      } ],
      "gender": "female",
      "birthDate": "1998-02-14"
    },
    "request": {
      "method": "PUT",
      "url": "Patient/87fc86a7-5863-474f-98e2-618189d8da9b"
    }
  }, {
    "fullUrl": "https://madie.cms.gov/Observation/aed86b31-f519-465e-b75b-52b298b0cf99",
    "resource": {
      "resourceType": "Observation",
      "id": "aed86b31-f519-465e-b75b-52b298b0cf99",
      "meta": {
        "profile": [ "http://hl7.org/fhir/us/qicore/StructureDefinition/qicore-simple-observation" ]
      },
      "status": "final",
      "category": [ {
        "coding": [ {
          "system": "http://terminology.hl7.org/CodeSystem/observation-category",
          "code": "exam",
          "display": "exam",
          "userSelected": true
        } ]
      } ],
      "code": {
        "coding": [ {
          "system": "http://loinc.org",
          "code": "11977-6"
        } ]
      },
      "subject": {
        "reference": "Patient/87fc86a7-5863-474f-98e2-618189d8da9b"
      },
      "effectiveDateTime": "2026-06-08T19:59:00.000+00:00"
    },
    "request": {
      "method": "PUT",
      "url": "Observation/aed86b31-f519-465e-b75b-52b298b0cf99"
    }
  }, {
    "fullUrl": "https://madie.cms.gov/Observation/d464a9d5-df12-4aa2-b46a-bb6f89147a0a",
    "resource": {
      "resourceType": "Observation",
      "id": "d464a9d5-df12-4aa2-b46a-bb6f89147a0a",
      "meta": {
        "profile": [ "http://hl7.org/fhir/us/qicore/StructureDefinition/qicore-simple-observation" ]
      },
      "status": "final",
      "category": [ {
        "coding": [ {
          "system": "http://terminology.hl7.org/CodeSystem/observation-category",
          "code": "exam",
          "display": "exam",
          "userSelected": true
        } ]
      } ],
      "code": {
        "coding": [ {
          "system": "http://loinc.org",
          "code": "11884-4"
        } ]
      },
      "subject": {
        "reference": "Patient/87fc86a7-5863-474f-98e2-618189d8da9b"
      },
      "effectiveDateTime": "2026-06-08T20:00:00.000+00:00",
      "valueQuantity": {
        "value": 37,
        "system": "http://unitsofmeasure.org",
        "code": "wk"
      }
    },
    "request": {
      "method": "PUT",
      "url": "Observation/d464a9d5-df12-4aa2-b46a-bb6f89147a0a"
    }
  }, {
    "fullUrl": "https://madie.cms.gov/Observation/5c836ff9-302d-4629-a8fe-4c32cd811fe2",
    "resource": {
      "resourceType": "Observation",
      "id": "5c836ff9-302d-4629-a8fe-4c32cd811fe2",
      "meta": {
        "profile": [ "http://hl7.org/fhir/us/qicore/StructureDefinition/qicore-simple-observation" ]
      },
      "status": "final",
      "category": [ {
        "coding": [ {
          "system": "http://terminology.hl7.org/CodeSystem/observation-category",
          "code": "exam",
          "display": "exam",
          "userSelected": true
        } ]
      } ],
      "code": {
        "coding": [ {
          "system": "http://loinc.org",
          "code": "93857-1"
        } ]
      },
      "subject": {
        "reference": "Patient/87fc86a7-5863-474f-98e2-618189d8da9b"
      },
      "effectiveDateTime": "2026-06-08T20:00:00.000+00:00",
      "valueDateTime": "2026-06-08T20:00:00.000+00:00"
    },
    "request": {
      "method": "PUT",
      "url": "Observation/5c836ff9-302d-4629-a8fe-4c32cd811fe2"
    }
  }, {
    "fullUrl": "https://madie.cms.gov/Encounter/c46e128d-c582-4ba6-b2cb-4bd34b1859a8",
    "resource": {
      "resourceType": "Encounter",
      "id": "c46e128d-c582-4ba6-b2cb-4bd34b1859a8",
      "meta": {
        "profile": [ "http://hl7.org/fhir/us/qicore/StructureDefinition/qicore-encounter" ]
      },
      "status": "finished",
      "class": {
        "system": "http://terminology.hl7.org/CodeSystem/v3-ActCode",
        "code": "IMP",
        "display": "inpatient encounter"
      },
      "type": [ {
        "coding": [ {
          "system": "http://snomed.info/sct",
          "code": "8715000"
        } ]
      } ],
      "subject": {
        "reference": "Patient/87fc86a7-5863-474f-98e2-618189d8da9b"
      },
      "period": {
        "start": "2026-06-08T08:00:00.000+00:00",
        "end": "2026-06-10T08:15:00.000+00:00"
      },
      "length": {
        "value": 2,
        "unit": "days"
      },
      "reasonReference": [ {
        "reference": "Condition/1c9b4a9b-ed9c-455a-b8dc-39d3aa867743"
      } ]
    },
    "request": {
      "method": "PUT",
      "url": "Encounter/c46e128d-c582-4ba6-b2cb-4bd34b1859a8"
    }
  }, {
    "fullUrl": "https://madie.cms.gov/Procedure/e8756d1e-1c66-4889-ab71-7ff43bd85799",
    "resource": {
      "resourceType": "Procedure",
      "id": "e8756d1e-1c66-4889-ab71-7ff43bd85799",
      "meta": {
        "profile": [ "http://hl7.org/fhir/us/qicore/StructureDefinition/qicore-procedure" ]
      },
      "extension": [ {
        "url": "http://hl7.org/fhir/us/qicore/StructureDefinition/qicore-recorded",
        "valueDateTime": "2014-04-05T13:35:00.000+00:00"
      } ],
      "status": "completed",
      "code": {
        "coding": [ {
          "system": "http://www.cms.gov/Medicare/Coding/ICD10",
          "code": "10D00Z0"
        }, {
          "system": "http://snomed.info/sct",
          "code": "4504004"
        } ]
      },
      "subject": {
        "reference": "Patient/87fc86a7-5863-474f-98e2-618189d8da9b"
      },
      "performedPeriod": {
        "start": "2026-06-08T20:00:00.000+00:00",
        "end": "2026-06-08T20:15:00.000+00:00"
      }
    },
    "request": {
      "method": "PUT",
      "url": "Procedure/e8756d1e-1c66-4889-ab71-7ff43bd85799"
    }
  }, {
    "fullUrl": "https://madie.cms.gov/Condition/1c9b4a9b-ed9c-455a-b8dc-39d3aa867743",
    "resource": {
      "resourceType": "Condition",
      "id": "1c9b4a9b-ed9c-455a-b8dc-39d3aa867743",
      "meta": {
        "profile": [ "http://hl7.org/fhir/us/qicore/StructureDefinition/qicore-condition-encounter-diagnosis" ]
      },
      "category": [ {
        "coding": [ {
          "system": "http://terminology.hl7.org/CodeSystem/condition-category",
          "code": "encounter-diagnosis",
          "display": "Encounter Diagnosis"
        } ]
      } ],
      "code": {
        "coding": [ {
          "system": "http://snomed.info/sct",
          "version": "2022-09",
          "code": "169826009",
          "display": "Single live birth from singleton pregnancy (finding)",
          "userSelected": true
        } ]
      },
      "subject": {
        "reference": "Patient/87fc86a7-5863-474f-98e2-618189d8da9b"
      },
      "encounter": {
        "reference": "Encounter/c46e128d-c582-4ba6-b2cb-4bd34b1859a8"
      },
      "recordedDate": "2026-10-21T08:00:00.000+00:00"
    },
    "request": {
      "method": "PUT",
      "url": "Condition/1c9b4a9b-ed9c-455a-b8dc-39d3aa867743"
    }
  }, {
    "fullUrl": "https://madie.cms.gov/Coverage/1fd81a43-514e-4a28-895f-0a445e46f257",
    "resource": {
      "resourceType": "Coverage",
      "id": "1fd81a43-514e-4a28-895f-0a445e46f257",
      "meta": {
        "profile": [ "http://hl7.org/fhir/us/qicore/StructureDefinition/qicore-coverage" ]
      },
      "status": "active",
      "subscriberId": "523435",
      "beneficiary": {
        "reference": "Patient/87fc86a7-5863-474f-98e2-618189d8da9b"
      },
      "relationship": {
        "coding": [ {
          "system": "http://terminology.hl7.org/CodeSystem/subscriber-relationship",
          "code": "self"
        } ]
      },
      "payor": [ {
        "reference": "Organization/efed90e0-33ba-4ab7-b430-55d08da8079f"
      } ]
    },
    "request": {
      "method": "PUT",
      "url": "Coverage/1fd81a43-514e-4a28-895f-0a445e46f257"
    }
  }, {
    "fullUrl": "https://madie.cms.gov/Organization/efed90e0-33ba-4ab7-b430-55d08da8079f",
    "resource": {
      "resourceType": "Organization",
      "id": "efed90e0-33ba-4ab7-b430-55d08da8079f",
      "meta": {
        "profile": [ "http://hl7.org/fhir/us/qicore/StructureDefinition/qicore-organization" ]
      },
      "identifier": [ {
        "use": "temp",
        "system": "urn:oid:2.16.840.1.113883.4.4",
        "value": "21-3259825"
      } ],
      "active": true,
      "type": [ {
        "coding": [ {
          "system": "http://terminology.hl7.org/CodeSystem/organization-type",
          "code": "pay",
          "display": "Payer"
        } ]
      } ],
      "name": "Blue Cross Blue Shield of Texas",
      "telecom": [ {
        "system": "phone",
        "value": "(+1) 972-766-6900"
      } ],
      "address": [ {
        "use": "billing",
        "type": "postal",
        "line": [ "P.O. Box 660044" ],
        "city": "Dallas",
        "state": "TX",
        "postalCode": "75266-0044",
        "country": "USA"
      } ]
    },
    "request": {
      "method": "PUT",
      "url": "Organization/efed90e0-33ba-4ab7-b430-55d08da8079f"
    }
  }, {
    "fullUrl": "https://madie.cms.gov/Practitioner/230f1d87-1662-46a5-ac03-6672717d6fb3",
    "resource": {
      "resourceType": "Practitioner",
      "id": "230f1d87-1662-46a5-ac03-6672717d6fb3",
      "meta": {
        "profile": [ "http://hl7.org/fhir/us/qicore/StructureDefinition/qicore-practitioner" ]
      },
      "identifier": [ {
        "system": "http://hl7.org/fhir/sid/us-npi",
        "value": "1234567890"
      } ],
      "name": [ {
        "family": "Evil",
        "prefix": [ "Dr" ]
      } ]
    },
    "request": {
      "method": "PUT",
      "url": "Practitioner/230f1d87-1662-46a5-ac03-6672717d6fb3"
    }
  }, {
    "fullUrl": "https://madie.cms.gov/MeasureReport/35f8c81b-1f13-4cd5-bd8f-960b7bd3ce78",
    "resource": {
      "resourceType": "MeasureReport",
      "id": "35f8c81b-1f13-4cd5-bd8f-960b7bd3ce78",
      "meta": {
        "profile": [ "http://hl7.org/fhir/us/cqfmeasures/StructureDefinition/test-case-cqfm" ]
      },
      "contained": [ {
        "resourceType": "Parameters",
        "id": "7646a95d-f937-413e-ad73-3d97c2b7ceb2-parameters",
        "parameter": [ {
          "name": "subject",
          "valueString": "87fc86a7-5863-474f-98e2-618189d8da9b"
        } ]
      } ],
      "extension": [ {
        "url": "http://hl7.org/fhir/StructureDefinition/cqf-inputParameters",
        "valueReference": {
          "reference": "#7646a95d-f937-413e-ad73-3d97c2b7ceb2-parameters"
        }
      }, {
        "url": "http://hl7.org/fhir/us/cqfmeasures/StructureDefinition/cqfm-testCaseDescription",
        "valueMarkdown": "Parity Result is Null, relevant date/time same date but time less than delivery date/time\n"
      } ],
      "modifierExtension": [ {
        "url": "http://hl7.org/fhir/us/cqfmeasures/StructureDefinition/cqfm-isTestCase",
        "valueBoolean": true
      } ],
      "status": "complete",
      "type": "individual",
      "measure": "https://madie.cms.gov/Measure/CMS0334FHIRPCCesareanBirth",
      "period": {
        "start": "2026-01-01",
        "end": "2026-12-31"
      },
      "group": [ {
        "id": "Group_1",
        "population": [ {
          "id": "InitialPopulation_1",
          "code": {
            "coding": [ {
              "system": "http://terminology.hl7.org/CodeSystem/measure-population",
              "code": "initial-population",
              "display": "Initial Population"
            } ]
          },
          "count": 1
        }, {
          "id": "Denominator_1",
          "code": {
            "coding": [ {
              "system": "http://terminology.hl7.org/CodeSystem/measure-population",
              "code": "denominator",
              "display": "Denominator"
            } ]
          },
          "count": 0
        }, {
          "id": "DenominatorExclusion_1",
          "code": {
            "coding": [ {
              "system": "http://terminology.hl7.org/CodeSystem/measure-population",
              "code": "denominator-exclusion",
              "display": "Denominator Exclusion"
            } ]
          },
          "count": 0
        }, {
          "id": "Numerator_1",
          "code": {
            "coding": [ {
              "system": "http://terminology.hl7.org/CodeSystem/measure-population",
              "code": "numerator",
              "display": "Numerator"
            } ]
          },
          "count": 0
        } ],
        "measureScore": {
          "value": 0.0
        }
      } ],
      "evaluatedResource": [ {
        "reference": "Patient/87fc86a7-5863-474f-98e2-618189d8da9b"
      }, {
        "reference": "Observation/aed86b31-f519-465e-b75b-52b298b0cf99"
      }, {
        "reference": "Observation/d464a9d5-df12-4aa2-b46a-bb6f89147a0a"
      }, {
        "reference": "Observation/5c836ff9-302d-4629-a8fe-4c32cd811fe2"
      }, {
        "reference": "Encounter/c46e128d-c582-4ba6-b2cb-4bd34b1859a8"
      }, {
        "reference": "Procedure/e8756d1e-1c66-4889-ab71-7ff43bd85799"
      }, {
        "reference": "Condition/1c9b4a9b-ed9c-455a-b8dc-39d3aa867743"
      }, {
        "reference": "Coverage/1fd81a43-514e-4a28-895f-0a445e46f257"
      }, {
        "reference": "Organization/efed90e0-33ba-4ab7-b430-55d08da8079f"
      }, {
        "reference": "Practitioner/230f1d87-1662-46a5-ac03-6672717d6fb3"
      } ]
    },
    "request": {
      "method": "PUT",
      "url": "MeasureReport/35f8c81b-1f13-4cd5-bd8f-960b7bd3ce78"
    }
  } ]
}