{
  "resourceType": "Bundle",
  "id": "634313416121",
  "type": "collection",
  "entry": [ {
    "fullUrl": "https://madie.cms.gov/Patient/b74609f2-2fe7-4969-8b2b-215e7c21dfce",
    "resource": {
      "resourceType": "Patient",
      "id": "b74609f2-2fe7-4969-8b2b-215e7c21dfce",
      "meta": {
        "profile": [ "http://hl7.org/fhir/us/qicore/StructureDefinition/qicore-patient" ]
      },
      "extension": [ {
        "url": "http://hl7.org/fhir/us/core/StructureDefinition/us-core-race",
        "extension": [ {
          "url": "ombCategory",
          "valueCoding": {
            "system": "urn:oid:2.16.840.1.113883.6.238",
            "code": "2028-9",
            "display": "Asian"
          }
        }, {
          "url": "text",
          "valueString": "Asian"
        } ]
      }, {
        "url": "http://hl7.org/fhir/us/core/StructureDefinition/us-core-ethnicity",
        "extension": [ {
          "url": "ombCategory",
          "valueCoding": {
            "system": "urn:oid:2.16.840.1.113883.6.238",
            "code": "2186-5",
            "display": "Not Hispanic or Latino"
          }
        }, {
          "url": "text",
          "valueString": "Not Hispanic or Latino"
        } ]
      } ],
      "identifier": [ {
        "type": {
          "coding": [ {
            "system": "http://terminology.hl7.org/CodeSystem/v2-0203",
            "code": "MR"
          } ]
        },
        "system": "https://bonnie-fhir.healthit.gov/",
        "value": "6843131311"
      } ],
      "active": true,
      "name": [ {
        "use": "usual",
        "family": "IPPass",
        "given": [ "OVX2EncsHF" ]
      } ],
      "gender": "male",
      "birthDate": "1928-06-07"
    }
  }, {
    "fullUrl": "https://madie.cms.gov/Encounter/a6bebf9e-576f-4420-9fd3-272c43240bb5",
    "resource": {
      "resourceType": "Encounter",
      "id": "a6bebf9e-576f-4420-9fd3-272c43240bb5",
      "meta": {
        "profile": [ "http://hl7.org/fhir/us/qicore/StructureDefinition/qicore-encounter" ]
      },
      "status": "finished",
      "class": {
        "system": "http://terminology.hl7.org/CodeSystem/v3-ActCode",
        "code": "AMB",
        "display": "ambulatory"
      },
      "type": [ {
        "coding": [ {
          "system": "http://www.ama-assn.org/go/cpt",
          "version": "2024",
          "code": "99213"
        } ]
      } ],
      "subject": {
        "reference": "Patient/b74609f2-2fe7-4969-8b2b-215e7c21dfce"
      },
      "period": {
        "start": "2026-06-11T14:40:00.000+00:00",
        "end": "2026-06-11T14:40:00.000+00:00"
      },
      "length": {
        "value": 0,
        "unit": "days"
      }
    }
  }, {
    "fullUrl": "https://madie.cms.gov/Encounter/83b4454f-3077-40ec-bd1a-a07cec5286a7",
    "resource": {
      "resourceType": "Encounter",
      "id": "83b4454f-3077-40ec-bd1a-a07cec5286a7",
      "meta": {
        "profile": [ "http://hl7.org/fhir/us/qicore/StructureDefinition/qicore-encounter" ]
      },
      "status": "finished",
      "class": {
        "system": "http://terminology.hl7.org/CodeSystem/v3-ActCode",
        "code": "AMB",
        "display": "ambulatory"
      },
      "type": [ {
        "coding": [ {
          "system": "http://www.ama-assn.org/go/cpt",
          "version": "2024",
          "code": "99212"
        } ]
      } ],
      "subject": {
        "reference": "Patient/b74609f2-2fe7-4969-8b2b-215e7c21dfce"
      },
      "period": {
        "start": "2026-09-03T11:50:00.000+00:00",
        "end": "2026-09-03T12:00:00.000+00:00"
      },
      "length": {
        "value": 0,
        "unit": "days"
      }
    }
  }, {
    "fullUrl": "https://madie.cms.gov/AllergyIntolerance/461cea96-3e2a-4c35-a76f-f95f4418a1e5",
    "resource": {
      "resourceType": "AllergyIntolerance",
      "id": "461cea96-3e2a-4c35-a76f-f95f4418a1e5",
      "meta": {
        "profile": [ "http://hl7.org/fhir/us/qicore/StructureDefinition/qicore-allergyintolerance" ]
      },
      "clinicalStatus": {
        "coding": [ {
          "system": "http://terminology.hl7.org/CodeSystem/allergyintolerance-clinical",
          "code": "active",
          "display": "Active"
        } ]
      },
      "code": {
        "coding": [ {
          "system": "http://www.nlm.nih.gov/research/umls/rxnorm",
          "version": "04012024",
          "code": "10600"
        } ]
      },
      "patient": {
        "reference": "Patient/b74609f2-2fe7-4969-8b2b-215e7c21dfce"
      },
      "onsetPeriod": {
        "start": "2026-08-11T14:40:00.000+00:00"
      }
    }
  }, {
    "fullUrl": "https://madie.cms.gov/Condition/34a6db72-c708-4bcd-b3e0-c11736f3efb4",
    "resource": {
      "resourceType": "Condition",
      "id": "34a6db72-c708-4bcd-b3e0-c11736f3efb4",
      "meta": {
        "profile": [ "http://hl7.org/fhir/us/qicore/StructureDefinition/qicore-condition-problems-health-concerns" ]
      },
      "clinicalStatus": {
        "coding": [ {
          "system": "http://terminology.hl7.org/CodeSystem/condition-clinical",
          "code": "active",
          "display": "Active"
        } ]
      },
      "verificationStatus": {
        "coding": [ {
          "system": "http://terminology.hl7.org/CodeSystem/condition-ver-status",
          "code": "confirmed",
          "display": "Confirmed"
        } ]
      },
      "category": [ {
        "coding": [ {
          "system": "http://terminology.hl7.org/CodeSystem/condition-category",
          "code": "problem-list-item",
          "display": "Problem List Item"
        } ]
      } ],
      "code": {
        "coding": [ {
          "system": "http://hl7.org/fhir/sid/icd-10-cm",
          "version": "2024",
          "code": "I50.32"
        } ]
      },
      "subject": {
        "reference": "Patient/b74609f2-2fe7-4969-8b2b-215e7c21dfce"
      },
      "onsetPeriod": {
        "start": "2026-07-23T10:00:00.000+00:00"
      }
    }
  }, {
    "fullUrl": "https://madie.cms.gov/Condition/8b0f2d96-c57d-40e2-911b-954a1bb3465f",
    "resource": {
      "resourceType": "Condition",
      "id": "8b0f2d96-c57d-40e2-911b-954a1bb3465f",
      "meta": {
        "profile": [ "http://hl7.org/fhir/us/qicore/StructureDefinition/qicore-condition-problems-health-concerns" ]
      },
      "clinicalStatus": {
        "coding": [ {
          "system": "http://terminology.hl7.org/CodeSystem/condition-clinical",
          "code": "active",
          "display": "Active"
        } ]
      },
      "verificationStatus": {
        "coding": [ {
          "system": "http://terminology.hl7.org/CodeSystem/condition-ver-status",
          "code": "confirmed",
          "display": "Confirmed"
        } ]
      },
      "category": [ {
        "coding": [ {
          "system": "http://terminology.hl7.org/CodeSystem/condition-category",
          "code": "problem-list-item",
          "display": "Problem List Item"
        } ]
      } ],
      "code": {
        "coding": [ {
          "system": "http://snomed.info/sct",
          "version": "http://snomed.info/sct/731000124108/version/20250301",
          "code": "134401001",
          "display": "Left ventricular systolic dysfunction (disorder)"
        } ]
      },
      "subject": {
        "reference": "Patient/b74609f2-2fe7-4969-8b2b-215e7c21dfce"
      },
      "onsetPeriod": {
        "start": "2026-09-03T11:50:00.000+00:00"
      }
    }
  }, {
    "fullUrl": "https://madie.cms.gov/MeasureReport/3e793879-5a1a-4ef5-8dac-fd7ae13c7e5a",
    "resource": {
      "resourceType": "MeasureReport",
      "id": "3e793879-5a1a-4ef5-8dac-fd7ae13c7e5a",
      "meta": {
        "profile": [ "http://hl7.org/fhir/us/cqfmeasures/StructureDefinition/test-case-cqfm" ]
      },
      "contained": [ {
        "resourceType": "Parameters",
        "id": "60eb19e1-7666-41e2-81f2-3ceab990eb2d-parameters",
        "parameter": [ {
          "name": "subject",
          "valueString": "b74609f2-2fe7-4969-8b2b-215e7c21dfce"
        } ]
      } ],
      "extension": [ {
        "url": "http://hl7.org/fhir/StructureDefinition/cqf-inputParameters",
        "valueReference": {
          "reference": "#60eb19e1-7666-41e2-81f2-3ceab990eb2d-parameters"
        }
      }, {
        "url": "http://hl7.org/fhir/us/cqfmeasures/StructureDefinition/cqfm-testCaseDescription",
        "valueMarkdown": "Patient with two office visit encounters and heart failure diagnosis. Patient included in initial population due to 2 encounters during measurement period and HF diagnosis."
      } ],
      "modifierExtension": [ {
        "url": "http://hl7.org/fhir/us/cqfmeasures/StructureDefinition/cqfm-isTestCase",
        "valueBoolean": true
      } ],
      "status": "complete",
      "type": "individual",
      "measure": "https://madie.cms.gov/Measure/CMS144FHIRHFBetaBlockerForLVSD",
      "period": {
        "start": "2026-01-01",
        "end": "2026-12-31"
      },
      "group": [ {
        "id": "Group_1",
        "population": [ {
          "id": "InitialPopulation_1",
          "code": {
            "coding": [ {
              "system": "http://terminology.hl7.org/CodeSystem/measure-population",
              "code": "initial-population",
              "display": "Initial Population"
            } ]
          },
          "count": 1
        }, {
          "id": "Denominator_1",
          "code": {
            "coding": [ {
              "system": "http://terminology.hl7.org/CodeSystem/measure-population",
              "code": "denominator",
              "display": "Denominator"
            } ]
          },
          "count": 0
        }, {
          "id": "DenominatorExclusion_1",
          "code": {
            "coding": [ {
              "system": "http://terminology.hl7.org/CodeSystem/measure-population",
              "code": "denominator-exclusion",
              "display": "Denominator Exclusion"
            } ]
          },
          "count": 0
        }, {
          "id": "Numerator_1",
          "code": {
            "coding": [ {
              "system": "http://terminology.hl7.org/CodeSystem/measure-population",
              "code": "numerator",
              "display": "Numerator"
            } ]
          },
          "count": 0
        }, {
          "id": "DenominatorException_1",
          "code": {
            "coding": [ {
              "system": "http://terminology.hl7.org/CodeSystem/measure-population",
              "code": "denominator-exception",
              "display": "Denominator Exception"
            } ]
          },
          "count": 0
        } ],
        "measureScore": {
          "value": 1.0
        }
      } ],
      "evaluatedResource": [ {
        "reference": "Patient/b74609f2-2fe7-4969-8b2b-215e7c21dfce"
      }, {
        "reference": "Encounter/a6bebf9e-576f-4420-9fd3-272c43240bb5"
      }, {
        "reference": "Encounter/83b4454f-3077-40ec-bd1a-a07cec5286a7"
      }, {
        "reference": "AllergyIntolerance/461cea96-3e2a-4c35-a76f-f95f4418a1e5"
      }, {
        "reference": "Condition/34a6db72-c708-4bcd-b3e0-c11736f3efb4"
      }, {
        "reference": "Condition/8b0f2d96-c57d-40e2-911b-954a1bb3465f"
      } ]
    }
  } ]
}