{
  "resourceType": "Bundle",
  "id": "62f6754d5efef5272905e717",
  "type": "collection",
  "entry": [ {
    "fullUrl": "https://madie.cms.gov/Patient/41664f5f-5280-4b5b-a9f1-289a412dbc18",
    "resource": {
      "resourceType": "Patient",
      "id": "41664f5f-5280-4b5b-a9f1-289a412dbc18",
      "meta": {
        "profile": [ "http://hl7.org/fhir/us/qicore/StructureDefinition/qicore-patient" ]
      },
      "extension": [ {
        "url": "http://hl7.org/fhir/us/core/StructureDefinition/us-core-race",
        "extension": [ {
          "url": "ombCategory",
          "valueCoding": {
            "system": "urn:oid:2.16.840.1.113883.6.238",
            "code": "1002-5",
            "display": "American Indian or Alaska Native",
            "userSelected": true
          }
        }, {
          "url": "text",
          "valueString": "American Indian or Alaska Native"
        } ]
      }, {
        "url": "http://hl7.org/fhir/us/core/StructureDefinition/us-core-ethnicity",
        "extension": [ {
          "url": "ombCategory",
          "valueCoding": {
            "system": "urn:oid:2.16.840.1.113883.6.238",
            "code": "2135-2",
            "display": "Hispanic or Latino",
            "userSelected": true
          }
        }, {
          "url": "text",
          "valueString": "Hispanic or Latino"
        } ]
      }, {
        "url": "http://hl7.org/fhir/us/core/StructureDefinition/us-core-sex",
        "valueCode": "248153007"
      } ],
      "identifier": [ {
        "type": {
          "coding": [ {
            "system": "http://terminology.hl7.org/CodeSystem/v2-0203",
            "code": "MR"
          } ]
        },
        "system": "https://bonnie-fhir.healthit.gov/",
        "value": "62f6754d5efef5272905e717"
      } ],
      "name": [ {
        "family": "NUMERPass",
        "given": [ "12yoPosAdolDepScreenandFollowUpReferral" ]
      } ],
      "gender": "male",
      "birthDate": "2014-01-01"
    }
  }, {
    "fullUrl": "https://madie.cms.gov/Encounter/d3d2f6dd-c44e-4e5f-bd90-80dbab4ac8e6",
    "resource": {
      "resourceType": "Encounter",
      "id": "d3d2f6dd-c44e-4e5f-bd90-80dbab4ac8e6",
      "meta": {
        "profile": [ "http://hl7.org/fhir/us/qicore/StructureDefinition/qicore-encounter" ]
      },
      "status": "finished",
      "class": {
        "system": "http://terminology.hl7.org/CodeSystem/v3-ActCode",
        "code": "AMB",
        "display": "ambulatory"
      },
      "type": [ {
        "coding": [ {
          "system": "http://snomed.info/sct",
          "code": "10197000",
          "display": "Psychiatric interview and evaluation (procedure)",
          "userSelected": true
        } ]
      } ],
      "subject": {
        "reference": "Patient/41664f5f-5280-4b5b-a9f1-289a412dbc18"
      },
      "period": {
        "start": "2026-06-15T08:00:00.000Z",
        "end": "2026-06-21T08:15:00.000Z"
      }
    }
  }, {
    "fullUrl": "https://madie.cms.gov/Observation/8059d15a-047c-4db2-9b7d-52d85aab8b4e",
    "resource": {
      "resourceType": "Observation",
      "id": "8059d15a-047c-4db2-9b7d-52d85aab8b4e",
      "meta": {
        "profile": [ "http://hl7.org/fhir/us/qicore/StructureDefinition/qicore-observation-screening-assessment" ]
      },
      "status": "final",
      "category": [ {
        "coding": [ {
          "system": "http://terminology.hl7.org/CodeSystem/observation-category",
          "code": "procedure",
          "display": "Procedure"
        } ]
      }, {
        "coding": [ {
          "system": "http://terminology.hl7.org/CodeSystem/observation-category",
          "code": "survey",
          "display": "Survey"
        } ]
      } ],
      "code": {
        "coding": [ {
          "system": "http://loinc.org",
          "code": "73831-0",
          "display": "Adolescent depression screening assessment",
          "userSelected": true
        } ]
      },
      "subject": {
        "reference": "Patient/41664f5f-5280-4b5b-a9f1-289a412dbc18"
      },
      "effectiveDateTime": "2026-06-15T08:00:00.000Z",
      "valueCodeableConcept": {
        "coding": [ {
          "system": "http://snomed.info/sct",
          "code": "428181000124104",
          "display": "Depression screening positive (finding)",
          "userSelected": true
        } ]
      }
    }
  }, {
    "fullUrl": "https://madie.cms.gov/ServiceRequest/4ebe481c-00d7-4ab7-ad80-ee8db80ed236",
    "resource": {
      "resourceType": "ServiceRequest",
      "id": "4ebe481c-00d7-4ab7-ad80-ee8db80ed236",
      "meta": {
        "profile": [ "http://hl7.org/fhir/us/qicore/StructureDefinition/qicore-servicerequest" ]
      },
      "status": "active",
      "intent": "order",
      "doNotPerform": false,
      "code": {
        "coding": [ {
          "system": "http://snomed.info/sct",
          "code": "183524004",
          "display": "Referral to psychiatry service (procedure)",
          "userSelected": true
        } ]
      },
      "subject": {
        "reference": "Patient/41664f5f-5280-4b5b-a9f1-289a412dbc18"
      },
      "authoredOn": "2026-06-21T08:00:00.000Z"
    }
  }, {
    "fullUrl": "https://madie.cms.gov/Coverage/d9a16a66-a74a-4945-aed7-764494a83872",
    "resource": {
      "resourceType": "Coverage",
      "id": "d9a16a66-a74a-4945-aed7-764494a83872",
      "meta": {
        "profile": [ "http://hl7.org/fhir/us/qicore/StructureDefinition/qicore-coverage" ]
      },
      "status": "active",
      "type": {
        "coding": [ {
          "system": "https://nahdo.org/sopt",
          "code": "122",
          "display": "Medicare Drug Benefit",
          "userSelected": true
        } ]
      },
      "subscriberId": "123456789",
      "beneficiary": {
        "reference": "Patient/41664f5f-5280-4b5b-a9f1-289a412dbc18"
      },
      "relationship": {
        "coding": [ {
          "system": "http://terminology.hl7.org/CodeSystem/subscriber-relationship",
          "code": "self",
          "display": "Self",
          "userSelected": true
        } ]
      },
      "period": {
        "start": "2021-06-15T08:00:00.000Z",
        "end": "2026-06-21T08:15:00.000Z"
      },
      "payor": [ {
        "reference": "Organization/cfb4911c-c6c2-4e91-b10a-24a2460049f8"
      } ]
    }
  }, {
    "fullUrl": "https://madie.cms.gov/Organization/cfb4911c-c6c2-4e91-b10a-24a2460049f8",
    "resource": {
      "resourceType": "Organization",
      "id": "cfb4911c-c6c2-4e91-b10a-24a2460049f8",
      "meta": {
        "profile": [ "http://hl7.org/fhir/us/qicore/StructureDefinition/qicore-organization" ]
      },
      "identifier": [ {
        "use": "temp",
        "system": "urn:oid:2.16.840.1.113883.4.4",
        "value": "21-3259825"
      } ],
      "active": true,
      "type": [ {
        "coding": [ {
          "system": "http://terminology.hl7.org/CodeSystem/organization-type",
          "code": "pay",
          "display": "Payer"
        } ]
      } ],
      "name": "Blue Cross Blue Shield of Texas",
      "telecom": [ {
        "system": "phone",
        "value": "(+1) 972-766-6900"
      } ],
      "address": [ {
        "use": "billing",
        "type": "postal",
        "line": [ "P.O. Box 660044" ],
        "city": "Dallas",
        "state": "TX",
        "postalCode": "75266-0044",
        "country": "USA"
      } ]
    }
  }, {
    "fullUrl": "https://madie.cms.gov/Practitioner/ba1372bd-4606-4d6b-be94-eccabbe9d9c9",
    "resource": {
      "resourceType": "Practitioner",
      "id": "ba1372bd-4606-4d6b-be94-eccabbe9d9c9",
      "meta": {
        "profile": [ "http://hl7.org/fhir/us/qicore/StructureDefinition/qicore-practitioner" ]
      },
      "identifier": [ {
        "system": "http://hl7.org/fhir/sid/us-npi",
        "value": "1234567893"
      } ],
      "name": [ {
        "family": "Evil",
        "prefix": [ "Dr" ]
      } ]
    }
  }, {
    "fullUrl": "https://madie.cms.gov/MeasureReport/c5be1b06-9890-4429-bf47-9e6300c040d7",
    "resource": {
      "resourceType": "MeasureReport",
      "id": "c5be1b06-9890-4429-bf47-9e6300c040d7",
      "meta": {
        "profile": [ "http://hl7.org/fhir/us/cqfmeasures/StructureDefinition/test-case-cqfm" ]
      },
      "contained": [ {
        "resourceType": "Parameters",
        "id": "eb41fa19-7616-456b-960b-6ccac01655d4-parameters",
        "parameter": [ {
          "name": "subject",
          "valueString": "41664f5f-5280-4b5b-a9f1-289a412dbc18"
        } ]
      } ],
      "extension": [ {
        "url": "http://hl7.org/fhir/StructureDefinition/cqf-inputParameters",
        "valueReference": {
          "reference": "#eb41fa19-7616-456b-960b-6ccac01655d4-parameters"
        }
      }, {
        "url": "http://hl7.org/fhir/us/cqfmeasures/StructureDefinition/cqfm-testCaseDescription",
        "valueMarkdown": "12yo with previous positive adolescent depression screening and service request follow up"
      } ],
      "modifierExtension": [ {
        "url": "http://hl7.org/fhir/us/cqfmeasures/StructureDefinition/cqfm-isTestCase",
        "valueBoolean": true
      } ],
      "status": "complete",
      "type": "individual",
      "measure": "https://madie.cms.gov/Measure/CMS2FHIRPCSDepScreenAndFollowUp",
      "period": {
        "start": "2026-01-01",
        "end": "2026-12-31"
      },
      "group": [ {
        "id": "Group_1",
        "population": [ {
          "id": "InitialPopulation_1",
          "code": {
            "coding": [ {
              "system": "http://terminology.hl7.org/CodeSystem/measure-population",
              "code": "initial-population",
              "display": "Initial Population"
            } ]
          },
          "count": 1
        }, {
          "id": "Denominator_1",
          "code": {
            "coding": [ {
              "system": "http://terminology.hl7.org/CodeSystem/measure-population",
              "code": "denominator",
              "display": "Denominator"
            } ]
          },
          "count": 1
        }, {
          "id": "DenominatorExclusion_1",
          "code": {
            "coding": [ {
              "system": "http://terminology.hl7.org/CodeSystem/measure-population",
              "code": "denominator-exclusion",
              "display": "Denominator Exclusion"
            } ]
          },
          "count": 0
        }, {
          "id": "Numerator_1",
          "code": {
            "coding": [ {
              "system": "http://terminology.hl7.org/CodeSystem/measure-population",
              "code": "numerator",
              "display": "Numerator"
            } ]
          },
          "count": 1
        }, {
          "id": "DenominatorException_1",
          "code": {
            "coding": [ {
              "system": "http://terminology.hl7.org/CodeSystem/measure-population",
              "code": "denominator-exception",
              "display": "Denominator Exception"
            } ]
          },
          "count": 0
        } ],
        "measureScore": {
          "value": 1.0
        }
      } ],
      "evaluatedResource": [ {
        "reference": "Patient/41664f5f-5280-4b5b-a9f1-289a412dbc18"
      }, {
        "reference": "Encounter/d3d2f6dd-c44e-4e5f-bd90-80dbab4ac8e6"
      }, {
        "reference": "Observation/8059d15a-047c-4db2-9b7d-52d85aab8b4e"
      }, {
        "reference": "ServiceRequest/4ebe481c-00d7-4ab7-ad80-ee8db80ed236"
      }, {
        "reference": "Coverage/d9a16a66-a74a-4945-aed7-764494a83872"
      }, {
        "reference": "Organization/cfb4911c-c6c2-4e91-b10a-24a2460049f8"
      }, {
        "reference": "Practitioner/ba1372bd-4606-4d6b-be94-eccabbe9d9c9"
      } ]
    }
  } ]
}