{
  "resourceType": "Bundle",
  "id": "tests-NumerPass-OneHospitalizationTwoClaims-bundle",
  "type": "transaction",
  "entry": [ {
    "fullUrl": "https://madie.cms.gov/Encounter/b7067b04-e2c6-44d4-b91d-3cb02b7fb4e2",
    "resource": {
      "resourceType": "Encounter",
      "id": "b7067b04-e2c6-44d4-b91d-3cb02b7fb4e2",
      "meta": {
        "profile": [ "http://hl7.org/fhir/us/qicore/StructureDefinition/qicore-encounter" ]
      },
      "status": "finished",
      "class": {
        "system": "http://terminology.hl7.org/CodeSystem/v3-ActCode",
        "code": "IMP",
        "display": "inpatient encounter"
      },
      "type": [ {
        "coding": [ {
          "system": "http://snomed.info/sct",
          "code": "183452005",
          "display": "Emergency hospital admission"
        } ]
      } ],
      "subject": {
        "reference": "Patient/f18417e1-5990-40b7-b927-5b50015380a2"
      },
      "period": {
        "start": "2026-10-19T08:30:00.000+00:00",
        "end": "2026-10-21T08:15:00.000+00:00"
      },
      "reasonCode": [ {
        "coding": [ {
          "system": "http://snomed.info/sct",
          "code": "14047009"
        } ]
      }, {
        "coding": [ {
          "system": "http://snomed.info/sct",
          "code": "64859006"
        } ]
      } ]
    },
    "request": {
      "method": "PUT",
      "url": "Encounter/b7067b04-e2c6-44d4-b91d-3cb02b7fb4e2"
    }
  }, {
    "fullUrl": "https://madie.cms.gov/Encounter/e4285ad0-6f25-4f3e-953f-3bb60b7ca22e",
    "resource": {
      "resourceType": "Encounter",
      "id": "e4285ad0-6f25-4f3e-953f-3bb60b7ca22e",
      "meta": {
        "profile": [ "http://hl7.org/fhir/us/qicore/StructureDefinition/qicore-encounter" ]
      },
      "status": "finished",
      "class": {
        "system": "http://terminology.hl7.org/CodeSystem/v3-ActCode",
        "code": "EMER",
        "display": "emergency encounter"
      },
      "type": [ {
        "coding": [ {
          "system": "http://snomed.info/sct",
          "code": "4525004",
          "display": "Emergency department patient visit (procedure)"
        } ]
      } ],
      "subject": {
        "reference": "Patient/f18417e1-5990-40b7-b927-5b50015380a2"
      },
      "period": {
        "start": "2026-10-18T09:15:00.000+00:00",
        "end": "2026-10-19T08:15:00.000+00:00"
      }
    },
    "request": {
      "method": "PUT",
      "url": "Encounter/e4285ad0-6f25-4f3e-953f-3bb60b7ca22e"
    }
  }, {
    "fullUrl": "https://madie.cms.gov/Patient/f18417e1-5990-40b7-b927-5b50015380a2",
    "resource": {
      "resourceType": "Patient",
      "id": "f18417e1-5990-40b7-b927-5b50015380a2",
      "meta": {
        "profile": [ "http://hl7.org/fhir/us/qicore/StructureDefinition/qicore-patient" ]
      },
      "extension": [ {
        "url": "http://hl7.org/fhir/us/core/StructureDefinition/us-core-race",
        "extension": [ {
          "url": "ombCategory",
          "valueCoding": {
            "system": "urn:oid:2.16.840.1.113883.6.238",
            "code": "2106-3",
            "display": "White"
          }
        }, {
          "url": "text",
          "valueString": "White"
        } ]
      }, {
        "url": "http://hl7.org/fhir/us/core/StructureDefinition/us-core-ethnicity",
        "extension": [ {
          "url": "ombCategory",
          "valueCoding": {
            "system": "urn:oid:2.16.840.1.113883.6.238",
            "code": "2135-2",
            "display": "Hispanic or Latino"
          }
        }, {
          "url": "text",
          "valueString": "Hispanic or Latino"
        } ]
      }, {
        "url": "http://hl7.org/fhir/us/core/StructureDefinition/us-core-sex",
        "valueCode": "248153007"
      } ],
      "identifier": [ {
        "system": "http://hospital.smarthealthit.org",
        "value": "999999999"
      } ],
      "name": [ {
        "family": "Example",
        "given": [ "Patient" ]
      } ],
      "gender": "female",
      "birthDate": "1956-01-01"
    },
    "request": {
      "method": "PUT",
      "url": "Patient/f18417e1-5990-40b7-b927-5b50015380a2"
    }
  }, {
    "fullUrl": "https://madie.cms.gov/Claim/9dc12645-8540-4796-9097-3e2f20c61007",
    "resource": {
      "resourceType": "Claim",
      "id": "9dc12645-8540-4796-9097-3e2f20c61007",
      "meta": {
        "profile": [ "http://hl7.org/fhir/us/qicore/StructureDefinition/qicore-claim" ]
      },
      "status": "active",
      "type": {
        "coding": [ {
          "system": "http://terminology.hl7.org/CodeSystem/claim-type",
          "code": "institutional",
          "display": "Institutional"
        } ]
      },
      "use": "claim",
      "patient": {
        "reference": "Patient/f18417e1-5990-40b7-b927-5b50015380a2"
      },
      "created": "2026-10-22",
      "provider": {
        "reference": "Practitioner/5045ff3a-205a-4f43-b048-3de070301f74"
      },
      "priority": {
        "coding": [ {
          "system": "http://terminology.hl7.org/CodeSystem/processpriority",
          "code": "normal"
        } ]
      },
      "diagnosis": [ {
        "sequence": 1,
        "diagnosisCodeableConcept": {
          "coding": [ {
            "system": "http://snomed.info/sct",
            "code": "14047009"
          } ]
        }
      } ],
      "insurance": [ {
        "sequence": 1,
        "focal": true,
        "coverage": {
          "reference": "Coverage/a410e519-8df9-4d21-8488-070133d55211"
        }
      } ],
      "item": [ {
        "sequence": 1,
        "diagnosisSequence": [ 1, 2 ],
        "productOrService": {
          "coding": [ {
            "system": "http://terminology.hl7.org/CodeSystem/ex-USCLS",
            "code": "1101"
          } ]
        },
        "encounter": [ {
          "reference": "Encounter/b7067b04-e2c6-44d4-b91d-3cb02b7fb4e2"
        } ]
      } ]
    },
    "request": {
      "method": "PUT",
      "url": "Claim/9dc12645-8540-4796-9097-3e2f20c61007"
    }
  }, {
    "fullUrl": "https://madie.cms.gov/Claim/08f1a1ff-7d3c-4e99-bf6d-f68e87b8f110",
    "resource": {
      "resourceType": "Claim",
      "id": "08f1a1ff-7d3c-4e99-bf6d-f68e87b8f110",
      "meta": {
        "profile": [ "http://hl7.org/fhir/us/qicore/StructureDefinition/qicore-claim" ]
      },
      "status": "active",
      "type": {
        "coding": [ {
          "system": "http://terminology.hl7.org/CodeSystem/claim-type",
          "code": "institutional",
          "display": "Institutional"
        } ]
      },
      "use": "claim",
      "patient": {
        "reference": "Patient/f18417e1-5990-40b7-b927-5b50015380a2"
      },
      "created": "2026-11-01",
      "provider": {
        "reference": "Practitioner/5045ff3a-205a-4f43-b048-3de070301f74"
      },
      "priority": {
        "coding": [ {
          "system": "http://terminology.hl7.org/CodeSystem/processpriority",
          "code": "normal"
        } ]
      },
      "diagnosis": [ {
        "sequence": 1,
        "diagnosisCodeableConcept": {
          "coding": [ {
            "system": "http://hl7.org/fhir/sid/icd-10-cm",
            "code": "M80.00XA",
            "display": "Age-related osteoporosis with current pathological fracture, unspecified site, initial encounter for fracture"
          } ]
        }
      } ],
      "insurance": [ {
        "sequence": 1,
        "focal": true,
        "coverage": {
          "reference": "Coverage/a410e519-8df9-4d21-8488-070133d55211"
        }
      } ],
      "item": [ {
        "sequence": 1,
        "diagnosisSequence": [ 1, 2 ],
        "productOrService": {
          "coding": [ {
            "system": "http://terminology.hl7.org/CodeSystem/ex-USCLS",
            "code": "1101"
          } ]
        },
        "encounter": [ {
          "reference": "Encounter/b7067b04-e2c6-44d4-b91d-3cb02b7fb4e2"
        } ]
      } ]
    },
    "request": {
      "method": "PUT",
      "url": "Claim/08f1a1ff-7d3c-4e99-bf6d-f68e87b8f110"
    }
  }, {
    "fullUrl": "https://madie.cms.gov/Practitioner/5045ff3a-205a-4f43-b048-3de070301f74",
    "resource": {
      "resourceType": "Practitioner",
      "id": "5045ff3a-205a-4f43-b048-3de070301f74",
      "identifier": [ {
        "system": "http://www.cms.gov/identifiers/pracitioners",
        "value": "P12345"
      } ],
      "name": [ {
        "use": "official",
        "family": "Smith",
        "given": [ "John" ]
      } ],
      "qualification": [ {
        "identifier": [ {
          "system": "http://hl7.org/fhir/sid/us-npi",
          "value": "1234567890"
        } ],
        "code": {
          "coding": [ {
            "system": "http://terminology.hl7.org/CodeSystem/v2-0203",
            "code": "MD",
            "display": "Medical License number"
          } ]
        }
      } ]
    },
    "request": {
      "method": "PUT",
      "url": "Practitioner/5045ff3a-205a-4f43-b048-3de070301f74"
    }
  }, {
    "fullUrl": "https://madie.cms.gov/Coverage/a410e519-8df9-4d21-8488-070133d55211",
    "resource": {
      "resourceType": "Coverage",
      "id": "a410e519-8df9-4d21-8488-070133d55211",
      "status": "active",
      "beneficiary": {
        "reference": "Patient/f18417e1-5990-40b7-b927-5b50015380a2"
      },
      "payor": [ {
        "reference": "Organization/1bf008c4-4ca2-4d57-ade9-552ace94b4bc"
      } ]
    },
    "request": {
      "method": "PUT",
      "url": "Coverage/a410e519-8df9-4d21-8488-070133d55211"
    }
  }, {
    "fullUrl": "https://madie.cms.gov/Organization/1bf008c4-4ca2-4d57-ade9-552ace94b4bc",
    "resource": {
      "resourceType": "Organization",
      "id": "1bf008c4-4ca2-4d57-ade9-552ace94b4bc",
      "identifier": [ {
        "system": "http://cms.gov/insurance-ids",
        "value": "AET12345"
      } ],
      "type": [ {
        "coding": [ {
          "system": "http://terminology.hl7.org/CodeSystem/organization-type",
          "code": "prov",
          "display": "Healthcare Provider"
        } ]
      } ],
      "name": "Aetna Insurance",
      "telecom": [ {
        "system": "phone",
        "value": "+1-800-123-4567"
      } ],
      "address": [ {
        "line": [ "123 Main Street" ],
        "city": "Cityville",
        "state": "CA",
        "postalCode": "12345",
        "country": "USA"
      } ]
    },
    "request": {
      "method": "PUT",
      "url": "Organization/1bf008c4-4ca2-4d57-ade9-552ace94b4bc"
    }
  }, {
    "fullUrl": "https://madie.cms.gov/MeasureReport/1819fe1f-72fe-426e-b952-f48eea7162e4",
    "resource": {
      "resourceType": "MeasureReport",
      "id": "1819fe1f-72fe-426e-b952-f48eea7162e4",
      "meta": {
        "profile": [ "http://hl7.org/fhir/us/cqfmeasures/StructureDefinition/test-case-cqfm" ]
      },
      "contained": [ {
        "resourceType": "Parameters",
        "id": "c8a0aa8c-76ab-4fe6-a0ed-e794471258f3-parameters",
        "parameter": [ {
          "name": "subject",
          "valueString": "f18417e1-5990-40b7-b927-5b50015380a2"
        } ]
      } ],
      "extension": [ {
        "url": "http://hl7.org/fhir/StructureDefinition/cqf-inputParameters",
        "valueReference": {
          "reference": "#c8a0aa8c-76ab-4fe6-a0ed-e794471258f3-parameters"
        }
      }, {
        "url": "http://hl7.org/fhir/us/cqfmeasures/StructureDefinition/cqfm-testCaseDescription",
        "valueMarkdown": "Test Case - No POA in the bundle"
      } ],
      "modifierExtension": [ {
        "url": "http://hl7.org/fhir/us/cqfmeasures/StructureDefinition/cqfm-isTestCase",
        "valueBoolean": true
      } ],
      "status": "complete",
      "type": "individual",
      "measure": "https://madie.cms.gov/Measure/CMS1017FHIRHHFI",
      "period": {
        "start": "2026-01-01",
        "end": "2026-12-31"
      },
      "group": [ {
        "id": "Group_1",
        "population": [ {
          "id": "InitialPopulation_1",
          "code": {
            "coding": [ {
              "system": "http://terminology.hl7.org/CodeSystem/measure-population",
              "code": "initial-population",
              "display": "Initial Population"
            } ]
          },
          "count": 1
        }, {
          "id": "Denominator_1",
          "code": {
            "coding": [ {
              "system": "http://terminology.hl7.org/CodeSystem/measure-population",
              "code": "denominator",
              "display": "Denominator"
            } ]
          },
          "count": 1
        }, {
          "id": "DenominatorExclusion_1",
          "code": {
            "coding": [ {
              "system": "http://terminology.hl7.org/CodeSystem/measure-population",
              "code": "denominator-exclusion",
              "display": "Denominator Exclusion"
            } ]
          },
          "count": 0
        }, {
          "id": "Numerator_1",
          "code": {
            "coding": [ {
              "system": "http://terminology.hl7.org/CodeSystem/measure-population",
              "code": "numerator",
              "display": "Numerator"
            } ]
          },
          "count": 1
        }, {
          "id": "NumeratorExclusion_1",
          "code": {
            "coding": [ {
              "system": "http://terminology.hl7.org/CodeSystem/measure-population",
              "code": "numerator-exclusion",
              "display": "Numerator Exclusion"
            } ]
          },
          "count": 0
        }, {
          "id": "MeasureObservation_1_1_1",
          "code": {
            "coding": [ {
              "system": "http://terminology.hl7.org/CodeSystem/measure-population",
              "code": "measure-observation",
              "display": "Measure Observation"
            } ]
          },
          "count": 2
        }, {
          "id": "MeasureObservation_1_2_1",
          "code": {
            "coding": [ {
              "system": "http://terminology.hl7.org/CodeSystem/measure-population",
              "code": "measure-observation",
              "display": "Measure Observation"
            } ]
          },
          "count": 1
        } ],
        "measureScore": {
          "value": 0.0
        }
      } ],
      "evaluatedResource": [ {
        "reference": "Encounter/b7067b04-e2c6-44d4-b91d-3cb02b7fb4e2"
      }, {
        "reference": "Encounter/e4285ad0-6f25-4f3e-953f-3bb60b7ca22e"
      }, {
        "reference": "Patient/f18417e1-5990-40b7-b927-5b50015380a2"
      }, {
        "reference": "Claim/9dc12645-8540-4796-9097-3e2f20c61007"
      }, {
        "reference": "Claim/08f1a1ff-7d3c-4e99-bf6d-f68e87b8f110"
      }, {
        "reference": "Practitioner/5045ff3a-205a-4f43-b048-3de070301f74"
      }, {
        "reference": "Coverage/a410e519-8df9-4d21-8488-070133d55211"
      }, {
        "reference": "Organization/1bf008c4-4ca2-4d57-ade9-552ace94b4bc"
      } ]
    },
    "request": {
      "method": "PUT",
      "url": "MeasureReport/1819fe1f-72fe-426e-b952-f48eea7162e4"
    }
  } ]
}