{
  "resourceType": "Bundle",
  "id": "60f82c2f98086b570510e2c4",
  "type": "transaction",
  "entry": [ {
    "fullUrl": "https://madie.cms.gov/Patient/b3043789-f91a-42f6-848d-6bfd7df331fe",
    "resource": {
      "resourceType": "Patient",
      "id": "b3043789-f91a-42f6-848d-6bfd7df331fe",
      "meta": {
        "profile": [ "http://hl7.org/fhir/us/qicore/StructureDefinition/qicore-patient" ]
      },
      "text": {
        "status": "generated",
        "div": "<div xmlns=\"http://www.w3.org/1999/xhtml\"><div class=\"hapiHeaderText\">tPADuringInPatientEnc1DayAfterAdmit <b>DENEXPASS-LCG </b></div><table class=\"hapiPropertyTable\"><tbody><tr><td>Identifier</td><td>44863becbb7051abd5e1dad02ddaf594356b765d18873c1d70b102e9efc8cd0b</td></tr><tr><td>Date of birth</td><td><span>26 September 1975</span></td></tr></tbody></table></div>"
      },
      "extension": [ {
        "url": "http://hl7.org/fhir/us/core/StructureDefinition/us-core-race",
        "extension": [ {
          "url": "ombCategory",
          "valueCoding": {
            "system": "urn:oid:2.16.840.1.113883.6.238",
            "code": "2054-5",
            "display": "Black or African American",
            "userSelected": true
          }
        }, {
          "url": "text",
          "valueString": "Black or African American"
        } ]
      }, {
        "url": "http://hl7.org/fhir/us/core/StructureDefinition/us-core-ethnicity",
        "extension": [ {
          "url": "ombCategory",
          "valueCoding": {
            "system": "urn:oid:2.16.840.1.113883.6.238",
            "code": "2186-5",
            "display": "Not Hispanic or Latino",
            "userSelected": true
          }
        }, {
          "url": "text",
          "valueString": "Not Hispanic or Latino"
        } ]
      } ],
      "identifier": [ {
        "type": {
          "coding": [ {
            "system": "http://terminology.hl7.org/CodeSystem/v2-0203",
            "code": "MR"
          } ]
        },
        "system": "https://bonnie-fhir.healthit.gov/",
        "value": "60f82c2f98086b570510e2c4"
      } ],
      "active": true,
      "name": [ {
        "use": "usual",
        "family": "DENEXPass-LCG",
        "given": [ "tPADuringInPatientEnc1DayAfterAdmit" ]
      } ],
      "gender": "female",
      "birthDate": "1976-09-26"
    },
    "request": {
      "method": "PUT",
      "url": "Patient/b3043789-f91a-42f6-848d-6bfd7df331fe"
    }
  }, {
    "fullUrl": "https://madie.cms.gov/Encounter/3f2db41f-9e04-4124-8898-ee9eba50c393",
    "resource": {
      "resourceType": "Encounter",
      "id": "3f2db41f-9e04-4124-8898-ee9eba50c393",
      "meta": {
        "profile": [ "http://hl7.org/fhir/us/qicore/StructureDefinition/qicore-encounter" ]
      },
      "status": "finished",
      "class": {
        "system": "http://terminology.hl7.org/CodeSystem/v3-ActCode",
        "code": "EMER",
        "display": "emergency"
      },
      "type": [ {
        "coding": [ {
          "system": "http://snomed.info/sct",
          "code": "4525004"
        } ]
      } ],
      "subject": {
        "reference": "Patient/b3043789-f91a-42f6-848d-6bfd7df331fe"
      },
      "period": {
        "start": "2026-10-10T04:00:00.000+00:00",
        "end": "2026-10-10T10:30:00.000+00:00"
      },
      "length": {
        "value": 0,
        "unit": "days"
      }
    },
    "request": {
      "method": "PUT",
      "url": "Encounter/3f2db41f-9e04-4124-8898-ee9eba50c393"
    }
  }, {
    "fullUrl": "https://madie.cms.gov/Encounter/6e7c2c45-991d-4873-b9c4-6ea9e7c36c36",
    "resource": {
      "resourceType": "Encounter",
      "id": "6e7c2c45-991d-4873-b9c4-6ea9e7c36c36",
      "meta": {
        "profile": [ "http://hl7.org/fhir/us/qicore/StructureDefinition/qicore-encounter" ]
      },
      "status": "finished",
      "class": {
        "system": "http://terminology.hl7.org/CodeSystem/v3-ActCode",
        "code": "IMP",
        "display": "inpatient encounter"
      },
      "type": [ {
        "coding": [ {
          "system": "http://snomed.info/sct",
          "code": "32485007"
        } ]
      } ],
      "subject": {
        "reference": "Patient/b3043789-f91a-42f6-848d-6bfd7df331fe"
      },
      "period": {
        "start": "2026-10-11T11:00:00.000+00:00",
        "end": "2026-10-14T11:30:00.000+00:00"
      },
      "length": {
        "value": 3,
        "unit": "days"
      },
      "reasonReference": [ {
        "reference": "Condition/280ddc60-46d1-41eb-abcd-52bbb5374a58"
      } ]
    },
    "request": {
      "method": "PUT",
      "url": "Encounter/6e7c2c45-991d-4873-b9c4-6ea9e7c36c36"
    }
  }, {
    "fullUrl": "https://madie.cms.gov/Procedure/529d04d2-4ad0-4598-b47b-9de2b134c8e6",
    "resource": {
      "resourceType": "Procedure",
      "id": "529d04d2-4ad0-4598-b47b-9de2b134c8e6",
      "meta": {
        "profile": [ "http://hl7.org/fhir/us/qicore/StructureDefinition/qicore-procedure" ]
      },
      "extension": [ {
        "url": "http://hl7.org/fhir/us/qicore/StructureDefinition/qicore-recorded",
        "valueDateTime": "2026-11-19T13:35:00.000+00:00"
      } ],
      "status": "completed",
      "code": {
        "coding": [ {
          "system": "http://snomed.info/sct",
          "code": "307521008"
        } ]
      },
      "subject": {
        "reference": "Patient/b3043789-f91a-42f6-848d-6bfd7df331fe"
      },
      "performedPeriod": {
        "start": "2026-10-12T11:00:00.000+00:00",
        "end": "2026-10-14T11:30:00.000+00:00"
      }
    },
    "request": {
      "method": "PUT",
      "url": "Procedure/529d04d2-4ad0-4598-b47b-9de2b134c8e6"
    }
  }, {
    "fullUrl": "https://madie.cms.gov/Condition/280ddc60-46d1-41eb-abcd-52bbb5374a58",
    "resource": {
      "resourceType": "Condition",
      "id": "280ddc60-46d1-41eb-abcd-52bbb5374a58",
      "meta": {
        "profile": [ "http://hl7.org/fhir/us/qicore/StructureDefinition/qicore-condition-encounter-diagnosis" ]
      },
      "clinicalStatus": {
        "coding": [ {
          "system": "http://terminology.hl7.org/CodeSystem/condition-clinical",
          "code": "active"
        } ]
      },
      "verificationStatus": {
        "coding": [ {
          "system": "http://terminology.hl7.org/CodeSystem/condition-ver-status",
          "code": "confirmed"
        } ]
      },
      "category": [ {
        "coding": [ {
          "system": "http://terminology.hl7.org/CodeSystem/condition-category",
          "code": "encounter-diagnosis",
          "display": "Encounter Diagnosis"
        } ]
      } ],
      "code": {
        "coding": [ {
          "system": "http://snomed.info/sct",
          "version": "2020-09",
          "code": "111297002",
          "display": "Nonparalytic stroke (disorder)",
          "userSelected": true
        } ]
      },
      "subject": {
        "reference": "Patient/b3043789-f91a-42f6-848d-6bfd7df331fe"
      },
      "encounter": {
        "reference": "Encounter/6e7c2c45-991d-4873-b9c4-6ea9e7c36c36"
      },
      "recordedDate": "2026-08-13T08:00:00.000+00:00"
    },
    "request": {
      "method": "PUT",
      "url": "Condition/280ddc60-46d1-41eb-abcd-52bbb5374a58"
    }
  }, {
    "fullUrl": "https://madie.cms.gov/claim/5ca62962b8484628b8de1ec5",
    "resource": {
      "resourceType": "Claim",
      "id": "5ca62962b8484628b8de1ec5",
      "meta": {
        "profile": [ "http://hl7.org/fhir/us/qicore/StructureDefinition/qicore-claim" ]
      },
      "status": "active",
      "type": {
        "coding": [ {
          "system": "http://terminology.hl7.org/CodeSystem/claim-type",
          "code": "institutional"
        } ]
      },
      "use": "claim",
      "patient": {
        "reference": "Patient/5450abfd-a667-4eb9-9b59-e85feed4865c"
      },
      "created": "2026-12-01",
      "provider": {
        "reference": "Practitioner/563e0d94-43fe-4c7c-8050-50e6b8e01d2e"
      },
      "priority": {
        "coding": [ {
          "system": "http://terminology.hl7.org/CodeSystem/processpriority",
          "code": "normal"
        } ]
      },
      "diagnosis": [ {
        "sequence": 1,
        "diagnosisCodeableConcept": {
          "coding": [ {
            "system": "http://hl7.org/fhir/sid/icd-10-cm",
            "code": "I63.00"
          } ]
        },
        "type": [ {
          "coding": [ {
            "system": "http://terminology.hl7.org/CodeSystem/ex-diagnosistype",
            "code": "principal"
          } ]
        } ]
      } ],
      "insurance": [ {
        "sequence": 1,
        "focal": true,
        "coverage": {
          "reference": "Coverage/5fa041661c76ba66d9959367"
        }
      } ],
      "item": [ {
        "sequence": 1,
        "diagnosisSequence": [ 1 ],
        "productOrService": {
          "coding": [ {
            "system": "http://terminology.hl7.org/CodeSystem/ex-USCLS",
            "code": "99555"
          } ]
        },
        "encounter": [ {
          "reference": "Encounter/6e7c2c45-991d-4873-b9c4-6ea9e7c36c36"
        } ]
      } ]
    },
    "request": {
      "method": "PUT",
      "url": "Claim/5ca62962b8484628b8de1ec5"
    }
  }, {
    "fullUrl": "https://madie.cms.gov/Coverage/c2975a90-9dca-458b-8250-ee27e7b80d87",
    "resource": {
      "resourceType": "Coverage",
      "id": "c2975a90-9dca-458b-8250-ee27e7b80d87",
      "meta": {
        "profile": [ "http://hl7.org/fhir/us/qicore/StructureDefinition/qicore-coverage" ]
      },
      "status": "active",
      "beneficiary": {
        "reference": "Patient/b3043789-f91a-42f6-848d-6bfd7df331fe"
      },
      "payor": [ {
        "reference": "Organization/f67cd6e3-5458-4b6f-ac15-cbdbd3c9879d"
      } ]
    },
    "request": {
      "method": "PUT",
      "url": "Coverage/c2975a90-9dca-458b-8250-ee27e7b80d87"
    }
  }, {
    "fullUrl": "https://madie.cms.gov/Organization/f67cd6e3-5458-4b6f-ac15-cbdbd3c9879d",
    "resource": {
      "resourceType": "Organization",
      "id": "f67cd6e3-5458-4b6f-ac15-cbdbd3c9879d",
      "meta": {
        "profile": [ "http://hl7.org/fhir/us/qicore/StructureDefinition/qicore-organization" ]
      },
      "identifier": [ {
        "use": "temp",
        "system": "urn:oid:2.16.840.1.113883.4.4",
        "value": "21-3259825"
      } ],
      "active": true,
      "type": [ {
        "coding": [ {
          "system": "http://terminology.hl7.org/CodeSystem/organization-type",
          "code": "pay",
          "display": "Payer"
        } ]
      } ],
      "name": "Blue Cross Blue Shield of Texas",
      "telecom": [ {
        "system": "phone",
        "value": "(+1) 972-766-6900"
      } ],
      "address": [ {
        "use": "billing",
        "type": "postal",
        "line": [ "P.O. Box 660044" ],
        "city": "Dallas",
        "state": "TX",
        "postalCode": "75266-0044",
        "country": "USA"
      } ]
    },
    "request": {
      "method": "PUT",
      "url": "Organization/f67cd6e3-5458-4b6f-ac15-cbdbd3c9879d"
    }
  }, {
    "fullUrl": "https://madie.cms.gov/Practitioner/563e0d94-43fe-4c7c-8050-50e6b8e01d2e",
    "resource": {
      "resourceType": "Practitioner",
      "id": "563e0d94-43fe-4c7c-8050-50e6b8e01d2e",
      "identifier": [ {
        "system": "http://hl7.org/fhir/sid/us-npi",
        "value": "123456"
      } ],
      "name": [ {
        "family": "Evil",
        "prefix": [ "Dr" ]
      } ]
    },
    "request": {
      "method": "PUT",
      "url": "Practitioner/563e0d94-43fe-4c7c-8050-50e6b8e01d2e"
    }
  }, {
    "fullUrl": "https://madie.cms.gov/MeasureReport/aada6a1f-4cae-4ada-b4eb-f65a04d843b3",
    "resource": {
      "resourceType": "MeasureReport",
      "id": "aada6a1f-4cae-4ada-b4eb-f65a04d843b3",
      "meta": {
        "profile": [ "http://hl7.org/fhir/us/cqfmeasures/StructureDefinition/test-case-cqfm" ]
      },
      "contained": [ {
        "resourceType": "Parameters",
        "id": "1b46f9ff-e918-4bb1-85a0-633d54b7dab3-parameters",
        "parameter": [ {
          "name": "subject",
          "valueString": "b3043789-f91a-42f6-848d-6bfd7df331fe"
        } ]
      } ],
      "extension": [ {
        "url": "http://hl7.org/fhir/StructureDefinition/cqf-inputParameters",
        "valueReference": {
          "reference": "#1b46f9ff-e918-4bb1-85a0-633d54b7dab3-parameters"
        }
      }, {
        "url": "http://hl7.org/fhir/us/cqfmeasures/StructureDefinition/cqfm-testCaseDescription",
        "valueMarkdown": " Patient received tPA  one day after admission to inpatient hospitalization \n"
      } ],
      "modifierExtension": [ {
        "url": "http://hl7.org/fhir/us/cqfmeasures/StructureDefinition/cqfm-isTestCase",
        "valueBoolean": true
      } ],
      "status": "complete",
      "type": "individual",
      "measure": "https://madie.cms.gov/Measure/CMS72FHIRSTKAntithromboticDay2",
      "period": {
        "start": "2026-01-01",
        "end": "2026-12-31"
      },
      "group": [ {
        "id": "Group_1",
        "population": [ {
          "id": "InitialPopulation_1",
          "code": {
            "coding": [ {
              "system": "http://terminology.hl7.org/CodeSystem/measure-population",
              "code": "initial-population",
              "display": "Initial Population"
            } ]
          },
          "count": 1
        }, {
          "id": "Denominator_1",
          "code": {
            "coding": [ {
              "system": "http://terminology.hl7.org/CodeSystem/measure-population",
              "code": "denominator",
              "display": "Denominator"
            } ]
          },
          "count": 1
        }, {
          "id": "DenominatorExclusion_1",
          "code": {
            "coding": [ {
              "system": "http://terminology.hl7.org/CodeSystem/measure-population",
              "code": "denominator-exclusion",
              "display": "Denominator Exclusion"
            } ]
          },
          "count": 1
        }, {
          "id": "Numerator_1",
          "code": {
            "coding": [ {
              "system": "http://terminology.hl7.org/CodeSystem/measure-population",
              "code": "numerator",
              "display": "Numerator"
            } ]
          },
          "count": 0
        }, {
          "id": "DenominatorException_1",
          "code": {
            "coding": [ {
              "system": "http://terminology.hl7.org/CodeSystem/measure-population",
              "code": "denominator-exception",
              "display": "Denominator Exception"
            } ]
          },
          "count": 0
        } ],
        "measureScore": {
          "value": 0.0
        }
      } ],
      "evaluatedResource": [ {
        "reference": "Patient/b3043789-f91a-42f6-848d-6bfd7df331fe"
      }, {
        "reference": "Encounter/3f2db41f-9e04-4124-8898-ee9eba50c393"
      }, {
        "reference": "Encounter/6e7c2c45-991d-4873-b9c4-6ea9e7c36c36"
      }, {
        "reference": "Procedure/529d04d2-4ad0-4598-b47b-9de2b134c8e6"
      }, {
        "reference": "Condition/280ddc60-46d1-41eb-abcd-52bbb5374a58"
      }, {
        "reference": "Claim/5ca62962b8484628b8de1ec5"
      }, {
        "reference": "Coverage/c2975a90-9dca-458b-8250-ee27e7b80d87"
      }, {
        "reference": "Organization/f67cd6e3-5458-4b6f-ac15-cbdbd3c9879d"
      }, {
        "reference": "Practitioner/563e0d94-43fe-4c7c-8050-50e6b8e01d2e"
      } ]
    },
    "request": {
      "method": "PUT",
      "url": "MeasureReport/aada6a1f-4cae-4ada-b4eb-f65a04d843b3"
    }
  } ]
}