{
  "resourceType": "Bundle",
  "id": "63487c2d0968f80122540152",
  "type": "transaction",
  "entry": [ {
    "fullUrl": "https://madie.cms.gov/Patient/3c63b420-89fb-4062-9319-ea509a3192c8",
    "resource": {
      "resourceType": "Patient",
      "id": "3c63b420-89fb-4062-9319-ea509a3192c8",
      "meta": {
        "profile": [ "http://hl7.org/fhir/us/qicore/StructureDefinition/qicore-patient" ]
      },
      "text": {
        "status": "generated",
        "div": "<div xmlns=\"http://www.w3.org/1999/xhtml\"><div class=\"hapiHeaderText\">ProcCsectEndEQDelivEncEnd<b>NUMPASS</b></div><table class=\"hapiPropertyTable\"><tbody><tr><td>Identifier</td><td>a67ba324e458907a26a4b913484bc8c56e2f861e5f9a2d3286226ca477cf0053</td></tr><tr><td>Date of birth</td><td><span>14 February 1985</span></td></tr></tbody></table></div>"
      },
      "extension": [ {
        "url": "http://hl7.org/fhir/us/core/StructureDefinition/us-core-race",
        "extension": [ {
          "url": "ombCategory",
          "valueCoding": {
            "system": "urn:oid:2.16.840.1.113883.6.238",
            "code": "1002-5",
            "display": "American Indian or Alaska Native",
            "userSelected": true
          }
        }, {
          "url": "text",
          "valueString": "American Indian or Alaska Native"
        } ]
      }, {
        "url": "http://hl7.org/fhir/us/core/StructureDefinition/us-core-ethnicity",
        "extension": [ {
          "url": "ombCategory",
          "valueCoding": {
            "system": "urn:oid:2.16.840.1.113883.6.238",
            "code": "2135-2",
            "display": "Hispanic or Latino",
            "userSelected": true
          }
        }, {
          "url": "text",
          "valueString": "Hispanic or Latino"
        } ]
      } ],
      "identifier": [ {
        "type": {
          "coding": [ {
            "system": "http://terminology.hl7.org/CodeSystem/v2-0203",
            "code": "MR"
          } ]
        },
        "system": "https://bonnie-fhir.healthit.gov/",
        "value": "63487c2d0968f80122540152"
      } ],
      "active": true,
      "name": [ {
        "use": "usual",
        "family": "NUMPass",
        "given": [ "ProcCsectEndEQDelivEncEnd" ]
      } ],
      "gender": "female",
      "birthDate": "1998-02-14"
    },
    "request": {
      "method": "PUT",
      "url": "Patient/3c63b420-89fb-4062-9319-ea509a3192c8"
    }
  }, {
    "fullUrl": "https://madie.cms.gov/Observation/54dc114e-5452-4bb2-831d-01dec8cb3c2e",
    "resource": {
      "resourceType": "Observation",
      "id": "54dc114e-5452-4bb2-831d-01dec8cb3c2e",
      "meta": {
        "profile": [ "http://hl7.org/fhir/us/qicore/StructureDefinition/qicore-simple-observation" ]
      },
      "status": "final",
      "category": [ {
        "coding": [ {
          "system": "http://terminology.hl7.org/CodeSystem/observation-category",
          "code": "exam",
          "display": "exam",
          "userSelected": true
        } ]
      } ],
      "code": {
        "coding": [ {
          "system": "http://loinc.org",
          "code": "11996-6"
        } ]
      },
      "subject": {
        "reference": "Patient/3c63b420-89fb-4062-9319-ea509a3192c8"
      },
      "effectiveDateTime": "2026-02-09T08:00:00.000+00:00",
      "performer": [ {
        "reference": "Organization/example1",
        "display": "Hendricks Country Hospital"
      } ],
      "valueInteger": 1
    },
    "request": {
      "method": "PUT",
      "url": "Observation/54dc114e-5452-4bb2-831d-01dec8cb3c2e"
    }
  }, {
    "fullUrl": "https://madie.cms.gov/Observation/651e241d-5c03-42ca-ab6d-f28e83ae8e7f",
    "resource": {
      "resourceType": "Observation",
      "id": "651e241d-5c03-42ca-ab6d-f28e83ae8e7f",
      "meta": {
        "profile": [ "http://hl7.org/fhir/us/qicore/StructureDefinition/qicore-simple-observation" ]
      },
      "status": "final",
      "category": [ {
        "coding": [ {
          "system": "http://terminology.hl7.org/CodeSystem/observation-category",
          "code": "exam",
          "display": "exam",
          "userSelected": true
        } ]
      } ],
      "code": {
        "coding": [ {
          "system": "http://loinc.org",
          "code": "11884-4"
        } ]
      },
      "subject": {
        "reference": "Patient/3c63b420-89fb-4062-9319-ea509a3192c8"
      },
      "effectiveDateTime": "2026-11-28T21:15:00.000+00:00",
      "performer": [ {
        "reference": "Organization/example1",
        "display": "Hendricks Country Hospital"
      } ],
      "valueQuantity": {
        "value": 40,
        "system": "http://unitsofmeasure.org",
        "code": "wk"
      }
    },
    "request": {
      "method": "PUT",
      "url": "Observation/651e241d-5c03-42ca-ab6d-f28e83ae8e7f"
    }
  }, {
    "fullUrl": "https://madie.cms.gov/Observation/154608a0-cca4-4b76-9e4d-1fd3f85d1383",
    "resource": {
      "resourceType": "Observation",
      "id": "154608a0-cca4-4b76-9e4d-1fd3f85d1383",
      "meta": {
        "profile": [ "http://hl7.org/fhir/us/qicore/StructureDefinition/qicore-simple-observation" ]
      },
      "status": "final",
      "category": [ {
        "coding": [ {
          "system": "http://terminology.hl7.org/CodeSystem/observation-category",
          "code": "exam",
          "display": "exam",
          "userSelected": true
        } ]
      } ],
      "code": {
        "coding": [ {
          "system": "http://loinc.org",
          "code": "93857-1"
        } ]
      },
      "subject": {
        "reference": "Patient/3c63b420-89fb-4062-9319-ea509a3192c8"
      },
      "effectiveDateTime": "2026-11-28T21:15:00.000+00:00",
      "performer": [ {
        "reference": "Organization/example1",
        "display": "Hendricks Country Hospital"
      } ],
      "valueDateTime": "2026-11-28T21:15:00.000+00:00"
    },
    "request": {
      "method": "PUT",
      "url": "Observation/154608a0-cca4-4b76-9e4d-1fd3f85d1383"
    }
  }, {
    "fullUrl": "https://madie.cms.gov/Encounter/59366087-6326-4ec0-b648-b072853d6263",
    "resource": {
      "resourceType": "Encounter",
      "id": "59366087-6326-4ec0-b648-b072853d6263",
      "meta": {
        "profile": [ "http://hl7.org/fhir/us/qicore/StructureDefinition/qicore-encounter" ]
      },
      "status": "finished",
      "class": {
        "system": "http://terminology.hl7.org/CodeSystem/v3-ActCode",
        "code": "IMP",
        "display": "inpatient encounter"
      },
      "type": [ {
        "coding": [ {
          "system": "http://snomed.info/sct",
          "code": "8715000"
        } ]
      } ],
      "subject": {
        "reference": "Patient/3c63b420-89fb-4062-9319-ea509a3192c8"
      },
      "period": {
        "start": "2026-11-28T08:00:00.000+00:00",
        "end": "2026-11-30T08:15:00.000+00:00"
      },
      "reasonCode": [ {
        "coding": [ {
          "system": "http://snomed.info/sct",
          "code": "169826009",
          "display": "Single live birth from singleton pregnancy (finding)"
        } ]
      } ]
    },
    "request": {
      "method": "PUT",
      "url": "Encounter/59366087-6326-4ec0-b648-b072853d6263"
    }
  }, {
    "fullUrl": "https://madie.cms.gov/Procedure/a0289474-15a7-439e-b627-c8d7136461f9",
    "resource": {
      "resourceType": "Procedure",
      "id": "a0289474-15a7-439e-b627-c8d7136461f9",
      "meta": {
        "profile": [ "http://hl7.org/fhir/us/qicore/StructureDefinition/qicore-procedure" ]
      },
      "extension": [ {
        "url": "http://hl7.org/fhir/us/qicore/StructureDefinition/qicore-recorded",
        "valueDateTime": "2014-04-05T13:35:00.000+00:00"
      } ],
      "status": "completed",
      "code": {
        "coding": [ {
          "system": "http://www.cms.gov/Medicare/Coding/ICD10",
          "code": "10D00Z1"
        } ]
      },
      "subject": {
        "reference": "Patient/3c63b420-89fb-4062-9319-ea509a3192c8"
      },
      "performedPeriod": {
        "start": "2026-11-30T07:00:00.000+00:00",
        "end": "2026-11-30T08:15:00.000+00:00"
      }
    },
    "request": {
      "method": "PUT",
      "url": "Procedure/a0289474-15a7-439e-b627-c8d7136461f9"
    }
  }, {
    "fullUrl": "https://madie.cms.gov/Condition/ca7c1fd3-bb31-4fe4-8383-2c8e1cd3fb58",
    "resource": {
      "resourceType": "Condition",
      "id": "ca7c1fd3-bb31-4fe4-8383-2c8e1cd3fb58",
      "meta": {
        "profile": [ "http://hl7.org/fhir/us/qicore/StructureDefinition/qicore-condition" ]
      },
      "category": [ {
        "coding": [ {
          "system": "http://terminology.hl7.org/CodeSystem/condition-category",
          "code": "encounter-diagnosis",
          "display": "Encounter Diagnosis"
        } ]
      } ],
      "code": {
        "coding": [ {
          "system": "http://snomed.info/sct",
          "version": "2022-09",
          "code": "169826009",
          "display": "Single live birth (finding)",
          "userSelected": true
        } ]
      },
      "subject": {
        "reference": "Patient/3c63b420-89fb-4062-9319-ea509a3192c8"
      },
      "recordedDate": "2026-10-17T08:00:00.000+00:00"
    },
    "request": {
      "method": "PUT",
      "url": "Condition/ca7c1fd3-bb31-4fe4-8383-2c8e1cd3fb58"
    }
  }, {
    "fullUrl": "https://madie.cms.gov/Coverage/1e05e1db-dec4-401f-818f-cf79c5869941",
    "resource": {
      "resourceType": "Coverage",
      "id": "1e05e1db-dec4-401f-818f-cf79c5869941",
      "meta": {
        "profile": [ "http://hl7.org/fhir/us/qicore/StructureDefinition/qicore-coverage" ]
      },
      "status": "active",
      "subscriberId": "523435",
      "beneficiary": {
        "reference": "Patient/3c63b420-89fb-4062-9319-ea509a3192c8"
      },
      "relationship": {
        "coding": [ {
          "system": "http://terminology.hl7.org/CodeSystem/subscriber-relationship",
          "code": "self"
        } ]
      },
      "payor": [ {
        "reference": "Organization/932d42c7-f384-48ef-aec3-e3ae74415f89"
      } ]
    },
    "request": {
      "method": "PUT",
      "url": "Coverage/1e05e1db-dec4-401f-818f-cf79c5869941"
    }
  }, {
    "fullUrl": "https://madie.cms.gov/Organization/932d42c7-f384-48ef-aec3-e3ae74415f89",
    "resource": {
      "resourceType": "Organization",
      "id": "932d42c7-f384-48ef-aec3-e3ae74415f89",
      "meta": {
        "profile": [ "http://hl7.org/fhir/us/qicore/StructureDefinition/qicore-organization" ]
      },
      "identifier": [ {
        "use": "temp",
        "system": "urn:oid:2.16.840.1.113883.4.4",
        "value": "21-3259825"
      } ],
      "active": true,
      "type": [ {
        "coding": [ {
          "system": "http://terminology.hl7.org/CodeSystem/organization-type",
          "code": "pay",
          "display": "Payer"
        } ]
      } ],
      "name": "Blue Cross Blue Shield of Texas",
      "telecom": [ {
        "system": "phone",
        "value": "(+1) 972-766-6900"
      } ],
      "address": [ {
        "use": "billing",
        "type": "postal",
        "line": [ "P.O. Box 660044" ],
        "city": "Dallas",
        "state": "TX",
        "postalCode": "75266-0044",
        "country": "USA"
      } ]
    },
    "request": {
      "method": "PUT",
      "url": "Organization/932d42c7-f384-48ef-aec3-e3ae74415f89"
    }
  }, {
    "fullUrl": "https://madie.cms.gov/Practitioner/6d2315da-429c-4d5e-9625-eeb6cca63d6d",
    "resource": {
      "resourceType": "Practitioner",
      "id": "6d2315da-429c-4d5e-9625-eeb6cca63d6d",
      "meta": {
        "profile": [ "http://hl7.org/fhir/us/qicore/StructureDefinition/qicore-practitioner" ]
      },
      "identifier": [ {
        "system": "http://hl7.org/fhir/sid/us-npi",
        "value": "1234567890"
      } ],
      "name": [ {
        "family": "Evil",
        "prefix": [ "Dr" ]
      } ]
    },
    "request": {
      "method": "PUT",
      "url": "Practitioner/6d2315da-429c-4d5e-9625-eeb6cca63d6d"
    }
  }, {
    "fullUrl": "https://madie.cms.gov/MeasureReport/d3193a58-a754-4aa5-9646-973d4ee838f9",
    "resource": {
      "resourceType": "MeasureReport",
      "id": "d3193a58-a754-4aa5-9646-973d4ee838f9",
      "meta": {
        "profile": [ "http://hl7.org/fhir/us/cqfmeasures/StructureDefinition/test-case-cqfm" ]
      },
      "contained": [ {
        "resourceType": "Parameters",
        "id": "b8967268-f164-4692-ba1e-ea81390bf05a-parameters",
        "parameter": [ {
          "name": "subject",
          "valueString": "3c63b420-89fb-4062-9319-ea509a3192c8"
        } ]
      } ],
      "extension": [ {
        "url": "http://hl7.org/fhir/StructureDefinition/cqf-inputParameters",
        "valueReference": {
          "reference": "#b8967268-f164-4692-ba1e-ea81390bf05a-parameters"
        }
      }, {
        "url": "http://hl7.org/fhir/us/cqfmeasures/StructureDefinition/cqfm-testCaseDescription",
        "valueMarkdown": "Passes IP, DEN, NUM; Gravida 1(effective date 42 weeks)  and EGA 40 weeks;  End of Proc Csect equals end of Delivery Encounter."
      } ],
      "modifierExtension": [ {
        "url": "http://hl7.org/fhir/us/cqfmeasures/StructureDefinition/cqfm-isTestCase",
        "valueBoolean": true
      } ],
      "status": "complete",
      "type": "individual",
      "measure": "https://madie.cms.gov/Measure/CMS0334FHIRPCCesareanBirth",
      "period": {
        "start": "2026-01-01",
        "end": "2026-12-31"
      },
      "group": [ {
        "id": "Group_1",
        "population": [ {
          "id": "InitialPopulation_1",
          "code": {
            "coding": [ {
              "system": "http://terminology.hl7.org/CodeSystem/measure-population",
              "code": "initial-population",
              "display": "Initial Population"
            } ]
          },
          "count": 1
        }, {
          "id": "Denominator_1",
          "code": {
            "coding": [ {
              "system": "http://terminology.hl7.org/CodeSystem/measure-population",
              "code": "denominator",
              "display": "Denominator"
            } ]
          },
          "count": 1
        }, {
          "id": "DenominatorExclusion_1",
          "code": {
            "coding": [ {
              "system": "http://terminology.hl7.org/CodeSystem/measure-population",
              "code": "denominator-exclusion",
              "display": "Denominator Exclusion"
            } ]
          },
          "count": 0
        }, {
          "id": "Numerator_1",
          "code": {
            "coding": [ {
              "system": "http://terminology.hl7.org/CodeSystem/measure-population",
              "code": "numerator",
              "display": "Numerator"
            } ]
          },
          "count": 1
        } ],
        "measureScore": {
          "value": 0.0
        }
      } ],
      "evaluatedResource": [ {
        "reference": "Patient/3c63b420-89fb-4062-9319-ea509a3192c8"
      }, {
        "reference": "Observation/54dc114e-5452-4bb2-831d-01dec8cb3c2e"
      }, {
        "reference": "Observation/651e241d-5c03-42ca-ab6d-f28e83ae8e7f"
      }, {
        "reference": "Observation/154608a0-cca4-4b76-9e4d-1fd3f85d1383"
      }, {
        "reference": "Encounter/59366087-6326-4ec0-b648-b072853d6263"
      }, {
        "reference": "Procedure/a0289474-15a7-439e-b627-c8d7136461f9"
      }, {
        "reference": "Condition/ca7c1fd3-bb31-4fe4-8383-2c8e1cd3fb58"
      }, {
        "reference": "Coverage/1e05e1db-dec4-401f-818f-cf79c5869941"
      }, {
        "reference": "Organization/932d42c7-f384-48ef-aec3-e3ae74415f89"
      }, {
        "reference": "Practitioner/6d2315da-429c-4d5e-9625-eeb6cca63d6d"
      } ]
    },
    "request": {
      "method": "PUT",
      "url": "MeasureReport/d3193a58-a754-4aa5-9646-973d4ee838f9"
    }
  } ]
}