{
  "resourceType": "Bundle",
  "id": "62fbe41abf5132f90ee35d36",
  "type": "collection",
  "entry": [ {
    "fullUrl": "https://madie.cms.gov/Patient/45b1ce40-0f49-4559-8c3b-5c2a8070b0a7",
    "resource": {
      "resourceType": "Patient",
      "id": "45b1ce40-0f49-4559-8c3b-5c2a8070b0a7",
      "meta": {
        "profile": [ "http://hl7.org/fhir/us/qicore/StructureDefinition/qicore-patient" ]
      },
      "extension": [ {
        "url": "http://hl7.org/fhir/us/core/StructureDefinition/us-core-race",
        "extension": [ {
          "url": "ombCategory",
          "valueCoding": {
            "system": "urn:oid:2.16.840.1.113883.6.238",
            "code": "2054-5",
            "display": "Black or African American",
            "userSelected": true
          }
        }, {
          "url": "text",
          "valueString": "Black or African American"
        } ]
      }, {
        "url": "http://hl7.org/fhir/us/core/StructureDefinition/us-core-ethnicity",
        "extension": [ {
          "url": "ombCategory",
          "valueCoding": {
            "system": "urn:oid:2.16.840.1.113883.6.238",
            "code": "2186-5",
            "display": "Not Hispanic or Latino",
            "userSelected": true
          }
        }, {
          "url": "text",
          "valueString": "Not Hispanic or Latino"
        } ]
      } ],
      "identifier": [ {
        "type": {
          "coding": [ {
            "system": "http://terminology.hl7.org/CodeSystem/v2-0203",
            "code": "MR"
          } ]
        },
        "system": "https://bonnie-fhir.healthit.gov/",
        "value": "62fbe41abf5132f90ee35d36"
      } ],
      "name": [ {
        "family": "DENEXPass",
        "given": [ "DischargeToHospiceFacilityDuringMP" ]
      } ],
      "gender": "male",
      "birthDate": "1946-10-15"
    }
  }, {
    "fullUrl": "https://madie.cms.gov/Encounter/65f8283e-aefa-4567-83ae-09c2c959b6d7",
    "resource": {
      "resourceType": "Encounter",
      "id": "65f8283e-aefa-4567-83ae-09c2c959b6d7",
      "meta": {
        "profile": [ "http://hl7.org/fhir/us/qicore/StructureDefinition/qicore-encounter" ]
      },
      "status": "finished",
      "class": {
        "system": "http://terminology.hl7.org/CodeSystem/v3-ActCode",
        "code": "AMB",
        "display": "ambulatory"
      },
      "type": [ {
        "coding": [ {
          "system": "http://snomed.info/sct",
          "code": "10197000",
          "display": "Psychiatric interview and evaluation (procedure)",
          "userSelected": true
        } ]
      } ],
      "subject": {
        "reference": "Patient/45b1ce40-0f49-4559-8c3b-5c2a8070b0a7"
      },
      "period": {
        "start": "2026-12-31T23:30:00.000+00:00",
        "end": "2026-12-31T23:59:00.000+00:00"
      }
    }
  }, {
    "fullUrl": "https://madie.cms.gov/Observation/db3631fe-ff4a-47b7-8380-1d7e13bc119c",
    "resource": {
      "resourceType": "Observation",
      "id": "db3631fe-ff4a-47b7-8380-1d7e13bc119c",
      "meta": {
        "profile": [ "http://hl7.org/fhir/us/qicore/StructureDefinition/qicore-simple-observation" ]
      },
      "status": "final",
      "category": [ {
        "coding": [ {
          "system": "http://terminology.hl7.org/CodeSystem/observation-category",
          "code": "vital-signs",
          "display": "Vital Signs"
        } ]
      } ],
      "code": {
        "coding": [ {
          "system": "http://loinc.org",
          "code": "39156-5",
          "display": "Body mass index (BMI) [Ratio]",
          "userSelected": true
        } ]
      },
      "subject": {
        "reference": "Patient/45b1ce40-0f49-4559-8c3b-5c2a8070b0a7"
      },
      "effectiveDateTime": "2026-12-31T23:59:00.000+00:00",
      "valueQuantity": {
        "value": 40.0,
        "unit": "kg/m2",
        "system": "https://ucum.org",
        "code": "kg/m2"
      }
    }
  }, {
    "fullUrl": "https://madie.cms.gov/Procedure/d3a165ed-b8a2-407f-adb4-305be3c72320",
    "resource": {
      "resourceType": "Procedure",
      "id": "d3a165ed-b8a2-407f-adb4-305be3c72320",
      "meta": {
        "profile": [ "http://hl7.org/fhir/us/qicore/StructureDefinition/qicore-procedure" ]
      },
      "extension": [ {
        "url": "http://hl7.org/fhir/us/qicore/StructureDefinition/qicore-recorded",
        "valueDateTime": "2026-12-31T23:59:00.000+00:00"
      } ],
      "status": "completed",
      "code": {
        "coding": [ {
          "system": "http://snomed.info/sct",
          "code": "182922004",
          "display": "Dietary regime (regime/therapy)",
          "userSelected": true
        } ]
      },
      "subject": {
        "reference": "Patient/45b1ce40-0f49-4559-8c3b-5c2a8070b0a7"
      },
      "performedDateTime": "2026-12-31T23:59:00.000+00:00",
      "reasonCode": [ {
        "coding": [ {
          "system": "http://hl7.org/fhir/sid/icd-10-cm",
          "code": "E66.01",
          "display": "Morbid (severe) obesity due to excess calories",
          "userSelected": true
        } ]
      } ]
    }
  }, {
    "fullUrl": "https://madie.cms.gov/Encounter/1e0a1d6e-d45f-48f2-9935-e5e69579319e",
    "resource": {
      "resourceType": "Encounter",
      "id": "1e0a1d6e-d45f-48f2-9935-e5e69579319e",
      "meta": {
        "profile": [ "http://hl7.org/fhir/us/qicore/StructureDefinition/qicore-encounter" ]
      },
      "status": "finished",
      "class": {
        "system": "http://terminology.hl7.org/CodeSystem/v3-ActCode",
        "code": "AMB",
        "display": "ambulatory"
      },
      "type": [ {
        "coding": [ {
          "system": "http://snomed.info/sct",
          "code": "305336008",
          "display": "Admission to hospice (procedure)",
          "userSelected": true
        } ]
      } ],
      "subject": {
        "reference": "Patient/45b1ce40-0f49-4559-8c3b-5c2a8070b0a7"
      },
      "period": {
        "start": "2026-02-28T23:30:00.000+00:00",
        "end": "2026-02-28T23:59:00.000+00:00"
      },
      "hospitalization": {
        "dischargeDisposition": {
          "coding": [ {
            "system": "http://snomed.info/sct",
            "code": "428371000124100",
            "display": "Discharge to healthcare facility for hospice care (procedure)",
            "userSelected": true
          } ]
        }
      }
    }
  }, {
    "fullUrl": "https://madie.cms.gov/Coverage/5407eb5d-1a3b-4c05-9e38-ed75e0d53c6e",
    "resource": {
      "resourceType": "Coverage",
      "id": "5407eb5d-1a3b-4c05-9e38-ed75e0d53c6e",
      "meta": {
        "profile": [ "http://hl7.org/fhir/us/qicore/StructureDefinition/qicore-coverage" ]
      },
      "status": "active",
      "subscriberId": "123456",
      "beneficiary": {
        "reference": "Patient/45b1ce40-0f49-4559-8c3b-5c2a8070b0a7"
      },
      "relationship": {
        "coding": [ {
          "system": "http://terminology.hl7.org/CodeSystem/subscriber-relationship",
          "code": "self",
          "display": "Self",
          "userSelected": true
        } ]
      },
      "payor": [ {
        "reference": "Organization/40cc018b-c1e6-4cd7-8fc0-0df7b20fcb01"
      } ]
    }
  }, {
    "fullUrl": "https://madie.cms.gov/Organization/40cc018b-c1e6-4cd7-8fc0-0df7b20fcb01",
    "resource": {
      "resourceType": "Organization",
      "id": "40cc018b-c1e6-4cd7-8fc0-0df7b20fcb01",
      "meta": {
        "profile": [ "http://hl7.org/fhir/us/qicore/StructureDefinition/qicore-organization" ]
      },
      "identifier": [ {
        "use": "temp",
        "system": "urn:oid:2.16.840.1.113883.4.4",
        "value": "21-3259825"
      } ],
      "active": true,
      "type": [ {
        "coding": [ {
          "system": "http://terminology.hl7.org/CodeSystem/organization-type",
          "code": "pay",
          "display": "Payer"
        } ]
      } ],
      "name": "Blue Cross Blue Shield of Texas",
      "telecom": [ {
        "system": "phone",
        "value": "(+1) 972-766-6900"
      } ],
      "address": [ {
        "use": "billing",
        "type": "postal",
        "line": [ "P.O. Box 660044" ],
        "city": "Dallas",
        "state": "TX",
        "postalCode": "75266-0044",
        "country": "USA"
      } ]
    }
  }, {
    "fullUrl": "https://madie.cms.gov/MeasureReport/157b505d-30c5-4f3f-aeb2-b7de8f06a79c",
    "resource": {
      "resourceType": "MeasureReport",
      "id": "157b505d-30c5-4f3f-aeb2-b7de8f06a79c",
      "meta": {
        "profile": [ "http://hl7.org/fhir/us/cqfmeasures/StructureDefinition/test-case-cqfm" ]
      },
      "contained": [ {
        "resourceType": "Parameters",
        "id": "c6f8799d-6428-4097-b3ff-895fe933b010-parameters",
        "parameter": [ {
          "name": "subject",
          "valueString": "45b1ce40-0f49-4559-8c3b-5c2a8070b0a7"
        } ]
      } ],
      "extension": [ {
        "url": "http://hl7.org/fhir/StructureDefinition/cqf-inputParameters",
        "valueReference": {
          "reference": "#c6f8799d-6428-4097-b3ff-895fe933b010-parameters"
        }
      }, {
        "url": "http://hl7.org/fhir/us/cqfmeasures/StructureDefinition/cqfm-testCaseDescription",
        "valueMarkdown": "Amb enc last day of MP, Hospice encounter, BMI 40 kg/m2; dietary regime performed, hospice encounter in Feb of MP"
      } ],
      "modifierExtension": [ {
        "url": "http://hl7.org/fhir/us/cqfmeasures/StructureDefinition/cqfm-isTestCase",
        "valueBoolean": true
      } ],
      "status": "complete",
      "type": "individual",
      "measure": "https://madie.cms.gov/Measure/CMS69FHIRPCSBMIScreenAndFollowUp",
      "period": {
        "start": "2026-01-01",
        "end": "2026-12-31"
      },
      "group": [ {
        "id": "Group_1",
        "population": [ {
          "id": "InitialPopulation_1",
          "code": {
            "coding": [ {
              "system": "http://terminology.hl7.org/CodeSystem/measure-population",
              "code": "initial-population",
              "display": "Initial Population"
            } ]
          },
          "count": 1
        }, {
          "id": "Denominator_1",
          "code": {
            "coding": [ {
              "system": "http://terminology.hl7.org/CodeSystem/measure-population",
              "code": "denominator",
              "display": "Denominator"
            } ]
          },
          "count": 1
        }, {
          "id": "DenominatorExclusion_1",
          "code": {
            "coding": [ {
              "system": "http://terminology.hl7.org/CodeSystem/measure-population",
              "code": "denominator-exclusion",
              "display": "Denominator Exclusion"
            } ]
          },
          "count": 1
        }, {
          "id": "Numerator_1",
          "code": {
            "coding": [ {
              "system": "http://terminology.hl7.org/CodeSystem/measure-population",
              "code": "numerator",
              "display": "Numerator"
            } ]
          },
          "count": 0
        }, {
          "id": "DenominatorException_1",
          "code": {
            "coding": [ {
              "system": "http://terminology.hl7.org/CodeSystem/measure-population",
              "code": "denominator-exception",
              "display": "Denominator Exception"
            } ]
          },
          "count": 0
        } ],
        "measureScore": {
          "value": 1.0
        }
      } ],
      "evaluatedResource": [ {
        "reference": "Patient/45b1ce40-0f49-4559-8c3b-5c2a8070b0a7"
      }, {
        "reference": "Encounter/65f8283e-aefa-4567-83ae-09c2c959b6d7"
      }, {
        "reference": "Observation/db3631fe-ff4a-47b7-8380-1d7e13bc119c"
      }, {
        "reference": "Procedure/d3a165ed-b8a2-407f-adb4-305be3c72320"
      }, {
        "reference": "Encounter/1e0a1d6e-d45f-48f2-9935-e5e69579319e"
      }, {
        "reference": "Coverage/5407eb5d-1a3b-4c05-9e38-ed75e0d53c6e"
      }, {
        "reference": "Organization/40cc018b-c1e6-4cd7-8fc0-0df7b20fcb01"
      } ]
    }
  } ]
}