{
  "resourceType": "Bundle",
  "id": "63487c2f0968f80122540199",
  "type": "transaction",
  "entry": [ {
    "fullUrl": "https://madie.cms.gov/Patient/64bbffd3-e7b5-4cfb-8e7d-6705b46ce964",
    "resource": {
      "resourceType": "Patient",
      "id": "64bbffd3-e7b5-4cfb-8e7d-6705b46ce964",
      "meta": {
        "profile": [ "http://hl7.org/fhir/us/qicore/StructureDefinition/qicore-patient" ]
      },
      "text": {
        "status": "generated",
        "div": "<div xmlns=\"http://www.w3.org/1999/xhtml\"><div class=\"hapiHeaderText\">2EncWin42weeksEGAeq38OnBothEncounters<b>DENpass</b></div><table class=\"hapiPropertyTable\"><tbody><tr><td>Identifier</td><td>d49eff12b5ae0570e385f43288917b0fcc7f54d4422938b9cf7918aaeb400005</td></tr><tr><td>Date of birth</td><td><span>14 February 1985</span></td></tr></tbody></table></div>"
      },
      "extension": [ {
        "url": "http://hl7.org/fhir/us/core/StructureDefinition/us-core-race",
        "extension": [ {
          "url": "ombCategory",
          "valueCoding": {
            "system": "urn:oid:2.16.840.1.113883.6.238",
            "code": "1002-5",
            "display": "American Indian or Alaska Native",
            "userSelected": true
          }
        }, {
          "url": "text",
          "valueString": "American Indian or Alaska Native"
        } ]
      }, {
        "url": "http://hl7.org/fhir/us/core/StructureDefinition/us-core-ethnicity",
        "extension": [ {
          "url": "ombCategory",
          "valueCoding": {
            "system": "urn:oid:2.16.840.1.113883.6.238",
            "code": "2135-2",
            "display": "Hispanic or Latino",
            "userSelected": true
          }
        }, {
          "url": "text",
          "valueString": "Hispanic or Latino"
        } ]
      } ],
      "identifier": [ {
        "type": {
          "coding": [ {
            "system": "http://terminology.hl7.org/CodeSystem/v2-0203",
            "code": "MR"
          } ]
        },
        "system": "https://bonnie-fhir.healthit.gov/",
        "value": "63487c2f0968f80122540199"
      } ],
      "active": true,
      "name": [ {
        "use": "usual",
        "family": "DENPass",
        "given": [ "2EncWin42weeksEGAeq38onBothEncounters" ]
      } ],
      "gender": "female",
      "birthDate": "1998-02-14"
    },
    "request": {
      "method": "PUT",
      "url": "Patient/64bbffd3-e7b5-4cfb-8e7d-6705b46ce964"
    }
  }, {
    "fullUrl": "https://madie.cms.gov/Observation/0893d680-f14f-4f2f-8ae2-68306d4d4c44",
    "resource": {
      "resourceType": "Observation",
      "id": "0893d680-f14f-4f2f-8ae2-68306d4d4c44",
      "meta": {
        "profile": [ "http://hl7.org/fhir/us/qicore/StructureDefinition/qicore-simple-observation" ]
      },
      "status": "final",
      "category": [ {
        "coding": [ {
          "system": "http://terminology.hl7.org/CodeSystem/observation-category",
          "code": "exam",
          "display": "exam",
          "userSelected": true
        } ]
      } ],
      "code": {
        "coding": [ {
          "system": "http://loinc.org",
          "code": "11884-4"
        } ]
      },
      "subject": {
        "reference": "Patient/64bbffd3-e7b5-4cfb-8e7d-6705b46ce964"
      },
      "effectiveDateTime": "2026-02-01T09:15:00.000+00:00",
      "performer": [ {
        "reference": "Organization/example1",
        "display": "Hendricks Country Hospital"
      } ],
      "valueQuantity": {
        "value": 38,
        "system": "http://unitsofmeasure.org",
        "code": "wk"
      }
    },
    "request": {
      "method": "PUT",
      "url": "Observation/0893d680-f14f-4f2f-8ae2-68306d4d4c44"
    }
  }, {
    "fullUrl": "https://madie.cms.gov/Observation/58a373eb-9c59-44a6-afe3-5b834d49f5bb",
    "resource": {
      "resourceType": "Observation",
      "id": "58a373eb-9c59-44a6-afe3-5b834d49f5bb",
      "meta": {
        "profile": [ "http://hl7.org/fhir/us/qicore/StructureDefinition/qicore-simple-observation" ]
      },
      "status": "final",
      "category": [ {
        "coding": [ {
          "system": "http://terminology.hl7.org/CodeSystem/observation-category",
          "code": "exam",
          "display": "exam",
          "userSelected": true
        } ]
      } ],
      "code": {
        "coding": [ {
          "system": "http://loinc.org",
          "code": "11884-4"
        } ]
      },
      "subject": {
        "reference": "Patient/64bbffd3-e7b5-4cfb-8e7d-6705b46ce964"
      },
      "effectiveDateTime": "2026-11-10T08:00:00.000+00:00",
      "performer": [ {
        "reference": "Organization/example1",
        "display": "Hendricks Country Hospital"
      } ],
      "valueQuantity": {
        "value": 38,
        "system": "http://unitsofmeasure.org",
        "code": "wk"
      }
    },
    "request": {
      "method": "PUT",
      "url": "Observation/58a373eb-9c59-44a6-afe3-5b834d49f5bb"
    }
  }, {
    "fullUrl": "https://madie.cms.gov/Observation/12bac004-4a1a-42bd-93de-01e4bda951b4",
    "resource": {
      "resourceType": "Observation",
      "id": "12bac004-4a1a-42bd-93de-01e4bda951b4",
      "meta": {
        "profile": [ "http://hl7.org/fhir/us/qicore/StructureDefinition/qicore-simple-observation" ]
      },
      "status": "final",
      "category": [ {
        "coding": [ {
          "system": "http://terminology.hl7.org/CodeSystem/observation-category",
          "code": "exam",
          "display": "exam",
          "userSelected": true
        } ]
      } ],
      "code": {
        "coding": [ {
          "system": "http://loinc.org",
          "code": "93857-1"
        } ]
      },
      "subject": {
        "reference": "Patient/64bbffd3-e7b5-4cfb-8e7d-6705b46ce964"
      },
      "effectiveDateTime": "2026-02-01T19:00:00.000+00:00",
      "performer": [ {
        "reference": "Organization/example1",
        "display": "Hendricks Country Hospital"
      } ],
      "valueDateTime": "2026-02-01T19:00:00.000+00:00"
    },
    "request": {
      "method": "PUT",
      "url": "Observation/12bac004-4a1a-42bd-93de-01e4bda951b4"
    }
  }, {
    "fullUrl": "https://madie.cms.gov/Observation/ca76c69a-87b3-4631-89d7-562b35959120",
    "resource": {
      "resourceType": "Observation",
      "id": "ca76c69a-87b3-4631-89d7-562b35959120",
      "meta": {
        "profile": [ "http://hl7.org/fhir/us/qicore/StructureDefinition/qicore-simple-observation" ]
      },
      "status": "final",
      "category": [ {
        "coding": [ {
          "system": "http://terminology.hl7.org/CodeSystem/observation-category",
          "code": "exam",
          "display": "exam",
          "userSelected": true
        } ]
      } ],
      "code": {
        "coding": [ {
          "system": "http://loinc.org",
          "code": "93857-1"
        } ]
      },
      "subject": {
        "reference": "Patient/64bbffd3-e7b5-4cfb-8e7d-6705b46ce964"
      },
      "effectiveDateTime": "2026-11-10T08:00:00.000+00:00",
      "performer": [ {
        "reference": "Organization/example1",
        "display": "Hendricks Country Hospital"
      } ],
      "valueDateTime": "2026-11-10T08:00:00.000+00:00"
    },
    "request": {
      "method": "PUT",
      "url": "Observation/ca76c69a-87b3-4631-89d7-562b35959120"
    }
  }, {
    "fullUrl": "https://madie.cms.gov/Observation/ab4041e1-03f0-4cc0-8d86-ceedd951ab75",
    "resource": {
      "resourceType": "Observation",
      "id": "ab4041e1-03f0-4cc0-8d86-ceedd951ab75",
      "meta": {
        "profile": [ "http://hl7.org/fhir/us/qicore/StructureDefinition/qicore-simple-observation" ]
      },
      "status": "final",
      "category": [ {
        "coding": [ {
          "system": "http://terminology.hl7.org/CodeSystem/observation-category",
          "code": "exam",
          "display": "exam",
          "userSelected": true
        } ]
      } ],
      "code": {
        "coding": [ {
          "system": "http://loinc.org",
          "code": "11639-2"
        } ]
      },
      "subject": {
        "reference": "Patient/64bbffd3-e7b5-4cfb-8e7d-6705b46ce964"
      },
      "effectiveDateTime": "2026-01-31T08:00:00.000+00:00",
      "performer": [ {
        "reference": "Organization/example1",
        "display": "Hendricks Country Hospital"
      } ],
      "valueInteger": 0
    },
    "request": {
      "method": "PUT",
      "url": "Observation/ab4041e1-03f0-4cc0-8d86-ceedd951ab75"
    }
  }, {
    "fullUrl": "https://madie.cms.gov/Observation/655c27b0-ec07-4683-a6df-8ce357e678ce",
    "resource": {
      "resourceType": "Observation",
      "id": "655c27b0-ec07-4683-a6df-8ce357e678ce",
      "meta": {
        "profile": [ "http://hl7.org/fhir/us/qicore/StructureDefinition/qicore-simple-observation" ]
      },
      "status": "final",
      "category": [ {
        "coding": [ {
          "system": "http://terminology.hl7.org/CodeSystem/observation-category",
          "code": "exam",
          "display": "exam",
          "userSelected": true
        } ]
      } ],
      "code": {
        "coding": [ {
          "system": "http://loinc.org",
          "code": "11637-6"
        } ]
      },
      "subject": {
        "reference": "Patient/64bbffd3-e7b5-4cfb-8e7d-6705b46ce964"
      },
      "effectiveDateTime": "2026-01-31T08:00:00.000+00:00",
      "performer": [ {
        "reference": "Organization/example1",
        "display": "Hendricks Country Hospital"
      } ],
      "valueInteger": 0
    },
    "request": {
      "method": "PUT",
      "url": "Observation/655c27b0-ec07-4683-a6df-8ce357e678ce"
    }
  }, {
    "fullUrl": "https://madie.cms.gov/Observation/9b75e045-4fab-4439-b925-f40c2dbc1c5f",
    "resource": {
      "resourceType": "Observation",
      "id": "9b75e045-4fab-4439-b925-f40c2dbc1c5f",
      "meta": {
        "profile": [ "http://hl7.org/fhir/us/qicore/StructureDefinition/qicore-simple-observation" ]
      },
      "status": "final",
      "category": [ {
        "coding": [ {
          "system": "http://terminology.hl7.org/CodeSystem/observation-category",
          "code": "exam",
          "display": "exam",
          "userSelected": true
        } ]
      } ],
      "code": {
        "coding": [ {
          "system": "http://loinc.org",
          "code": "11639-2"
        } ]
      },
      "subject": {
        "reference": "Patient/64bbffd3-e7b5-4cfb-8e7d-6705b46ce964"
      },
      "effectiveDateTime": "2026-11-09T08:00:00.000+00:00",
      "performer": [ {
        "reference": "Organization/example1",
        "display": "Hendricks Country Hospital"
      } ],
      "valueInteger": 1
    },
    "request": {
      "method": "PUT",
      "url": "Observation/9b75e045-4fab-4439-b925-f40c2dbc1c5f"
    }
  }, {
    "fullUrl": "https://madie.cms.gov/Observation/785bb447-1712-4d29-b787-4bf8dedcd223",
    "resource": {
      "resourceType": "Observation",
      "id": "785bb447-1712-4d29-b787-4bf8dedcd223",
      "meta": {
        "profile": [ "http://hl7.org/fhir/us/qicore/StructureDefinition/qicore-simple-observation" ]
      },
      "status": "final",
      "category": [ {
        "coding": [ {
          "system": "http://terminology.hl7.org/CodeSystem/observation-category",
          "code": "exam",
          "display": "exam",
          "userSelected": true
        } ]
      } ],
      "code": {
        "coding": [ {
          "system": "http://loinc.org",
          "code": "11637-6"
        } ]
      },
      "subject": {
        "reference": "Patient/64bbffd3-e7b5-4cfb-8e7d-6705b46ce964"
      },
      "effectiveDateTime": "2026-11-09T08:00:00.000+00:00",
      "performer": [ {
        "reference": "Organization/example1",
        "display": "Hendricks Country Hospital"
      } ],
      "valueInteger": 1
    },
    "request": {
      "method": "PUT",
      "url": "Observation/785bb447-1712-4d29-b787-4bf8dedcd223"
    }
  }, {
    "fullUrl": "https://madie.cms.gov/Encounter/d2481610-2dee-4edb-938c-6680246f11ad",
    "resource": {
      "resourceType": "Encounter",
      "id": "d2481610-2dee-4edb-938c-6680246f11ad",
      "meta": {
        "profile": [ "http://hl7.org/fhir/us/qicore/StructureDefinition/qicore-encounter" ]
      },
      "status": "finished",
      "class": {
        "system": "http://terminology.hl7.org/CodeSystem/v3-ActCode",
        "code": "IMP",
        "display": "inpatient encounter"
      },
      "type": [ {
        "coding": [ {
          "system": "http://snomed.info/sct",
          "code": "183452005"
        } ]
      } ],
      "subject": {
        "reference": "Patient/64bbffd3-e7b5-4cfb-8e7d-6705b46ce964"
      },
      "period": {
        "start": "2026-02-01T08:00:00.000+00:00",
        "end": "2026-02-05T08:15:00.000+00:00"
      },
      "length": {
        "value": 4,
        "unit": "days"
      },
      "reasonCode": [ {
        "coding": [ {
          "system": "http://snomed.info/sct",
          "code": "169826009",
          "display": "Single live birth from singleton pregnancy (finding)"
        } ]
      } ]
    },
    "request": {
      "method": "PUT",
      "url": "Encounter/d2481610-2dee-4edb-938c-6680246f11ad"
    }
  }, {
    "fullUrl": "https://madie.cms.gov/Encounter/e43df940-9800-4332-b2c5-b30d838398b7",
    "resource": {
      "resourceType": "Encounter",
      "id": "e43df940-9800-4332-b2c5-b30d838398b7",
      "meta": {
        "profile": [ "http://hl7.org/fhir/us/qicore/StructureDefinition/qicore-encounter" ]
      },
      "status": "finished",
      "class": {
        "system": "http://terminology.hl7.org/CodeSystem/v3-ActCode",
        "code": "IMP",
        "display": "inpatient encounter"
      },
      "type": [ {
        "coding": [ {
          "system": "http://snomed.info/sct",
          "code": "183452005"
        } ]
      } ],
      "subject": {
        "reference": "Patient/64bbffd3-e7b5-4cfb-8e7d-6705b46ce964"
      },
      "period": {
        "start": "2026-11-10T08:00:00.000+00:00",
        "end": "2026-11-15T08:15:00.000+00:00"
      },
      "length": {
        "value": 5,
        "unit": "days"
      },
      "reasonCode": [ {
        "coding": [ {
          "system": "http://snomed.info/sct",
          "code": "169826009",
          "display": "Single live birth from singleton pregnancy (finding)"
        } ]
      } ]
    },
    "request": {
      "method": "PUT",
      "url": "Encounter/e43df940-9800-4332-b2c5-b30d838398b7"
    }
  }, {
    "fullUrl": "https://madie.cms.gov/Coverage/5f5f9e4f1c76ba674bb0336d",
    "resource": {
      "resourceType": "Coverage",
      "id": "5f5f9e4f1c76ba674bb0336d",
      "meta": {
        "profile": [ "http://hl7.org/fhir/us/qicore/StructureDefinition/qicore-coverage" ]
      },
      "status": "active",
      "subscriberId": "523435",
      "beneficiary": {
        "reference": "Patient/64bbffd3-e7b5-4cfb-8e7d-6705b46ce964"
      },
      "relationship": {
        "coding": [ {
          "system": "http://terminology.hl7.org/CodeSystem/subscriber-relationship",
          "code": "self"
        } ]
      },
      "period": {
        "start": "1986-02-14T08:00:00.000+00:00"
      },
      "payor": [ {
        "reference": "Organization/60145a08-8564-4893-a359-094049ba5d97"
      } ]
    },
    "request": {
      "method": "PUT",
      "url": "Coverage/5f5f9e4f1c76ba674bb0336d"
    }
  }, {
    "fullUrl": "https://madie.cms.gov/Procedure/ee7ab970-10e9-47f1-a348-771f29650a72",
    "resource": {
      "resourceType": "Procedure",
      "id": "ee7ab970-10e9-47f1-a348-771f29650a72",
      "meta": {
        "profile": [ "http://hl7.org/fhir/us/qicore/StructureDefinition/qicore-procedure" ]
      },
      "extension": [ {
        "url": "http://hl7.org/fhir/us/qicore/StructureDefinition/qicore-recorded",
        "valueDateTime": "2014-04-05T13:35:00.000+00:00"
      } ],
      "status": "completed",
      "code": {
        "coding": [ {
          "system": "http://snomed.info/sct",
          "code": "10745001"
        }, {
          "system": "http://www.cms.gov/Medicare/Coding/ICD10",
          "code": "10D00Z0"
        } ]
      },
      "subject": {
        "reference": "Patient/64bbffd3-e7b5-4cfb-8e7d-6705b46ce964"
      },
      "performedPeriod": {
        "start": "2026-02-01T08:00:00.000+00:00",
        "end": "2026-02-05T08:15:00.000+00:00"
      }
    },
    "request": {
      "method": "PUT",
      "url": "Procedure/ee7ab970-10e9-47f1-a348-771f29650a72"
    }
  }, {
    "fullUrl": "https://madie.cms.gov/Procedure/ba622a29-10a0-4878-8129-e85490877fb2",
    "resource": {
      "resourceType": "Procedure",
      "id": "ba622a29-10a0-4878-8129-e85490877fb2",
      "meta": {
        "profile": [ "http://hl7.org/fhir/us/qicore/StructureDefinition/qicore-procedure" ]
      },
      "extension": [ {
        "url": "http://hl7.org/fhir/us/qicore/StructureDefinition/qicore-recorded",
        "valueDateTime": "2014-04-05T13:35:00.000+00:00"
      } ],
      "status": "completed",
      "code": {
        "coding": [ {
          "system": "http://snomed.info/sct",
          "code": "10745001"
        }, {
          "system": "http://www.cms.gov/Medicare/Coding/ICD10",
          "code": "10D00Z0"
        } ]
      },
      "subject": {
        "reference": "Patient/64bbffd3-e7b5-4cfb-8e7d-6705b46ce964"
      },
      "performedPeriod": {
        "start": "2026-11-10T08:00:00.000+00:00",
        "end": "2026-11-15T08:15:00.000+00:00"
      }
    },
    "request": {
      "method": "PUT",
      "url": "Procedure/ba622a29-10a0-4878-8129-e85490877fb2"
    }
  }, {
    "fullUrl": "https://madie.cms.gov/Condition/0f6d5f8c-c0fb-4509-989d-d865923bb36a",
    "resource": {
      "resourceType": "Condition",
      "id": "0f6d5f8c-c0fb-4509-989d-d865923bb36a",
      "meta": {
        "profile": [ "http://hl7.org/fhir/us/qicore/StructureDefinition/qicore-condition-problems-health-concerns" ]
      },
      "category": [ {
        "coding": [ {
          "system": "http://terminology.hl7.org/CodeSystem/condition-category",
          "code": "encounter-diagnosis",
          "display": "Encounter Diagnosis"
        } ]
      } ],
      "code": {
        "coding": [ {
          "system": "http://snomed.info/sct",
          "version": "2022-09",
          "code": "169826009",
          "display": "Single live birth from singleton pregnancy (finding)",
          "userSelected": true
        } ]
      },
      "subject": {
        "reference": "Patient/64bbffd3-e7b5-4cfb-8e7d-6705b46ce964"
      },
      "recordedDate": "2026-10-21T08:00:00.000+00:00"
    },
    "request": {
      "method": "PUT",
      "url": "Condition/0f6d5f8c-c0fb-4509-989d-d865923bb36a"
    }
  }, {
    "fullUrl": "https://madie.cms.gov/Organization/60145a08-8564-4893-a359-094049ba5d97",
    "resource": {
      "resourceType": "Organization",
      "id": "60145a08-8564-4893-a359-094049ba5d97",
      "meta": {
        "profile": [ "http://hl7.org/fhir/us/qicore/StructureDefinition/qicore-organization" ]
      },
      "identifier": [ {
        "use": "temp",
        "system": "urn:oid:2.16.840.1.113883.4.4",
        "value": "21-3259825"
      } ],
      "active": true,
      "type": [ {
        "coding": [ {
          "system": "http://terminology.hl7.org/CodeSystem/organization-type",
          "code": "pay",
          "display": "Payer"
        } ]
      } ],
      "name": "Blue Cross Blue Shield of Texas",
      "telecom": [ {
        "system": "phone",
        "value": "(+1) 972-766-6900"
      } ],
      "address": [ {
        "use": "billing",
        "type": "postal",
        "line": [ "P.O. Box 660044" ],
        "city": "Dallas",
        "state": "TX",
        "postalCode": "75266-0044",
        "country": "USA"
      } ]
    },
    "request": {
      "method": "PUT",
      "url": "Organization/60145a08-8564-4893-a359-094049ba5d97"
    }
  }, {
    "fullUrl": "https://madie.cms.gov/Practitioner/e4a2f4db-fb09-4f21-8597-67fd22b0e503",
    "resource": {
      "resourceType": "Practitioner",
      "id": "e4a2f4db-fb09-4f21-8597-67fd22b0e503",
      "meta": {
        "profile": [ "http://hl7.org/fhir/us/qicore/StructureDefinition/qicore-practitioner" ]
      },
      "identifier": [ {
        "system": "http://hl7.org/fhir/sid/us-npi",
        "value": "1234567890"
      } ],
      "name": [ {
        "family": "Evil",
        "prefix": [ "Dr" ]
      } ]
    },
    "request": {
      "method": "PUT",
      "url": "Practitioner/e4a2f4db-fb09-4f21-8597-67fd22b0e503"
    }
  }, {
    "fullUrl": "https://madie.cms.gov/MeasureReport/020e284f-e328-4b73-9ba9-e77e52283c29",
    "resource": {
      "resourceType": "MeasureReport",
      "id": "020e284f-e328-4b73-9ba9-e77e52283c29",
      "meta": {
        "profile": [ "http://hl7.org/fhir/us/cqfmeasures/StructureDefinition/test-case-cqfm" ]
      },
      "contained": [ {
        "resourceType": "Parameters",
        "id": "cde6d638-7f1f-41b9-a86a-69eac0711203-parameters",
        "parameter": [ {
          "name": "subject",
          "valueString": "64bbffd3-e7b5-4cfb-8e7d-6705b46ce964"
        } ]
      } ],
      "extension": [ {
        "url": "http://hl7.org/fhir/StructureDefinition/cqf-inputParameters",
        "valueReference": {
          "reference": "#cde6d638-7f1f-41b9-a86a-69eac0711203-parameters"
        }
      }, {
        "url": "http://hl7.org/fhir/us/cqfmeasures/StructureDefinition/cqfm-testCaseDescription",
        "valueMarkdown": "\"Pregnancy 1 delivery documented 2/1/2012, Preterm & Term Births=0,EGA=38\nPregnancy 2  delivery documented 11/10/2012, Preterm & Term Births=1 & EGA=38.  Fails denom."
      } ],
      "modifierExtension": [ {
        "url": "http://hl7.org/fhir/us/cqfmeasures/StructureDefinition/cqfm-isTestCase",
        "valueBoolean": true
      } ],
      "status": "complete",
      "type": "individual",
      "measure": "https://madie.cms.gov/Measure/CMS0334FHIRPCCesareanBirth",
      "period": {
        "start": "2026-01-01",
        "end": "2026-12-31"
      },
      "group": [ {
        "id": "Group_1",
        "population": [ {
          "id": "InitialPopulation_1",
          "code": {
            "coding": [ {
              "system": "http://terminology.hl7.org/CodeSystem/measure-population",
              "code": "initial-population",
              "display": "Initial Population"
            } ]
          },
          "count": 2
        }, {
          "id": "Denominator_1",
          "code": {
            "coding": [ {
              "system": "http://terminology.hl7.org/CodeSystem/measure-population",
              "code": "denominator",
              "display": "Denominator"
            } ]
          },
          "count": 1
        }, {
          "id": "DenominatorExclusion_1",
          "code": {
            "coding": [ {
              "system": "http://terminology.hl7.org/CodeSystem/measure-population",
              "code": "denominator-exclusion",
              "display": "Denominator Exclusion"
            } ]
          },
          "count": 0
        }, {
          "id": "Numerator_1",
          "code": {
            "coding": [ {
              "system": "http://terminology.hl7.org/CodeSystem/measure-population",
              "code": "numerator",
              "display": "Numerator"
            } ]
          },
          "count": 1
        } ],
        "measureScore": {
          "value": 0.0
        }
      } ],
      "evaluatedResource": [ {
        "reference": "Patient/64bbffd3-e7b5-4cfb-8e7d-6705b46ce964"
      }, {
        "reference": "Observation/0893d680-f14f-4f2f-8ae2-68306d4d4c44"
      }, {
        "reference": "Observation/58a373eb-9c59-44a6-afe3-5b834d49f5bb"
      }, {
        "reference": "Observation/12bac004-4a1a-42bd-93de-01e4bda951b4"
      }, {
        "reference": "Observation/ca76c69a-87b3-4631-89d7-562b35959120"
      }, {
        "reference": "Observation/ab4041e1-03f0-4cc0-8d86-ceedd951ab75"
      }, {
        "reference": "Observation/655c27b0-ec07-4683-a6df-8ce357e678ce"
      }, {
        "reference": "Observation/9b75e045-4fab-4439-b925-f40c2dbc1c5f"
      }, {
        "reference": "Observation/785bb447-1712-4d29-b787-4bf8dedcd223"
      }, {
        "reference": "Encounter/d2481610-2dee-4edb-938c-6680246f11ad"
      }, {
        "reference": "Encounter/e43df940-9800-4332-b2c5-b30d838398b7"
      }, {
        "reference": "Coverage/5f5f9e4f1c76ba674bb0336d"
      }, {
        "reference": "Procedure/ee7ab970-10e9-47f1-a348-771f29650a72"
      }, {
        "reference": "Procedure/ba622a29-10a0-4878-8129-e85490877fb2"
      }, {
        "reference": "Condition/0f6d5f8c-c0fb-4509-989d-d865923bb36a"
      }, {
        "reference": "Organization/60145a08-8564-4893-a359-094049ba5d97"
      }, {
        "reference": "Practitioner/e4a2f4db-fb09-4f21-8597-67fd22b0e503"
      } ]
    },
    "request": {
      "method": "PUT",
      "url": "MeasureReport/020e284f-e328-4b73-9ba9-e77e52283c29"
    }
  } ]
}