{
  "resourceType": "Bundle",
  "id": "62c880ed0111a60120dc2214",
  "type": "transaction",
  "entry": [ {
    "fullUrl": "https://madie.cms.gov/Patient/aa355e31-8d29-4b06-8d13-7d00a2c817da",
    "resource": {
      "resourceType": "Patient",
      "id": "aa355e31-8d29-4b06-8d13-7d00a2c817da",
      "meta": {
        "profile": [ "http://hl7.org/fhir/us/qicore/StructureDefinition/qicore-patient" ]
      },
      "extension": [ {
        "url": "http://hl7.org/fhir/us/core/StructureDefinition/us-core-race",
        "extension": [ {
          "url": "ombCategory",
          "valueCoding": {
            "system": "urn:oid:2.16.840.1.113883.6.238",
            "code": "1002-5",
            "display": "American Indian or Alaska Native",
            "userSelected": true
          }
        }, {
          "url": "text",
          "valueString": "American Indian or Alaska Native"
        } ]
      }, {
        "url": "http://hl7.org/fhir/us/core/StructureDefinition/us-core-ethnicity",
        "extension": [ {
          "url": "ombCategory",
          "valueCoding": {
            "system": "urn:oid:2.16.840.1.113883.6.238",
            "code": "2135-2",
            "display": "Hispanic or Latino",
            "userSelected": true
          }
        }, {
          "url": "text",
          "valueString": "Hispanic or Latino"
        } ]
      } ],
      "identifier": [ {
        "type": {
          "coding": [ {
            "system": "http://terminology.hl7.org/CodeSystem/v2-0203",
            "code": "MR"
          } ]
        },
        "system": "https://bonnie-fhir.healthit.gov/",
        "value": "62c880ed0111a60120dc2214"
      } ],
      "active": true,
      "name": [ {
        "use": "usual",
        "family": "IPPPassPop2",
        "given": [ "CancerDxOverlapsRadTxInMP" ]
      } ],
      "gender": "male",
      "birthDate": "1937-12-21"
    },
    "request": {
      "method": "PUT",
      "url": "Patient/aa355e31-8d29-4b06-8d13-7d00a2c817da"
    }
  }, {
    "fullUrl": "https://madie.cms.gov/Condition/5f7e39ca-6a77-4ea4-95a6-894eea35f493",
    "resource": {
      "resourceType": "Condition",
      "id": "5f7e39ca-6a77-4ea4-95a6-894eea35f493",
      "meta": {
        "profile": [ "http://hl7.org/fhir/us/qicore/StructureDefinition/qicore-condition-problems-health-concerns" ]
      },
      "clinicalStatus": {
        "coding": [ {
          "system": "http://terminology.hl7.org/CodeSystem/condition-clinical",
          "code": "active",
          "display": "active",
          "userSelected": true
        } ]
      },
      "category": [ {
        "coding": [ {
          "system": "http://terminology.hl7.org/CodeSystem/condition-category",
          "code": "problem-list-item",
          "display": "Problem List Item"
        } ]
      } ],
      "code": {
        "coding": [ {
          "system": "http://hl7.org/fhir/sid/icd-10-cm",
          "code": "C34.01"
        } ]
      },
      "subject": {
        "reference": "Patient/aa355e31-8d29-4b06-8d13-7d00a2c817da"
      },
      "onsetDateTime": "2026-02-01T11:00:00.000+00:00"
    },
    "request": {
      "method": "PUT",
      "url": "Condition/5f7e39ca-6a77-4ea4-95a6-894eea35f493"
    }
  }, {
    "fullUrl": "https://madie.cms.gov/Coverage/9e72fc70-94f6-42a1-9943-d1fe1ee0013c",
    "resource": {
      "resourceType": "Coverage",
      "id": "9e72fc70-94f6-42a1-9943-d1fe1ee0013c",
      "meta": {
        "profile": [ "http://hl7.org/fhir/us/qicore/StructureDefinition/qicore-coverage" ]
      },
      "status": "active",
      "beneficiary": {
        "reference": "Patient/aa355e31-8d29-4b06-8d13-7d00a2c817da"
      },
      "period": {
        "start": "1937-12-21T01:00:00.000+00:00"
      },
      "payor": [ {
        "reference": "Organization/ecac7bc6-eda9-4380-aa48-7dc917cbee22"
      } ]
    },
    "request": {
      "method": "PUT",
      "url": "Coverage/9e72fc70-94f6-42a1-9943-d1fe1ee0013c"
    }
  }, {
    "fullUrl": "https://madie.cms.gov/Encounter/13352878-e37b-4e25-95ba-a64266da8d31",
    "resource": {
      "resourceType": "Encounter",
      "id": "13352878-e37b-4e25-95ba-a64266da8d31",
      "meta": {
        "profile": [ "http://hl7.org/fhir/us/qicore/StructureDefinition/qicore-encounter" ]
      },
      "status": "finished",
      "class": {
        "system": "http://terminology.hl7.org/CodeSystem/v3-ActCode",
        "code": "AMB",
        "display": "ambulatory",
        "userSelected": true
      },
      "type": [ {
        "coding": [ {
          "system": "http://www.ama-assn.org/go/cpt",
          "code": "77431",
          "userSelected": true
        } ]
      } ],
      "subject": {
        "reference": "Patient/aa355e31-8d29-4b06-8d13-7d00a2c817da"
      },
      "period": {
        "start": "2026-05-15T08:00:00.000+00:00",
        "end": "2026-05-15T08:15:00.000+00:00"
      }
    },
    "request": {
      "method": "PUT",
      "url": "Encounter/13352878-e37b-4e25-95ba-a64266da8d31"
    }
  }, {
    "fullUrl": "https://madie.cms.gov/Organization/ecac7bc6-eda9-4380-aa48-7dc917cbee22",
    "resource": {
      "resourceType": "Organization",
      "id": "ecac7bc6-eda9-4380-aa48-7dc917cbee22",
      "meta": {
        "profile": [ "http://hl7.org/fhir/us/qicore/StructureDefinition/qicore-organization" ]
      },
      "identifier": [ {
        "use": "temp",
        "system": "urn:oid:2.16.840.1.113883.4.4",
        "value": "21-3259825"
      } ],
      "active": true,
      "type": [ {
        "coding": [ {
          "system": "http://terminology.hl7.org/CodeSystem/organization-type",
          "code": "pay",
          "display": "Payer"
        } ]
      } ],
      "name": "Blue Cross Blue Shield of Texas",
      "telecom": [ {
        "system": "phone",
        "value": "(+1) 972-766-6900"
      } ],
      "address": [ {
        "use": "billing",
        "type": "postal",
        "line": [ "P.O. Box 660044" ],
        "city": "Dallas",
        "state": "TX",
        "postalCode": "75266-0044",
        "country": "USA"
      } ]
    },
    "request": {
      "method": "PUT",
      "url": "Organization/ecac7bc6-eda9-4380-aa48-7dc917cbee22"
    }
  }, {
    "fullUrl": "https://madie.cms.gov/Practitioner/7a69302e-9f65-4ede-b771-df3213876d16",
    "resource": {
      "resourceType": "Practitioner",
      "id": "7a69302e-9f65-4ede-b771-df3213876d16",
      "meta": {
        "profile": [ "http://hl7.org/fhir/us/qicore/StructureDefinition/qicore-practitioner" ]
      },
      "identifier": [ {
        "system": "http://hl7.org/fhir/sid/us-npi",
        "value": "1234567890"
      } ],
      "name": [ {
        "family": "Evil",
        "prefix": [ "Dr" ]
      } ]
    },
    "request": {
      "method": "PUT",
      "url": "Practitioner/7a69302e-9f65-4ede-b771-df3213876d16"
    }
  }, {
    "fullUrl": "https://madie.cms.gov/MeasureReport/cd826ca2-6155-4ae2-884d-6fa9c5343198",
    "resource": {
      "resourceType": "MeasureReport",
      "id": "cd826ca2-6155-4ae2-884d-6fa9c5343198",
      "meta": {
        "profile": [ "http://hl7.org/fhir/us/cqfmeasures/StructureDefinition/test-case-cqfm" ]
      },
      "contained": [ {
        "resourceType": "Parameters",
        "id": "cf4e4c16-fcc5-4339-8dc2-bb63b84f248d-parameters",
        "parameter": [ {
          "name": "subject",
          "valueString": "aa355e31-8d29-4b06-8d13-7d00a2c817da"
        } ]
      } ],
      "extension": [ {
        "url": "http://hl7.org/fhir/StructureDefinition/cqf-inputParameters",
        "valueReference": {
          "reference": "#cf4e4c16-fcc5-4339-8dc2-bb63b84f248d-parameters"
        }
      }, {
        "url": "http://hl7.org/fhir/us/cqfmeasures/StructureDefinition/cqfm-testCaseDescription",
        "valueMarkdown": "Patient with cancer diagnosis that overlaps radiation treatment management during measurement period.\n"
      } ],
      "modifierExtension": [ {
        "url": "http://hl7.org/fhir/us/cqfmeasures/StructureDefinition/cqfm-isTestCase",
        "valueBoolean": true
      } ],
      "status": "complete",
      "type": "individual",
      "measure": "https://madie.cms.gov/Measure/CMS157FHIRPainIntensityQuantified",
      "period": {
        "start": "2026-01-01",
        "end": "2026-12-31"
      },
      "group": [ {
        "id": "Group_1",
        "population": [ {
          "id": "InitialPopulation_1",
          "code": {
            "coding": [ {
              "system": "http://terminology.hl7.org/CodeSystem/measure-population",
              "code": "initial-population",
              "display": "Initial Population"
            } ]
          },
          "count": 0
        }, {
          "id": "Denominator_1",
          "code": {
            "coding": [ {
              "system": "http://terminology.hl7.org/CodeSystem/measure-population",
              "code": "denominator",
              "display": "Denominator"
            } ]
          },
          "count": 0
        }, {
          "id": "Numerator_1",
          "code": {
            "coding": [ {
              "system": "http://terminology.hl7.org/CodeSystem/measure-population",
              "code": "numerator",
              "display": "Numerator"
            } ]
          },
          "count": 0
        } ],
        "measureScore": {
          "value": 0.0
        }
      }, {
        "id": "Group_2",
        "population": [ {
          "id": "InitialPopulation_2",
          "code": {
            "coding": [ {
              "system": "http://terminology.hl7.org/CodeSystem/measure-population",
              "code": "initial-population",
              "display": "Initial Population"
            } ]
          },
          "count": 1
        }, {
          "id": "Denominator_2",
          "code": {
            "coding": [ {
              "system": "http://terminology.hl7.org/CodeSystem/measure-population",
              "code": "denominator",
              "display": "Denominator"
            } ]
          },
          "count": 1
        }, {
          "id": "Numerator_2",
          "code": {
            "coding": [ {
              "system": "http://terminology.hl7.org/CodeSystem/measure-population",
              "code": "numerator",
              "display": "Numerator"
            } ]
          },
          "count": 0
        } ],
        "measureScore": {
          "value": 0.0
        }
      } ],
      "evaluatedResource": [ {
        "reference": "Patient/aa355e31-8d29-4b06-8d13-7d00a2c817da"
      }, {
        "reference": "Condition/5f7e39ca-6a77-4ea4-95a6-894eea35f493"
      }, {
        "reference": "Coverage/9e72fc70-94f6-42a1-9943-d1fe1ee0013c"
      }, {
        "reference": "Encounter/13352878-e37b-4e25-95ba-a64266da8d31"
      }, {
        "reference": "Organization/ecac7bc6-eda9-4380-aa48-7dc917cbee22"
      }, {
        "reference": "Practitioner/7a69302e-9f65-4ede-b771-df3213876d16"
      } ]
    },
    "request": {
      "method": "PUT",
      "url": "MeasureReport/cd826ca2-6155-4ae2-884d-6fa9c5343198"
    }
  } ]
}