{
  "resourceType": "Bundle",
  "id": "633b3f9f0968f80122503ce1",
  "type": "transaction",
  "entry": [ {
    "fullUrl": "https://madie.cms.gov/Patient/401ea252-58ee-4255-b537-e90af10ff0a1",
    "resource": {
      "resourceType": "Patient",
      "id": "401ea252-58ee-4255-b537-e90af10ff0a1",
      "meta": {
        "profile": [ "http://hl7.org/fhir/us/qicore/StructureDefinition/qicore-patient" ]
      },
      "text": {
        "status": "generated",
        "div": "<div xmlns=\"http://www.w3.org/1999/xhtml\"><div class=\"hapiHeaderText\">LastAssPrfEGAResultQuantityEQ20<b>DENOMPASS</b></div><table class=\"hapiPropertyTable\"><tbody><tr><td>Date of birth</td><td><span>01 February 2004</span></td></tr></tbody></table></div>"
      },
      "extension": [ {
        "url": "http://hl7.org/fhir/us/core/StructureDefinition/us-core-race",
        "extension": [ {
          "url": "ombCategory",
          "valueCoding": {
            "system": "urn:oid:2.16.840.1.113883.6.238",
            "code": "1002-5",
            "display": "American Indian or Alaska Native",
            "userSelected": true
          }
        }, {
          "url": "text",
          "valueString": "American Indian or Alaska Native"
        } ]
      }, {
        "url": "http://hl7.org/fhir/us/core/StructureDefinition/us-core-ethnicity",
        "extension": [ {
          "url": "ombCategory",
          "valueCoding": {
            "system": "urn:oid:2.16.840.1.113883.6.238",
            "code": "2135-2",
            "display": "Hispanic or Latino",
            "userSelected": true
          }
        }, {
          "url": "text",
          "valueString": "Hispanic or Latino"
        } ]
      } ],
      "identifier": [ {
        "type": {
          "coding": [ {
            "system": "http://terminology.hl7.org/CodeSystem/v2-0203",
            "code": "MR"
          } ]
        },
        "system": "https://bonnie-fhir.healthit.gov/",
        "value": "633b3f9f0968f80122503ce1"
      } ],
      "active": true,
      "name": [ {
        "use": "usual",
        "family": "DENOMPass",
        "given": [ "LastAssPrfEGAResultQuantityEQ20" ]
      } ],
      "gender": "female",
      "birthDate": "2005-02-01"
    },
    "request": {
      "method": "PUT",
      "url": "Patient/401ea252-58ee-4255-b537-e90af10ff0a1"
    }
  }, {
    "fullUrl": "https://madie.cms.gov/Observation/750891b8-3a02-46ba-91b4-9fbc7dc6a4a6",
    "resource": {
      "resourceType": "Observation",
      "id": "750891b8-3a02-46ba-91b4-9fbc7dc6a4a6",
      "meta": {
        "profile": [ "http://hl7.org/fhir/us/qicore/StructureDefinition/qicore-simple-observation" ]
      },
      "status": "final",
      "category": [ {
        "coding": [ {
          "system": "http://terminology.hl7.org/CodeSystem/observation-category",
          "code": "exam",
          "display": "exam",
          "userSelected": true
        } ]
      } ],
      "code": {
        "coding": [ {
          "system": "http://loinc.org",
          "code": "93857-1"
        } ]
      },
      "subject": {
        "reference": "Patient/401ea252-58ee-4255-b537-e90af10ff0a1"
      },
      "effectiveDateTime": "2026-02-01T08:00:00.000+00:00",
      "performer": [ {
        "reference": "Organization/example1",
        "display": "Hendricks Country Hospital"
      } ],
      "valueDateTime": "2026-02-01T08:00:00.000+00:00"
    },
    "request": {
      "method": "PUT",
      "url": "Observation/750891b8-3a02-46ba-91b4-9fbc7dc6a4a6"
    }
  }, {
    "fullUrl": "https://madie.cms.gov/Observation/6f0b5a0d-fa45-49a9-a2a8-d3482b68ff12",
    "resource": {
      "resourceType": "Observation",
      "id": "6f0b5a0d-fa45-49a9-a2a8-d3482b68ff12",
      "meta": {
        "profile": [ "http://hl7.org/fhir/us/qicore/StructureDefinition/qicore-simple-observation" ]
      },
      "status": "final",
      "category": [ {
        "coding": [ {
          "system": "http://terminology.hl7.org/CodeSystem/observation-category",
          "code": "exam",
          "display": "exam",
          "userSelected": true
        } ]
      } ],
      "code": {
        "coding": [ {
          "system": "http://loinc.org",
          "code": "11884-4"
        } ]
      },
      "subject": {
        "reference": "Patient/401ea252-58ee-4255-b537-e90af10ff0a1"
      },
      "effectiveDateTime": "2026-02-01T08:00:00.000+00:00",
      "performer": [ {
        "reference": "Organization/example1",
        "display": "Hendricks Country Hospital"
      } ],
      "valueQuantity": {
        "value": 20,
        "unit": "wk"
      }
    },
    "request": {
      "method": "PUT",
      "url": "Observation/6f0b5a0d-fa45-49a9-a2a8-d3482b68ff12"
    }
  }, {
    "fullUrl": "https://madie.cms.gov/Encounter/7b98bb97-9d97-465c-97d5-4ca4cf2a928f",
    "resource": {
      "resourceType": "Encounter",
      "id": "7b98bb97-9d97-465c-97d5-4ca4cf2a928f",
      "meta": {
        "profile": [ "http://hl7.org/fhir/us/qicore/StructureDefinition/qicore-encounter" ]
      },
      "status": "finished",
      "class": {
        "system": "http://terminology.hl7.org/CodeSystem/v3-ActCode",
        "code": "IMP",
        "display": "inpatient encounter"
      },
      "type": [ {
        "coding": [ {
          "system": "http://snomed.info/sct",
          "code": "183452005"
        } ]
      } ],
      "subject": {
        "reference": "Patient/401ea252-58ee-4255-b537-e90af10ff0a1"
      },
      "period": {
        "start": "2026-02-01T08:00:00.000+00:00",
        "end": "2026-02-05T08:15:00.000+00:00"
      }
    },
    "request": {
      "method": "PUT",
      "url": "Encounter/7b98bb97-9d97-465c-97d5-4ca4cf2a928f"
    }
  }, {
    "fullUrl": "https://madie.cms.gov/Procedure/b9689ee1-9e7c-4d26-8d2a-aac2402e2888",
    "resource": {
      "resourceType": "Procedure",
      "id": "b9689ee1-9e7c-4d26-8d2a-aac2402e2888",
      "meta": {
        "profile": [ "http://hl7.org/fhir/us/qicore/StructureDefinition/qicore-procedure" ]
      },
      "extension": [ {
        "url": "http://hl7.org/fhir/us/qicore/StructureDefinition/qicore-recorded",
        "valueDateTime": "2014-04-05T13:35:00.000+00:00"
      } ],
      "status": "completed",
      "code": {
        "coding": [ {
          "system": "http://snomed.info/sct",
          "code": "10745001"
        } ]
      },
      "subject": {
        "reference": "Patient/401ea252-58ee-4255-b537-e90af10ff0a1"
      },
      "performedPeriod": {
        "start": "2026-02-01T08:00:00.000+00:00",
        "end": "2026-02-05T08:15:00.000+00:00"
      }
    },
    "request": {
      "method": "PUT",
      "url": "Procedure/b9689ee1-9e7c-4d26-8d2a-aac2402e2888"
    }
  }, {
    "fullUrl": "https://madie.cms.gov/Coverage/16674ea0-5254-4fb4-a285-ba7926da9b9d",
    "resource": {
      "resourceType": "Coverage",
      "id": "16674ea0-5254-4fb4-a285-ba7926da9b9d",
      "meta": {
        "profile": [ "http://hl7.org/fhir/us/qicore/StructureDefinition/qicore-coverage" ]
      },
      "status": "active",
      "subscriberId": "523435",
      "beneficiary": {
        "reference": "Patient/401ea252-58ee-4255-b537-e90af10ff0a1"
      },
      "relationship": {
        "coding": [ {
          "system": "http://terminology.hl7.org/CodeSystem/subscriber-relationship",
          "code": "self"
        } ]
      },
      "payor": [ {
        "reference": "Organization/1a14430c-3e87-4d78-b1a8-6fdb5c9b3961"
      } ]
    },
    "request": {
      "method": "PUT",
      "url": "Coverage/16674ea0-5254-4fb4-a285-ba7926da9b9d"
    }
  }, {
    "fullUrl": "https://madie.cms.gov/Organization/1a14430c-3e87-4d78-b1a8-6fdb5c9b3961",
    "resource": {
      "resourceType": "Organization",
      "id": "1a14430c-3e87-4d78-b1a8-6fdb5c9b3961",
      "meta": {
        "profile": [ "http://hl7.org/fhir/us/qicore/StructureDefinition/qicore-organization" ]
      },
      "identifier": [ {
        "use": "temp",
        "system": "urn:oid:2.16.840.1.113883.4.4",
        "value": "21-3259825"
      } ],
      "active": true,
      "type": [ {
        "coding": [ {
          "system": "http://terminology.hl7.org/CodeSystem/organization-type",
          "code": "pay",
          "display": "Payer"
        } ]
      } ],
      "name": "Blue Cross Blue Shield of Texas",
      "telecom": [ {
        "system": "phone",
        "value": "(+1) 972-766-6900"
      } ],
      "address": [ {
        "use": "billing",
        "type": "postal",
        "line": [ "P.O. Box 660044" ],
        "city": "Dallas",
        "state": "TX",
        "postalCode": "75266-0044",
        "country": "USA"
      } ]
    },
    "request": {
      "method": "PUT",
      "url": "Organization/1a14430c-3e87-4d78-b1a8-6fdb5c9b3961"
    }
  }, {
    "fullUrl": "https://madie.cms.gov/Practitioner/e6816534-5dc9-426f-91c8-436e37c8b940",
    "resource": {
      "resourceType": "Practitioner",
      "id": "e6816534-5dc9-426f-91c8-436e37c8b940",
      "meta": {
        "profile": [ "http://hl7.org/fhir/us/qicore/StructureDefinition/qicore-practitioner" ]
      },
      "identifier": [ {
        "system": "http://hl7.org/fhir/sid/us-npi",
        "value": "1234567890"
      } ],
      "name": [ {
        "family": "Evil",
        "prefix": [ "Dr" ]
      } ]
    },
    "request": {
      "method": "PUT",
      "url": "Practitioner/e6816534-5dc9-426f-91c8-436e37c8b940"
    }
  }, {
    "fullUrl": "https://madie.cms.gov/MeasureReport/6d7fea0c-18e0-4f25-8249-17ca70e11e26",
    "resource": {
      "resourceType": "MeasureReport",
      "id": "6d7fea0c-18e0-4f25-8249-17ca70e11e26",
      "meta": {
        "profile": [ "http://hl7.org/fhir/us/cqfmeasures/StructureDefinition/test-case-cqfm" ]
      },
      "contained": [ {
        "resourceType": "Parameters",
        "id": "62a993c9-d434-471a-91ea-0605eb3fefd8-parameters",
        "parameter": [ {
          "name": "subject",
          "valueString": "401ea252-58ee-4255-b537-e90af10ff0a1"
        } ]
      } ],
      "extension": [ {
        "url": "http://hl7.org/fhir/StructureDefinition/cqf-inputParameters",
        "valueReference": {
          "reference": "#62a993c9-d434-471a-91ea-0605eb3fefd8-parameters"
        }
      }, {
        "url": "http://hl7.org/fhir/us/cqfmeasures/StructureDefinition/cqfm-testCaseDescription",
        "valueMarkdown": "Last Assessment Performed EGA = 20 weeks\n"
      } ],
      "modifierExtension": [ {
        "url": "http://hl7.org/fhir/us/cqfmeasures/StructureDefinition/cqfm-isTestCase",
        "valueBoolean": true
      } ],
      "status": "complete",
      "type": "individual",
      "measure": "https://madie.cms.gov/Measure/CMS1028FHIRPCSevereOBComps",
      "period": {
        "start": "2026-01-01",
        "end": "2026-12-31"
      },
      "group": [ {
        "id": "Group_1",
        "population": [ {
          "id": "InitialPopulation_1",
          "code": {
            "coding": [ {
              "system": "http://terminology.hl7.org/CodeSystem/measure-population",
              "code": "initial-population",
              "display": "Initial Population"
            } ]
          },
          "count": 1
        }, {
          "id": "Denominator_1",
          "code": {
            "coding": [ {
              "system": "http://terminology.hl7.org/CodeSystem/measure-population",
              "code": "denominator",
              "display": "Denominator"
            } ]
          },
          "count": 1
        }, {
          "id": "Numerator_1",
          "code": {
            "coding": [ {
              "system": "http://terminology.hl7.org/CodeSystem/measure-population",
              "code": "numerator",
              "display": "Numerator"
            } ]
          },
          "count": 0
        }, {
          "id": "NumeratorExclusion_1",
          "code": {
            "coding": [ {
              "system": "http://terminology.hl7.org/CodeSystem/measure-population",
              "code": "numerator-exclusion",
              "display": "Numerator Exclusion"
            } ]
          },
          "count": 0
        } ],
        "measureScore": {
          "value": 0.0
        }
      }, {
        "id": "Group_2",
        "population": [ {
          "id": "InitialPopulation_2",
          "code": {
            "coding": [ {
              "system": "http://terminology.hl7.org/CodeSystem/measure-population",
              "code": "initial-population",
              "display": "Initial Population"
            } ]
          },
          "count": 1
        }, {
          "id": "Denominator_2",
          "code": {
            "coding": [ {
              "system": "http://terminology.hl7.org/CodeSystem/measure-population",
              "code": "denominator",
              "display": "Denominator"
            } ]
          },
          "count": 1
        }, {
          "id": "Numerator_2",
          "code": {
            "coding": [ {
              "system": "http://terminology.hl7.org/CodeSystem/measure-population",
              "code": "numerator",
              "display": "Numerator"
            } ]
          },
          "count": 0
        }, {
          "id": "NumeratorExclusion_2",
          "code": {
            "coding": [ {
              "system": "http://terminology.hl7.org/CodeSystem/measure-population",
              "code": "numerator-exclusion",
              "display": "Numerator Exclusion"
            } ]
          },
          "count": 0
        } ],
        "measureScore": {
          "value": 0.0
        }
      } ],
      "evaluatedResource": [ {
        "reference": "Patient/401ea252-58ee-4255-b537-e90af10ff0a1"
      }, {
        "reference": "Observation/750891b8-3a02-46ba-91b4-9fbc7dc6a4a6"
      }, {
        "reference": "Observation/6f0b5a0d-fa45-49a9-a2a8-d3482b68ff12"
      }, {
        "reference": "Encounter/7b98bb97-9d97-465c-97d5-4ca4cf2a928f"
      }, {
        "reference": "Procedure/b9689ee1-9e7c-4d26-8d2a-aac2402e2888"
      }, {
        "reference": "Coverage/16674ea0-5254-4fb4-a285-ba7926da9b9d"
      }, {
        "reference": "Organization/1a14430c-3e87-4d78-b1a8-6fdb5c9b3961"
      }, {
        "reference": "Practitioner/e6816534-5dc9-426f-91c8-436e37c8b940"
      } ]
    },
    "request": {
      "method": "PUT",
      "url": "MeasureReport/6d7fea0c-18e0-4f25-8249-17ca70e11e26"
    }
  } ]
}