{
  "resourceType": "Bundle",
  "id": "NUMERFail-KCCQDomain181Days",
  "type": "collection",
  "entry": [ {
    "fullUrl": "https://madie.cms.gov/Patient/3c3fefdd-acbc-4fb4-928c-52d4c1231dd1",
    "resource": {
      "resourceType": "Patient",
      "id": "3c3fefdd-acbc-4fb4-928c-52d4c1231dd1",
      "meta": {
        "profile": [ "http://hl7.org/fhir/us/qicore/StructureDefinition/qicore-patient" ]
      },
      "extension": [ {
        "url": "http://hl7.org/fhir/us/core/StructureDefinition/us-core-race",
        "extension": [ {
          "url": "ombCategory",
          "valueCoding": {
            "system": "urn:oid:2.16.840.1.113883.6.238",
            "code": "2028-9",
            "display": "Asian"
          }
        }, {
          "url": "text",
          "valueString": "Asian"
        } ]
      }, {
        "url": "http://hl7.org/fhir/us/core/StructureDefinition/us-core-ethnicity",
        "extension": [ {
          "url": "ombCategory",
          "valueCoding": {
            "system": "urn:oid:2.16.840.1.113883.6.238",
            "code": "2135-2",
            "display": "Hispanic or Latino"
          }
        }, {
          "url": "text",
          "valueString": "Hispanic or Latino"
        } ]
      } ],
      "identifier": [ {
        "system": "http://hospital.smarthealthit.org",
        "value": "999999995"
      } ],
      "name": [ {
        "family": "Bertha",
        "given": [ "Betty" ]
      } ],
      "gender": "female",
      "birthDate": "2008-01-01"
    }
  }, {
    "fullUrl": "https://madie.cms.gov/Encounter/66268455-b121-4287-a432-855ed96361e1",
    "resource": {
      "resourceType": "Encounter",
      "id": "66268455-b121-4287-a432-855ed96361e1",
      "meta": {
        "profile": [ "http://hl7.org/fhir/us/qicore/StructureDefinition/qicore-encounter" ]
      },
      "status": "finished",
      "class": {
        "system": "http://terminology.hl7.org/CodeSystem/v3-ActCode",
        "code": "AMB",
        "display": "ambulatory"
      },
      "type": [ {
        "coding": [ {
          "system": "http://snomed.info/sct",
          "code": "185317003",
          "display": "Telephone encounter (procedure)"
        } ]
      } ],
      "subject": {
        "reference": "Patient/3c3fefdd-acbc-4fb4-928c-52d4c1231dd1"
      },
      "period": {
        "start": "2026-01-01T01:00:00.000+00:00",
        "end": "2026-01-01T01:15:00.000+00:00"
      }
    }
  }, {
    "fullUrl": "https://madie.cms.gov/Encounter/fe1e8473-3ff9-48be-9e16-9b003ebdd375",
    "resource": {
      "resourceType": "Encounter",
      "id": "fe1e8473-3ff9-48be-9e16-9b003ebdd375",
      "meta": {
        "profile": [ "http://hl7.org/fhir/us/qicore/StructureDefinition/qicore-encounter" ]
      },
      "status": "finished",
      "class": {
        "system": "http://terminology.hl7.org/CodeSystem/v3-ActCode",
        "code": "AMB",
        "display": "ambulatory"
      },
      "type": [ {
        "coding": [ {
          "system": "http://snomed.info/sct",
          "code": "185317003",
          "display": "Telephone encounter (procedure)"
        } ]
      } ],
      "subject": {
        "reference": "Patient/3c3fefdd-acbc-4fb4-928c-52d4c1231dd1"
      },
      "period": {
        "start": "2026-01-02T01:00:00.000+00:00",
        "end": "2026-01-02T01:15:00.000+00:00"
      }
    }
  }, {
    "fullUrl": "https://madie.cms.gov/Condition/276b2955-191b-4569-935f-353ffe9be252",
    "resource": {
      "resourceType": "Condition",
      "id": "276b2955-191b-4569-935f-353ffe9be252",
      "meta": {
        "profile": [ "http://hl7.org/fhir/us/qicore/StructureDefinition/qicore-condition-problems-health-concerns" ]
      },
      "clinicalStatus": {
        "coding": [ {
          "system": "http://terminology.hl7.org/CodeSystem/condition-clinical",
          "code": "active"
        } ]
      },
      "category": [ {
        "coding": [ {
          "system": "http://terminology.hl7.org/CodeSystem/condition-category",
          "code": "problem-list-item",
          "display": "Problem List Item"
        } ]
      } ],
      "code": {
        "coding": [ {
          "system": "http://snomed.info/sct",
          "version": "http://snomed.info/sct/731000124108/version/20250301",
          "code": "10091002",
          "display": "High output heart failure (disorder)"
        } ]
      },
      "subject": {
        "reference": "Patient/3c3fefdd-acbc-4fb4-928c-52d4c1231dd1"
      },
      "onsetDateTime": "2025-12-31T23:59:00.000+00:00"
    }
  }, {
    "fullUrl": "https://madie.cms.gov/Observation/02155423-0122-48da-af10-99067ed3f4d8",
    "resource": {
      "resourceType": "Observation",
      "id": "02155423-0122-48da-af10-99067ed3f4d8",
      "meta": {
        "profile": [ "http://hl7.org/fhir/us/qicore/StructureDefinition/qicore-observation-screening-assessment" ]
      },
      "status": "final",
      "category": [ {
        "coding": [ {
          "system": "http://terminology.hl7.org/CodeSystem/observation-category",
          "code": "survey",
          "display": "survey"
        } ],
        "text": "survey"
      } ],
      "code": {
        "coding": [ {
          "system": "http://loinc.org",
          "code": "72189-4",
          "display": "Quality of life score [KCCQ]"
        } ]
      },
      "subject": {
        "reference": "Patient/3c3fefdd-acbc-4fb4-928c-52d4c1231dd1"
      },
      "effectivePeriod": {
        "start": "2026-01-01T23:00:00.000+00:00",
        "end": "2026-01-01T23:59:00.000+00:00"
      },
      "valueInteger": 4
    }
  }, {
    "fullUrl": "https://madie.cms.gov/Observation/31b9b3c2-091a-4a7c-99f9-aededdcb820c",
    "resource": {
      "resourceType": "Observation",
      "id": "31b9b3c2-091a-4a7c-99f9-aededdcb820c",
      "meta": {
        "profile": [ "http://hl7.org/fhir/us/qicore/StructureDefinition/qicore-observation-screening-assessment" ]
      },
      "status": "final",
      "category": [ {
        "coding": [ {
          "system": "http://terminology.hl7.org/CodeSystem/observation-category",
          "code": "survey",
          "display": "survey"
        } ],
        "text": "survey"
      } ],
      "code": {
        "coding": [ {
          "system": "http://loinc.org",
          "code": "72189-4",
          "display": "Quality of life score [KCCQ]"
        } ]
      },
      "subject": {
        "reference": "Patient/3c3fefdd-acbc-4fb4-928c-52d4c1231dd1"
      },
      "effectivePeriod": {
        "start": "2026-07-03T23:00:00.000+00:00",
        "end": "2026-07-03T23:59:00.000+00:00"
      },
      "valueInteger": 4
    }
  }, {
    "fullUrl": "https://madie.cms.gov/Observation/e1afa9f7-f62e-4ec5-a482-52f3fd8558c3",
    "resource": {
      "resourceType": "Observation",
      "id": "e1afa9f7-f62e-4ec5-a482-52f3fd8558c3",
      "meta": {
        "profile": [ "http://hl7.org/fhir/us/qicore/StructureDefinition/qicore-observation-screening-assessment" ]
      },
      "status": "final",
      "category": [ {
        "coding": [ {
          "system": "http://terminology.hl7.org/CodeSystem/observation-category",
          "code": "survey",
          "display": "survey"
        } ],
        "text": "survey"
      } ],
      "code": {
        "coding": [ {
          "system": "http://loinc.org",
          "code": "72194-4",
          "display": "Symptom stability score [KCCQ]"
        } ]
      },
      "subject": {
        "reference": "Patient/3c3fefdd-acbc-4fb4-928c-52d4c1231dd1"
      },
      "effectivePeriod": {
        "start": "2026-01-01T23:00:00.000+00:00",
        "end": "2026-01-01T23:59:00.000+00:00"
      },
      "valueInteger": 4
    }
  }, {
    "fullUrl": "https://madie.cms.gov/Observation/c0fcae0e-2529-4b31-b613-0de5005fd4d5",
    "resource": {
      "resourceType": "Observation",
      "id": "c0fcae0e-2529-4b31-b613-0de5005fd4d5",
      "meta": {
        "profile": [ "http://hl7.org/fhir/us/qicore/StructureDefinition/qicore-observation-screening-assessment" ]
      },
      "status": "final",
      "category": [ {
        "coding": [ {
          "system": "http://terminology.hl7.org/CodeSystem/observation-category",
          "code": "survey",
          "display": "survey"
        } ],
        "text": "survey"
      } ],
      "code": {
        "coding": [ {
          "system": "http://loinc.org",
          "code": "72194-4",
          "display": "Symptom stability score [KCCQ]"
        } ]
      },
      "subject": {
        "reference": "Patient/3c3fefdd-acbc-4fb4-928c-52d4c1231dd1"
      },
      "effectivePeriod": {
        "start": "2026-06-30T23:00:00.000+00:00",
        "end": "2026-06-30T23:59:00.000+00:00"
      },
      "valueInteger": 4
    }
  }, {
    "fullUrl": "https://madie.cms.gov/Observation/db390f85-a687-4f25-a85a-88db7a1ff4cd",
    "resource": {
      "resourceType": "Observation",
      "id": "db390f85-a687-4f25-a85a-88db7a1ff4cd",
      "meta": {
        "profile": [ "http://hl7.org/fhir/us/qicore/StructureDefinition/qicore-observation-screening-assessment" ]
      },
      "status": "final",
      "category": [ {
        "coding": [ {
          "system": "http://terminology.hl7.org/CodeSystem/observation-category",
          "code": "survey",
          "display": "survey"
        } ],
        "text": "survey"
      } ],
      "code": {
        "coding": [ {
          "system": "http://loinc.org",
          "code": "72190-2",
          "display": "Self-efficacy score [KCCQ]"
        } ]
      },
      "subject": {
        "reference": "Patient/3c3fefdd-acbc-4fb4-928c-52d4c1231dd1"
      },
      "effectivePeriod": {
        "start": "2026-01-01T23:00:00.000+00:00",
        "end": "2026-01-01T23:59:00.000+00:00"
      },
      "valueInteger": 4
    }
  }, {
    "fullUrl": "https://madie.cms.gov/Observation/7d038c1b-3f7e-4a08-b750-dacd2db59165",
    "resource": {
      "resourceType": "Observation",
      "id": "7d038c1b-3f7e-4a08-b750-dacd2db59165",
      "meta": {
        "profile": [ "http://hl7.org/fhir/us/qicore/StructureDefinition/qicore-observation-screening-assessment" ]
      },
      "status": "final",
      "category": [ {
        "coding": [ {
          "system": "http://terminology.hl7.org/CodeSystem/observation-category",
          "code": "survey",
          "display": "survey"
        } ],
        "text": "survey"
      } ],
      "code": {
        "coding": [ {
          "system": "http://loinc.org",
          "code": "72190-2",
          "display": "Self-efficacy score [KCCQ]"
        } ]
      },
      "subject": {
        "reference": "Patient/3c3fefdd-acbc-4fb4-928c-52d4c1231dd1"
      },
      "effectivePeriod": {
        "start": "2026-06-30T23:00:00.000+00:00",
        "end": "2026-06-30T23:59:00.000+00:00"
      },
      "valueInteger": 4
    }
  }, {
    "fullUrl": "https://madie.cms.gov/Observation/8423ec56-ca03-4168-b294-cf773c33ef0a",
    "resource": {
      "resourceType": "Observation",
      "id": "8423ec56-ca03-4168-b294-cf773c33ef0a",
      "meta": {
        "profile": [ "http://hl7.org/fhir/us/qicore/StructureDefinition/qicore-observation-screening-assessment" ]
      },
      "status": "final",
      "category": [ {
        "coding": [ {
          "system": "http://terminology.hl7.org/CodeSystem/observation-category",
          "code": "survey",
          "display": "survey"
        } ],
        "text": "survey"
      } ],
      "code": {
        "coding": [ {
          "system": "http://loinc.org",
          "code": "72191-0",
          "display": "Total symptom score [KCCQ]"
        } ]
      },
      "subject": {
        "reference": "Patient/3c3fefdd-acbc-4fb4-928c-52d4c1231dd1"
      },
      "effectivePeriod": {
        "start": "2026-01-01T23:00:00.000+00:00",
        "end": "2026-01-01T23:59:00.000+00:00"
      },
      "valueInteger": 4
    }
  }, {
    "fullUrl": "https://madie.cms.gov/Observation/ce9392a8-cefd-4bc9-bad2-f3e10f09ea18",
    "resource": {
      "resourceType": "Observation",
      "id": "ce9392a8-cefd-4bc9-bad2-f3e10f09ea18",
      "meta": {
        "profile": [ "http://hl7.org/fhir/us/qicore/StructureDefinition/qicore-observation-screening-assessment" ]
      },
      "status": "final",
      "category": [ {
        "coding": [ {
          "system": "http://terminology.hl7.org/CodeSystem/observation-category",
          "code": "survey",
          "display": "survey"
        } ],
        "text": "survey"
      } ],
      "code": {
        "coding": [ {
          "system": "http://loinc.org",
          "code": "72191-0",
          "display": "Total symptom score [KCCQ]"
        } ]
      },
      "subject": {
        "reference": "Patient/3c3fefdd-acbc-4fb4-928c-52d4c1231dd1"
      },
      "effectivePeriod": {
        "start": "2026-06-30T23:00:00.000+00:00",
        "end": "2026-06-30T23:59:00.000+00:00"
      },
      "valueInteger": 4
    }
  }, {
    "fullUrl": "https://madie.cms.gov/Observation/620558b6-e124-4cdd-b587-1ad2b66ae243",
    "resource": {
      "resourceType": "Observation",
      "id": "620558b6-e124-4cdd-b587-1ad2b66ae243",
      "meta": {
        "profile": [ "http://hl7.org/fhir/us/qicore/StructureDefinition/qicore-observation-screening-assessment" ]
      },
      "status": "final",
      "category": [ {
        "coding": [ {
          "system": "http://terminology.hl7.org/CodeSystem/observation-category",
          "code": "survey",
          "display": "survey"
        } ],
        "text": "survey"
      } ],
      "code": {
        "coding": [ {
          "system": "http://loinc.org",
          "code": "72195-1",
          "display": "Physical limitation score [KCCQ]"
        } ]
      },
      "subject": {
        "reference": "Patient/3c3fefdd-acbc-4fb4-928c-52d4c1231dd1"
      },
      "effectivePeriod": {
        "start": "2026-01-01T23:00:00.000+00:00",
        "end": "2026-01-01T23:59:00.000+00:00"
      },
      "valueInteger": 4
    }
  }, {
    "fullUrl": "https://madie.cms.gov/Observation/211512b3-9e34-4e23-8ff5-8151ce2a7400",
    "resource": {
      "resourceType": "Observation",
      "id": "211512b3-9e34-4e23-8ff5-8151ce2a7400",
      "meta": {
        "profile": [ "http://hl7.org/fhir/us/qicore/StructureDefinition/qicore-observation-screening-assessment" ]
      },
      "status": "final",
      "category": [ {
        "coding": [ {
          "system": "http://terminology.hl7.org/CodeSystem/observation-category",
          "code": "survey",
          "display": "survey"
        } ],
        "text": "survey"
      } ],
      "code": {
        "coding": [ {
          "system": "http://loinc.org",
          "code": "72195-1",
          "display": "Physical limitation score [KCCQ]"
        } ]
      },
      "subject": {
        "reference": "Patient/3c3fefdd-acbc-4fb4-928c-52d4c1231dd1"
      },
      "effectivePeriod": {
        "start": "2026-06-30T23:00:00.000+00:00",
        "end": "2026-06-30T23:59:00.000+00:00"
      },
      "valueInteger": 4
    }
  }, {
    "fullUrl": "https://madie.cms.gov/Observation/1f7fa0be-60e4-4f76-9843-bb6442cdccac",
    "resource": {
      "resourceType": "Observation",
      "id": "1f7fa0be-60e4-4f76-9843-bb6442cdccac",
      "meta": {
        "profile": [ "http://hl7.org/fhir/us/qicore/StructureDefinition/qicore-observation-screening-assessment" ]
      },
      "status": "final",
      "category": [ {
        "coding": [ {
          "system": "http://terminology.hl7.org/CodeSystem/observation-category",
          "code": "survey",
          "display": "survey"
        } ],
        "text": "survey"
      } ],
      "code": {
        "coding": [ {
          "system": "http://loinc.org",
          "code": "72196-9",
          "display": "Social limitation score [KCCQ]"
        } ]
      },
      "subject": {
        "reference": "Patient/3c3fefdd-acbc-4fb4-928c-52d4c1231dd1"
      },
      "effectivePeriod": {
        "start": "2026-01-01T23:00:00.000+00:00",
        "end": "2026-01-01T23:59:00.000+00:00"
      },
      "valueInteger": 4
    }
  }, {
    "fullUrl": "https://madie.cms.gov/Observation/c7fdf4f9-ace4-410b-87d4-4e5fa634c402",
    "resource": {
      "resourceType": "Observation",
      "id": "c7fdf4f9-ace4-410b-87d4-4e5fa634c402",
      "meta": {
        "profile": [ "http://hl7.org/fhir/us/qicore/StructureDefinition/qicore-observation-screening-assessment" ]
      },
      "status": "final",
      "category": [ {
        "coding": [ {
          "system": "http://terminology.hl7.org/CodeSystem/observation-category",
          "code": "survey",
          "display": "survey"
        } ],
        "text": "survey"
      } ],
      "code": {
        "coding": [ {
          "system": "http://loinc.org",
          "code": "72196-9",
          "display": "Social limitation score [KCCQ]"
        } ]
      },
      "subject": {
        "reference": "Patient/3c3fefdd-acbc-4fb4-928c-52d4c1231dd1"
      },
      "effectivePeriod": {
        "start": "2026-06-30T23:00:00.000+00:00",
        "end": "2026-06-30T23:59:00.000+00:00"
      },
      "valueInteger": 4
    }
  }, {
    "fullUrl": "https://madie.cms.gov/MeasureReport/41ad14c6-ec7e-45c3-9bba-381d6daf3a2a",
    "resource": {
      "resourceType": "MeasureReport",
      "id": "41ad14c6-ec7e-45c3-9bba-381d6daf3a2a",
      "meta": {
        "profile": [ "http://hl7.org/fhir/us/cqfmeasures/StructureDefinition/test-case-cqfm" ]
      },
      "contained": [ {
        "resourceType": "Parameters",
        "id": "4c74d1fc-c43e-4b5e-8851-f7ead352754b-parameters",
        "parameter": [ {
          "name": "subject",
          "valueString": "3c3fefdd-acbc-4fb4-928c-52d4c1231dd1"
        } ]
      } ],
      "extension": [ {
        "url": "http://hl7.org/fhir/StructureDefinition/cqf-inputParameters",
        "valueReference": {
          "reference": "#4c74d1fc-c43e-4b5e-8851-f7ead352754b-parameters"
        }
      }, {
        "url": "http://hl7.org/fhir/us/cqfmeasures/StructureDefinition/cqfm-testCaseDescription",
        "valueMarkdown": "Patient has one KCCQ Domain assessments that is 181 days after their initial FSA."
      } ],
      "modifierExtension": [ {
        "url": "http://hl7.org/fhir/us/cqfmeasures/StructureDefinition/cqfm-isTestCase",
        "valueBoolean": true
      } ],
      "status": "complete",
      "type": "individual",
      "measure": "https://madie.cms.gov/Measure/CMS90FHIRFSAforHeartFailure",
      "period": {
        "start": "2026-01-01",
        "end": "2026-12-31"
      },
      "group": [ {
        "id": "Group_1",
        "population": [ {
          "id": "InitialPopulation_1",
          "code": {
            "coding": [ {
              "system": "http://terminology.hl7.org/CodeSystem/measure-population",
              "code": "initial-population",
              "display": "Initial Population"
            } ]
          },
          "count": 1
        }, {
          "id": "Denominator_1",
          "code": {
            "coding": [ {
              "system": "http://terminology.hl7.org/CodeSystem/measure-population",
              "code": "denominator",
              "display": "Denominator"
            } ]
          },
          "count": 1
        }, {
          "id": "DenominatorExclusion_1",
          "code": {
            "coding": [ {
              "system": "http://terminology.hl7.org/CodeSystem/measure-population",
              "code": "denominator-exclusion",
              "display": "Denominator Exclusion"
            } ]
          },
          "count": 0
        }, {
          "id": "Numerator_1",
          "code": {
            "coding": [ {
              "system": "http://terminology.hl7.org/CodeSystem/measure-population",
              "code": "numerator",
              "display": "Numerator"
            } ]
          },
          "count": 0
        } ],
        "measureScore": {
          "value": 1.0
        }
      } ],
      "evaluatedResource": [ {
        "reference": "Patient/3c3fefdd-acbc-4fb4-928c-52d4c1231dd1"
      }, {
        "reference": "Encounter/66268455-b121-4287-a432-855ed96361e1"
      }, {
        "reference": "Encounter/fe1e8473-3ff9-48be-9e16-9b003ebdd375"
      }, {
        "reference": "Condition/276b2955-191b-4569-935f-353ffe9be252"
      }, {
        "reference": "Observation/02155423-0122-48da-af10-99067ed3f4d8"
      }, {
        "reference": "Observation/31b9b3c2-091a-4a7c-99f9-aededdcb820c"
      }, {
        "reference": "Observation/e1afa9f7-f62e-4ec5-a482-52f3fd8558c3"
      }, {
        "reference": "Observation/c0fcae0e-2529-4b31-b613-0de5005fd4d5"
      }, {
        "reference": "Observation/db390f85-a687-4f25-a85a-88db7a1ff4cd"
      }, {
        "reference": "Observation/7d038c1b-3f7e-4a08-b750-dacd2db59165"
      }, {
        "reference": "Observation/8423ec56-ca03-4168-b294-cf773c33ef0a"
      }, {
        "reference": "Observation/ce9392a8-cefd-4bc9-bad2-f3e10f09ea18"
      }, {
        "reference": "Observation/620558b6-e124-4cdd-b587-1ad2b66ae243"
      }, {
        "reference": "Observation/211512b3-9e34-4e23-8ff5-8151ce2a7400"
      }, {
        "reference": "Observation/1f7fa0be-60e4-4f76-9843-bb6442cdccac"
      }, {
        "reference": "Observation/c7fdf4f9-ace4-410b-87d4-4e5fa634c402"
      } ]
    }
  } ]
}