{
  "resourceType": "Bundle",
  "id": "68468414568746513",
  "type": "collection",
  "entry": [ {
    "fullUrl": "https://madie.cms.gov/Patient/6a86918d-3f69-43c8-8863-1d0bf835a2c7",
    "resource": {
      "resourceType": "Patient",
      "id": "6a86918d-3f69-43c8-8863-1d0bf835a2c7",
      "meta": {
        "profile": [ "http://hl7.org/fhir/us/qicore/StructureDefinition/qicore-patient" ]
      },
      "extension": [ {
        "url": "http://hl7.org/fhir/us/core/StructureDefinition/us-core-race",
        "extension": [ {
          "url": "ombCategory",
          "valueCoding": {
            "system": "urn:oid:2.16.840.1.113883.6.238",
            "code": "1002-5",
            "display": "American Indian or Alaska Native"
          }
        }, {
          "url": "text",
          "valueString": "American Indian or Alaska Native"
        } ]
      }, {
        "url": "http://hl7.org/fhir/us/core/StructureDefinition/us-core-ethnicity",
        "extension": [ {
          "url": "ombCategory",
          "valueCoding": {
            "system": "urn:oid:2.16.840.1.113883.6.238",
            "code": "2135-2",
            "display": "Hispanic or Latino"
          }
        }, {
          "url": "text",
          "valueString": "Hispanic or Latino"
        } ]
      } ],
      "identifier": [ {
        "type": {
          "coding": [ {
            "system": "http://terminology.hl7.org/CodeSystem/v2-0203",
            "code": "MR"
          } ]
        },
        "system": "https://bonnie-fhir.healthit.gov/",
        "value": "643510313413131"
      } ],
      "name": [ {
        "family": "DENEXCEPPass",
        "given": [ "PregnancyDx" ]
      } ],
      "gender": "female",
      "birthDate": "1995-01-02"
    }
  }, {
    "fullUrl": "https://madie.cms.gov/Encounter/1529dc1f-0fd3-482f-88c3-b10324e5a8f0",
    "resource": {
      "resourceType": "Encounter",
      "id": "1529dc1f-0fd3-482f-88c3-b10324e5a8f0",
      "meta": {
        "profile": [ "http://hl7.org/fhir/us/qicore/StructureDefinition/qicore-encounter" ]
      },
      "status": "finished",
      "class": {
        "system": "http://terminology.hl7.org/CodeSystem/v3-ActCode",
        "code": "AMB",
        "display": "ambulatory"
      },
      "type": [ {
        "coding": [ {
          "system": "http://snomed.info/sct",
          "version": "http://snomed.info/sct/731000124108/version/20250301",
          "code": "185463005",
          "display": "Visit out of hours"
        } ]
      } ],
      "subject": {
        "reference": "Patient/6a86918d-3f69-43c8-8863-1d0bf835a2c7"
      },
      "period": {
        "start": "2026-02-17T08:00:00.000+00:00",
        "end": "2026-02-17T08:15:00.000+00:00"
      }
    }
  }, {
    "fullUrl": "https://madie.cms.gov/Encounter/7cd7e2ec-8f1d-486c-b720-d5779fe9081c",
    "resource": {
      "resourceType": "Encounter",
      "id": "7cd7e2ec-8f1d-486c-b720-d5779fe9081c",
      "meta": {
        "profile": [ "http://hl7.org/fhir/us/qicore/StructureDefinition/qicore-encounter" ]
      },
      "status": "finished",
      "class": {
        "system": "http://terminology.hl7.org/CodeSystem/v3-ActCode",
        "code": "AMB",
        "display": "ambulatory"
      },
      "type": [ {
        "coding": [ {
          "system": "http://snomed.info/sct",
          "version": "http://snomed.info/sct/731000124108/version/20250301",
          "code": "185316007",
          "display": "Indirect encounter (procedure)"
        } ]
      } ],
      "subject": {
        "reference": "Patient/6a86918d-3f69-43c8-8863-1d0bf835a2c7"
      },
      "period": {
        "start": "2026-12-30T08:00:00.000+00:00",
        "end": "2026-12-30T08:15:00.000+00:00"
      }
    }
  }, {
    "fullUrl": "https://madie.cms.gov/Condition/5380f64b-fbf4-4771-acdc-8fa7e3d89877",
    "resource": {
      "resourceType": "Condition",
      "id": "5380f64b-fbf4-4771-acdc-8fa7e3d89877",
      "meta": {
        "profile": [ "http://hl7.org/fhir/us/qicore/StructureDefinition/qicore-condition-problems-health-concerns" ]
      },
      "clinicalStatus": {
        "coding": [ {
          "system": "http://terminology.hl7.org/CodeSystem/condition-clinical",
          "code": "active",
          "display": "Active"
        } ]
      },
      "verificationStatus": {
        "coding": [ {
          "system": "http://terminology.hl7.org/CodeSystem/condition-ver-status",
          "code": "confirmed",
          "display": "Confirmed"
        } ]
      },
      "category": [ {
        "coding": [ {
          "system": "http://terminology.hl7.org/CodeSystem/condition-category",
          "code": "problem-list-item",
          "display": "Problem List Item"
        } ]
      } ],
      "code": {
        "coding": [ {
          "system": "http://snomed.info/sct",
          "version": "http://snomed.info/sct/731000124108/version/20250301",
          "code": "10091002",
          "display": "High output heart failure (disorder)"
        } ]
      },
      "subject": {
        "reference": "Patient/6a86918d-3f69-43c8-8863-1d0bf835a2c7"
      },
      "onsetPeriod": {
        "start": "2026-02-17T08:00:00.000+00:00"
      }
    }
  }, {
    "fullUrl": "https://madie.cms.gov/Observation/e9fd3fe8-e4de-43d5-9950-8542d4225def",
    "resource": {
      "resourceType": "Observation",
      "id": "e9fd3fe8-e4de-43d5-9950-8542d4225def",
      "meta": {
        "profile": [ "http://hl7.org/fhir/us/qicore/StructureDefinition/qicore-observation-clinical-result" ]
      },
      "status": "final",
      "category": [ {
        "coding": [ {
          "system": "http://terminology.hl7.org/CodeSystem/observation-category",
          "code": "imaging",
          "display": "Imaging"
        } ],
        "text": "Imaging"
      }, {
        "coding": [ {
          "system": "http://terminology.hl7.org/CodeSystem/observation-category",
          "code": "survey"
        } ]
      } ],
      "code": {
        "coding": [ {
          "system": "http://loinc.org",
          "version": "2.76",
          "code": "10230-1",
          "display": "Left ventricular Ejection fraction"
        } ]
      },
      "subject": {
        "reference": "Patient/6a86918d-3f69-43c8-8863-1d0bf835a2c7"
      },
      "effectiveDateTime": "2026-02-17T08:00:00.000+00:00",
      "valueQuantity": {
        "value": 35,
        "unit": "%",
        "system": "http://unitsofmeasure.org",
        "code": "%"
      }
    }
  }, {
    "fullUrl": "https://madie.cms.gov/Observation/fc752d9d-e65d-4bc4-a121-03118de6b9eb",
    "resource": {
      "resourceType": "Observation",
      "id": "fc752d9d-e65d-4bc4-a121-03118de6b9eb",
      "meta": {
        "profile": [ "http://hl7.org/fhir/us/core/StructureDefinition/us-core-observation-pregnancystatus" ]
      },
      "status": "final",
      "category": [ {
        "coding": [ {
          "system": "http://terminology.hl7.org/CodeSystem/observation-category",
          "code": "social-history",
          "display": "Social History"
        } ],
        "text": "Social History"
      } ],
      "code": {
        "coding": [ {
          "system": "http://loinc.org",
          "code": "82810-3",
          "display": "Pregnancy status"
        } ],
        "text": "Pregnancy Status"
      },
      "subject": {
        "reference": "Patient/6a86918d-3f69-43c8-8863-1d0bf835a2c7"
      },
      "effectiveDateTime": "2026-01-24T00:00:00.000+00:00",
      "valueCodeableConcept": {
        "coding": [ {
          "system": "http://snomed.info/sct",
          "version": "http://snomed.info/sct/731000124108",
          "code": "77386006",
          "display": "Pregnant"
        } ],
        "text": "Pregnant"
      }
    }
  }, {
    "fullUrl": "https://madie.cms.gov/MeasureReport/3decfa0c-9100-4194-9643-c3065c1a253f",
    "resource": {
      "resourceType": "MeasureReport",
      "id": "3decfa0c-9100-4194-9643-c3065c1a253f",
      "meta": {
        "profile": [ "http://hl7.org/fhir/us/cqfmeasures/StructureDefinition/test-case-cqfm" ]
      },
      "contained": [ {
        "resourceType": "Parameters",
        "id": "49f29bcb-075d-4b80-ae30-ea5651590680-parameters",
        "parameter": [ {
          "name": "subject",
          "valueString": "6a86918d-3f69-43c8-8863-1d0bf835a2c7"
        } ]
      } ],
      "extension": [ {
        "url": "http://hl7.org/fhir/StructureDefinition/cqf-inputParameters",
        "valueReference": {
          "reference": "#49f29bcb-075d-4b80-ae30-ea5651590680-parameters"
        }
      }, {
        "url": "http://hl7.org/fhir/us/cqfmeasures/StructureDefinition/cqfm-testCaseDescription",
        "valueMarkdown": "Patient with HF diagnosis, 2 encounters and LVSD observation < 40% not prescribed ACE/ARB but meets denominator exception criteria with uscore pregnancy observation"
      } ],
      "modifierExtension": [ {
        "url": "http://hl7.org/fhir/us/cqfmeasures/StructureDefinition/cqfm-isTestCase",
        "valueBoolean": true
      } ],
      "status": "complete",
      "type": "individual",
      "measure": "https://madie.cms.gov/Measure/CMS135FHIRACEIorARBorARNIforHF",
      "period": {
        "start": "2026-01-01",
        "end": "2026-12-31"
      },
      "group": [ {
        "id": "Group_1",
        "population": [ {
          "id": "InitialPopulation_1",
          "code": {
            "coding": [ {
              "system": "http://terminology.hl7.org/CodeSystem/measure-population",
              "code": "initial-population",
              "display": "Initial Population"
            } ]
          },
          "count": 1
        }, {
          "id": "Denominator_1",
          "code": {
            "coding": [ {
              "system": "http://terminology.hl7.org/CodeSystem/measure-population",
              "code": "denominator",
              "display": "Denominator"
            } ]
          },
          "count": 1
        }, {
          "id": "DenominatorExclusion_1",
          "code": {
            "coding": [ {
              "system": "http://terminology.hl7.org/CodeSystem/measure-population",
              "code": "denominator-exclusion",
              "display": "Denominator Exclusion"
            } ]
          },
          "count": 0
        }, {
          "id": "Numerator_1",
          "code": {
            "coding": [ {
              "system": "http://terminology.hl7.org/CodeSystem/measure-population",
              "code": "numerator",
              "display": "Numerator"
            } ]
          },
          "count": 0
        }, {
          "id": "DenominatorException_1",
          "code": {
            "coding": [ {
              "system": "http://terminology.hl7.org/CodeSystem/measure-population",
              "code": "denominator-exception",
              "display": "Denominator Exception"
            } ]
          },
          "count": 1
        } ],
        "measureScore": {
          "value": 1.0
        }
      } ],
      "evaluatedResource": [ {
        "reference": "Patient/6a86918d-3f69-43c8-8863-1d0bf835a2c7"
      }, {
        "reference": "Encounter/1529dc1f-0fd3-482f-88c3-b10324e5a8f0"
      }, {
        "reference": "Encounter/7cd7e2ec-8f1d-486c-b720-d5779fe9081c"
      }, {
        "reference": "Condition/5380f64b-fbf4-4771-acdc-8fa7e3d89877"
      }, {
        "reference": "Observation/e9fd3fe8-e4de-43d5-9950-8542d4225def"
      }, {
        "reference": "Observation/fc752d9d-e65d-4bc4-a121-03118de6b9eb"
      } ]
    }
  } ]
}