{
  "resourceType": "Bundle",
  "id": "63233350414ba67d4e1d1c2f",
  "type": "transaction",
  "entry": [ {
    "fullUrl": "https://madie.cms.gov/Patient/fa4e4971-3ff2-44f0-bfd6-0821a89a3f84",
    "resource": {
      "resourceType": "Patient",
      "id": "fa4e4971-3ff2-44f0-bfd6-0821a89a3f84",
      "meta": {
        "profile": [ "http://hl7.org/fhir/us/qicore/StructureDefinition/qicore-patient" ]
      },
      "extension": [ {
        "url": "http://hl7.org/fhir/us/core/StructureDefinition/us-core-race",
        "extension": [ {
          "url": "ombCategory",
          "valueCoding": {
            "system": "urn:oid:2.16.840.1.113883.6.238",
            "code": "2028-9",
            "display": "Asian",
            "userSelected": true
          }
        }, {
          "url": "text",
          "valueString": "Asian"
        } ]
      }, {
        "url": "http://hl7.org/fhir/us/core/StructureDefinition/us-core-ethnicity",
        "extension": [ {
          "url": "ombCategory",
          "valueCoding": {
            "system": "urn:oid:2.16.840.1.113883.6.238",
            "code": "2186-5",
            "display": "Not Hispanic or Latino",
            "userSelected": true
          }
        }, {
          "url": "text",
          "valueString": "Not Hispanic or Latino"
        } ]
      } ],
      "identifier": [ {
        "system": "http://hospital.smarthealthit.org",
        "value": "999999999"
      } ],
      "name": [ {
        "family": "DENEXPass",
        "given": [ "CancerRelatedPainEncounterDx" ]
      } ],
      "gender": "female",
      "birthDate": "1944-02-01"
    },
    "request": {
      "method": "PUT",
      "url": "Patient/fa4e4971-3ff2-44f0-bfd6-0821a89a3f84"
    }
  }, {
    "fullUrl": "https://madie.cms.gov/Encounter/1eb8fa00-3f68-47b6-8a0b-55e999bef42d",
    "resource": {
      "resourceType": "Encounter",
      "id": "1eb8fa00-3f68-47b6-8a0b-55e999bef42d",
      "meta": {
        "profile": [ "http://hl7.org/fhir/us/qicore/StructureDefinition/qicore-encounter" ]
      },
      "status": "finished",
      "class": {
        "system": "http://terminology.hl7.org/CodeSystem/v3-ActCode",
        "code": "IMP",
        "display": "inpatient encounter"
      },
      "type": [ {
        "coding": [ {
          "system": "http://snomed.info/sct",
          "code": "183452005",
          "display": "Emergency hospital admission (procedure)",
          "userSelected": true
        } ]
      } ],
      "subject": {
        "reference": "Patient/fa4e4971-3ff2-44f0-bfd6-0821a89a3f84"
      },
      "period": {
        "start": "2026-01-01T11:45:00.000+00:00",
        "end": "2026-01-03T11:59:00.000+00:00"
      },
      "reasonReference": [ {
        "reference": "Condition/a6f51db7-a44c-4c65-be7c-ad9c18ba2fd3"
      } ]
    },
    "request": {
      "method": "PUT",
      "url": "Encounter/1eb8fa00-3f68-47b6-8a0b-55e999bef42d"
    }
  }, {
    "fullUrl": "https://madie.cms.gov/MedicationRequest/45ce7357-85b2-47ee-8092-95ad0bc99cb1",
    "resource": {
      "resourceType": "MedicationRequest",
      "id": "45ce7357-85b2-47ee-8092-95ad0bc99cb1",
      "meta": {
        "profile": [ "http://hl7.org/fhir/us/qicore/StructureDefinition/qicore-medicationrequest" ]
      },
      "status": "completed",
      "intent": "order",
      "category": [ {
        "coding": [ {
          "system": "http://terminology.hl7.org/CodeSystem/medicationrequest-category",
          "code": "discharge",
          "display": "Discharge",
          "userSelected": true
        } ]
      } ],
      "doNotPerform": false,
      "medicationCodeableConcept": {
        "coding": [ {
          "system": "http://www.nlm.nih.gov/research/umls/rxnorm",
          "code": "2103192",
          "display": "sufentanil 0.03 MG Sublingual Tablet",
          "userSelected": true
        } ]
      },
      "subject": {
        "reference": "Patient/fa4e4971-3ff2-44f0-bfd6-0821a89a3f84"
      },
      "authoredOn": "2026-01-03T11:59:00.000+00:00",
      "requester": {
        "reference": "Practitioner/9032f965-6265-4ef7-a5b1-70d20964d085"
      }
    },
    "request": {
      "method": "PUT",
      "url": "MedicationRequest/45ce7357-85b2-47ee-8092-95ad0bc99cb1"
    }
  }, {
    "fullUrl": "https://madie.cms.gov/Condition/a6f51db7-a44c-4c65-be7c-ad9c18ba2fd3",
    "resource": {
      "resourceType": "Condition",
      "id": "a6f51db7-a44c-4c65-be7c-ad9c18ba2fd3",
      "meta": {
        "profile": [ "http://hl7.org/fhir/us/qicore/StructureDefinition/qicore-condition-encounter-diagnosis" ]
      },
      "extension": [ {
        "url": "http://hl7.org/fhir/StructureDefinition/condition-assertedDate",
        "valueDateTime": "2025-12-31T00:00:00.000+00:00"
      } ],
      "clinicalStatus": {
        "coding": [ {
          "system": "http://terminology.hl7.org/CodeSystem/condition-clinical",
          "code": "active",
          "display": "Active",
          "userSelected": true
        } ]
      },
      "verificationStatus": {
        "coding": [ {
          "system": "http://terminology.hl7.org/CodeSystem/condition-ver-status",
          "code": "confirmed"
        } ]
      },
      "category": [ {
        "coding": [ {
          "system": "http://terminology.hl7.org/CodeSystem/condition-category",
          "code": "encounter-diagnosis",
          "display": "Encounter Diagnosis"
        } ]
      } ],
      "severity": {
        "coding": [ {
          "system": "http://snomed.info/sct",
          "code": "24484000",
          "display": "Severe (severity modifier)"
        } ]
      },
      "code": {
        "coding": [ {
          "system": "http://snomed.info/sct",
          "code": "788891004",
          "display": "Chronic pain after cancer treatment (finding)",
          "userSelected": true
        } ]
      },
      "subject": {
        "reference": "Patient/fa4e4971-3ff2-44f0-bfd6-0821a89a3f84"
      },
      "encounter": {
        "reference": "Encounter/1eb8fa00-3f68-47b6-8a0b-55e999bef42d"
      },
      "onsetDateTime": "2025-12-31T00:00:00.000+00:00"
    },
    "request": {
      "method": "PUT",
      "url": "Condition/a6f51db7-a44c-4c65-be7c-ad9c18ba2fd3"
    }
  }, {
    "fullUrl": "https://madie.cms.gov/Coverage/daea4e2f-c604-4f21-93f5-63fcd1437c97",
    "resource": {
      "resourceType": "Coverage",
      "id": "daea4e2f-c604-4f21-93f5-63fcd1437c97",
      "meta": {
        "profile": [ "http://hl7.org/fhir/us/qicore/StructureDefinition/qicore-coverage" ]
      },
      "status": "active",
      "subscriberId": "523435",
      "beneficiary": {
        "reference": "Patient/fa4e4971-3ff2-44f0-bfd6-0821a89a3f84"
      },
      "relationship": {
        "coding": [ {
          "system": "http://terminology.hl7.org/CodeSystem/subscriber-relationship",
          "code": "self"
        } ]
      },
      "payor": [ {
        "reference": "Organization/4fdb7f9f-8f94-4600-95ec-76b9567c0c8f"
      } ]
    },
    "request": {
      "method": "PUT",
      "url": "Coverage/daea4e2f-c604-4f21-93f5-63fcd1437c97"
    }
  }, {
    "fullUrl": "https://madie.cms.gov/Practitioner/9032f965-6265-4ef7-a5b1-70d20964d085",
    "resource": {
      "resourceType": "Practitioner",
      "id": "9032f965-6265-4ef7-a5b1-70d20964d085",
      "meta": {
        "profile": [ "http://hl7.org/fhir/us/qicore/StructureDefinition/qicore-practitioner" ]
      },
      "identifier": [ {
        "system": "http://hl7.org/fhir/sid/us-npi",
        "value": "9999999896"
      } ],
      "active": true,
      "name": [ {
        "family": "Ramires",
        "given": [ "Alma" ],
        "prefix": [ "Dr" ]
      } ],
      "address": [ {
        "use": "home",
        "line": [ "534 Erewhon St" ],
        "city": "Netherville",
        "state": "IN",
        "postalCode": "46131"
      } ],
      "qualification": [ {
        "identifier": [ {
          "system": "http://goodhealth.org/prIdentifier",
          "value": "12345"
        } ],
        "code": {
          "coding": [ {
            "system": "http://terminology.hl7.org/CodeSystem/v2-0360|2.7",
            "code": "BS",
            "display": "Bachelor of Science"
          } ],
          "text": "Bachelor of Science"
        },
        "period": {
          "start": "1995"
        },
        "issuer": {
          "display": "Example University"
        }
      } ]
    },
    "request": {
      "method": "PUT",
      "url": "Practitioner/9032f965-6265-4ef7-a5b1-70d20964d085"
    }
  }, {
    "fullUrl": "https://madie.cms.gov/Organization/4fdb7f9f-8f94-4600-95ec-76b9567c0c8f",
    "resource": {
      "resourceType": "Organization",
      "id": "4fdb7f9f-8f94-4600-95ec-76b9567c0c8f",
      "meta": {
        "profile": [ "http://hl7.org/fhir/us/qicore/StructureDefinition/qicore-organization" ]
      },
      "identifier": [ {
        "use": "temp",
        "system": "urn:oid:2.16.840.1.113883.4.4",
        "value": "21-3259825"
      } ],
      "active": true,
      "type": [ {
        "coding": [ {
          "system": "http://terminology.hl7.org/CodeSystem/organization-type",
          "code": "pay",
          "display": "Payer"
        } ]
      } ],
      "name": "Blue Cross Blue Shield of Texas",
      "telecom": [ {
        "system": "phone",
        "value": "(+1) 972-766-6900"
      } ],
      "address": [ {
        "use": "billing",
        "type": "postal",
        "line": [ "P.O. Box 660044" ],
        "city": "Dallas",
        "state": "TX",
        "postalCode": "75266-0044",
        "country": "USA"
      } ]
    },
    "request": {
      "method": "PUT",
      "url": "Organization/4fdb7f9f-8f94-4600-95ec-76b9567c0c8f"
    }
  }, {
    "fullUrl": "https://madie.cms.gov/MeasureReport/7177d9c2-6f57-4267-ae11-bfdd6e7589bf",
    "resource": {
      "resourceType": "MeasureReport",
      "id": "7177d9c2-6f57-4267-ae11-bfdd6e7589bf",
      "meta": {
        "profile": [ "http://hl7.org/fhir/us/cqfmeasures/StructureDefinition/test-case-cqfm" ]
      },
      "contained": [ {
        "resourceType": "Parameters",
        "id": "9d0f0452-9e15-4d63-b76b-acfc355a581a-parameters",
        "parameter": [ {
          "name": "subject",
          "valueString": "fa4e4971-3ff2-44f0-bfd6-0821a89a3f84"
        } ]
      } ],
      "extension": [ {
        "url": "http://hl7.org/fhir/StructureDefinition/cqf-inputParameters",
        "valueReference": {
          "reference": "#9d0f0452-9e15-4d63-b76b-acfc355a581a-parameters"
        }
      }, {
        "url": "http://hl7.org/fhir/us/cqfmeasures/StructureDefinition/cqfm-testCaseDescription",
        "valueMarkdown": "Encounter 1/1 - 1/3, 1 opioid completed at dc, has cancer that started last day of prior year\n\nEncounterDx using reasonReference "
      } ],
      "modifierExtension": [ {
        "url": "http://hl7.org/fhir/us/cqfmeasures/StructureDefinition/cqfm-isTestCase",
        "valueBoolean": true
      } ],
      "status": "complete",
      "type": "individual",
      "measure": "https://madie.cms.gov/Measure/CMS506FHIRSafeUseofOpioids",
      "period": {
        "start": "2026-01-01",
        "end": "2026-12-31"
      },
      "group": [ {
        "id": "Group_1",
        "population": [ {
          "id": "InitialPopulation_1",
          "code": {
            "coding": [ {
              "system": "http://terminology.hl7.org/CodeSystem/measure-population",
              "code": "initial-population",
              "display": "Initial Population"
            } ]
          },
          "count": 1
        }, {
          "id": "Denominator_1",
          "code": {
            "coding": [ {
              "system": "http://terminology.hl7.org/CodeSystem/measure-population",
              "code": "denominator",
              "display": "Denominator"
            } ]
          },
          "count": 1
        }, {
          "id": "DenominatorExclusion_1",
          "code": {
            "coding": [ {
              "system": "http://terminology.hl7.org/CodeSystem/measure-population",
              "code": "denominator-exclusion",
              "display": "Denominator Exclusion"
            } ]
          },
          "count": 1
        }, {
          "id": "Numerator_1",
          "code": {
            "coding": [ {
              "system": "http://terminology.hl7.org/CodeSystem/measure-population",
              "code": "numerator",
              "display": "Numerator"
            } ]
          },
          "count": 0
        } ],
        "measureScore": {
          "value": 0.0
        }
      } ],
      "evaluatedResource": [ {
        "reference": "Patient/fa4e4971-3ff2-44f0-bfd6-0821a89a3f84"
      }, {
        "reference": "Encounter/1eb8fa00-3f68-47b6-8a0b-55e999bef42d"
      }, {
        "reference": "MedicationRequest/45ce7357-85b2-47ee-8092-95ad0bc99cb1"
      }, {
        "reference": "Condition/a6f51db7-a44c-4c65-be7c-ad9c18ba2fd3"
      }, {
        "reference": "Coverage/daea4e2f-c604-4f21-93f5-63fcd1437c97"
      }, {
        "reference": "Practitioner/9032f965-6265-4ef7-a5b1-70d20964d085"
      }, {
        "reference": "Organization/4fdb7f9f-8f94-4600-95ec-76b9567c0c8f"
      } ]
    },
    "request": {
      "method": "PUT",
      "url": "MeasureReport/7177d9c2-6f57-4267-ae11-bfdd6e7589bf"
    }
  } ]
}