{
  "resourceType": "Bundle",
  "id": "63487c2f0968f801225401a6",
  "type": "transaction",
  "entry": [ {
    "fullUrl": "https://madie.cms.gov/Patient/d67078ee-41eb-4c8e-a14e-7a433a2e2b87",
    "resource": {
      "resourceType": "Patient",
      "id": "d67078ee-41eb-4c8e-a14e-7a433a2e2b87",
      "meta": {
        "profile": [ "http://hl7.org/fhir/us/qicore/StructureDefinition/qicore-patient" ]
      },
      "text": {
        "status": "generated",
        "div": "<div xmlns=\"http://www.w3.org/1999/xhtml\"><div class=\"hapiHeaderText\">CalcEGAEstDelivNULL<b>DENOMFAIL </b></div><table class=\"hapiPropertyTable\"><tbody><tr><td>Identifier</td><td>b00b06f67015bda652373741cca10f65466d828e3a674df9528f73ec417ce0bb</td></tr><tr><td>Date of birth</td><td><span>14 February 1985</span></td></tr></tbody></table></div>"
      },
      "extension": [ {
        "url": "http://hl7.org/fhir/us/core/StructureDefinition/us-core-race",
        "extension": [ {
          "url": "ombCategory",
          "valueCoding": {
            "system": "urn:oid:2.16.840.1.113883.6.238",
            "code": "1002-5",
            "display": "American Indian or Alaska Native",
            "userSelected": true
          }
        }, {
          "url": "text",
          "valueString": "American Indian or Alaska Native"
        } ]
      }, {
        "url": "http://hl7.org/fhir/us/core/StructureDefinition/us-core-ethnicity",
        "extension": [ {
          "url": "ombCategory",
          "valueCoding": {
            "system": "urn:oid:2.16.840.1.113883.6.238",
            "code": "2135-2",
            "display": "Hispanic or Latino",
            "userSelected": true
          }
        }, {
          "url": "text",
          "valueString": "Hispanic or Latino"
        } ]
      } ],
      "identifier": [ {
        "type": {
          "coding": [ {
            "system": "http://terminology.hl7.org/CodeSystem/v2-0203",
            "code": "MR"
          } ]
        },
        "system": "https://bonnie-fhir.healthit.gov/",
        "value": "63487c2f0968f801225401a6"
      } ],
      "active": true,
      "name": [ {
        "use": "usual",
        "family": "DENOMFail",
        "given": [ "CalcEGAEstDelivNULL" ]
      } ],
      "gender": "female",
      "birthDate": "1998-02-14"
    },
    "request": {
      "method": "PUT",
      "url": "Patient/d67078ee-41eb-4c8e-a14e-7a433a2e2b87"
    }
  }, {
    "fullUrl": "https://madie.cms.gov/Observation/410be1ae-6623-41ef-8809-64f3f7c40108",
    "resource": {
      "resourceType": "Observation",
      "id": "410be1ae-6623-41ef-8809-64f3f7c40108",
      "meta": {
        "profile": [ "http://hl7.org/fhir/us/qicore/StructureDefinition/qicore-simple-observation" ]
      },
      "status": "final",
      "category": [ {
        "coding": [ {
          "system": "http://terminology.hl7.org/CodeSystem/observation-category",
          "code": "exam",
          "display": "exam",
          "userSelected": true
        } ]
      } ],
      "code": {
        "coding": [ {
          "system": "http://loinc.org",
          "code": "93857-1"
        } ]
      },
      "subject": {
        "reference": "Patient/d67078ee-41eb-4c8e-a14e-7a433a2e2b87"
      },
      "effectiveDateTime": "2026-01-15T08:00:00.000+00:00",
      "performer": [ {
        "reference": "Organization/example1",
        "display": "Hendricks Country Hospital"
      } ],
      "valueDateTime": "2026-01-15T08:00:00.000+00:00"
    },
    "request": {
      "method": "PUT",
      "url": "Observation/410be1ae-6623-41ef-8809-64f3f7c40108"
    }
  }, {
    "fullUrl": "https://madie.cms.gov/Observation/b45a0afb-c1aa-4a16-a06a-2622e55984b4",
    "resource": {
      "resourceType": "Observation",
      "id": "b45a0afb-c1aa-4a16-a06a-2622e55984b4",
      "meta": {
        "profile": [ "http://hl7.org/fhir/us/qicore/StructureDefinition/qicore-simple-observation" ]
      },
      "status": "final",
      "category": [ {
        "coding": [ {
          "system": "http://terminology.hl7.org/CodeSystem/observation-category",
          "code": "exam",
          "display": "exam",
          "userSelected": true
        } ]
      } ],
      "code": {
        "coding": [ {
          "system": "http://loinc.org",
          "code": "11778-8"
        } ]
      },
      "subject": {
        "reference": "Patient/d67078ee-41eb-4c8e-a14e-7a433a2e2b87"
      },
      "effectiveDateTime": "2026-01-15T07:00:00.000+00:00",
      "performer": [ {
        "reference": "Organization/example1",
        "display": "Hendricks Country Hospital"
      } ]
    },
    "request": {
      "method": "PUT",
      "url": "Observation/b45a0afb-c1aa-4a16-a06a-2622e55984b4"
    }
  }, {
    "fullUrl": "https://madie.cms.gov/Observation/b0936b49-54e8-42ee-93f3-ba748aa2a7b2",
    "resource": {
      "resourceType": "Observation",
      "id": "b0936b49-54e8-42ee-93f3-ba748aa2a7b2",
      "meta": {
        "profile": [ "http://hl7.org/fhir/us/qicore/StructureDefinition/qicore-simple-observation" ]
      },
      "status": "final",
      "category": [ {
        "coding": [ {
          "system": "http://terminology.hl7.org/CodeSystem/observation-category",
          "code": "exam",
          "display": "exam",
          "userSelected": true
        } ]
      } ],
      "code": {
        "coding": [ {
          "system": "http://loinc.org",
          "code": "11996-6"
        } ]
      },
      "subject": {
        "reference": "Patient/d67078ee-41eb-4c8e-a14e-7a433a2e2b87"
      },
      "effectiveDateTime": "2026-01-15T07:59:00.000+00:00",
      "performer": [ {
        "reference": "Organization/example1",
        "display": "Hendricks Country Hospital"
      } ],
      "valueInteger": 1
    },
    "request": {
      "method": "PUT",
      "url": "Observation/b0936b49-54e8-42ee-93f3-ba748aa2a7b2"
    }
  }, {
    "fullUrl": "https://madie.cms.gov/Encounter/55109601-299a-446a-82d0-57473391dcf6",
    "resource": {
      "resourceType": "Encounter",
      "id": "55109601-299a-446a-82d0-57473391dcf6",
      "meta": {
        "profile": [ "http://hl7.org/fhir/us/qicore/StructureDefinition/qicore-encounter" ]
      },
      "status": "finished",
      "class": {
        "system": "http://terminology.hl7.org/CodeSystem/v3-ActCode",
        "code": "IMP",
        "display": "inpatient encounter"
      },
      "type": [ {
        "coding": [ {
          "system": "http://snomed.info/sct",
          "code": "183452005"
        } ]
      } ],
      "subject": {
        "reference": "Patient/d67078ee-41eb-4c8e-a14e-7a433a2e2b87"
      },
      "period": {
        "start": "2026-01-15T08:00:00.000+00:00",
        "end": "2026-01-20T08:15:00.000+00:00"
      },
      "reasonCode": [ {
        "coding": [ {
          "system": "http://snomed.info/sct",
          "code": "169826009",
          "display": "Single live birth from singleton pregnancy (finding)"
        } ]
      } ]
    },
    "request": {
      "method": "PUT",
      "url": "Encounter/55109601-299a-446a-82d0-57473391dcf6"
    }
  }, {
    "fullUrl": "https://madie.cms.gov/Procedure/0090dc45-e96f-493f-9df4-8ad317ebfe0e",
    "resource": {
      "resourceType": "Procedure",
      "id": "0090dc45-e96f-493f-9df4-8ad317ebfe0e",
      "meta": {
        "profile": [ "http://hl7.org/fhir/us/qicore/StructureDefinition/qicore-procedure" ]
      },
      "extension": [ {
        "url": "http://hl7.org/fhir/us/qicore/StructureDefinition/qicore-recorded",
        "valueDateTime": "2014-04-05T13:35:00.000+00:00"
      } ],
      "status": "completed",
      "code": {
        "coding": [ {
          "system": "http://www.cms.gov/Medicare/Coding/ICD10",
          "code": "10D07Z3"
        } ]
      },
      "subject": {
        "reference": "Patient/d67078ee-41eb-4c8e-a14e-7a433a2e2b87"
      },
      "performedPeriod": {
        "start": "2026-01-15T08:10:00.000+00:00",
        "end": "2026-01-15T09:14:00.000+00:00"
      }
    },
    "request": {
      "method": "PUT",
      "url": "Procedure/0090dc45-e96f-493f-9df4-8ad317ebfe0e"
    }
  }, {
    "fullUrl": "https://madie.cms.gov/Condition/d182994b-edea-45a8-a18f-b21cf6304dbe",
    "resource": {
      "resourceType": "Condition",
      "id": "d182994b-edea-45a8-a18f-b21cf6304dbe",
      "meta": {
        "profile": [ "http://hl7.org/fhir/us/qicore/StructureDefinition/qicore-condition" ]
      },
      "category": [ {
        "coding": [ {
          "system": "http://terminology.hl7.org/CodeSystem/condition-category",
          "code": "encounter-diagnosis",
          "display": "Encounter Diagnosis"
        } ]
      } ],
      "code": {
        "coding": [ {
          "system": "http://snomed.info/sct",
          "version": "2022-09",
          "code": "169826009",
          "display": "Single live birth (finding)",
          "userSelected": true
        } ]
      },
      "subject": {
        "reference": "Patient/d67078ee-41eb-4c8e-a14e-7a433a2e2b87"
      },
      "recordedDate": "2026-10-21T08:00:00.000+00:00"
    },
    "request": {
      "method": "PUT",
      "url": "Condition/d182994b-edea-45a8-a18f-b21cf6304dbe"
    }
  }, {
    "fullUrl": "https://madie.cms.gov/Coverage/cd707fd4-2062-4db8-b87e-a37be69151da",
    "resource": {
      "resourceType": "Coverage",
      "id": "cd707fd4-2062-4db8-b87e-a37be69151da",
      "meta": {
        "profile": [ "http://hl7.org/fhir/us/qicore/StructureDefinition/qicore-coverage" ]
      },
      "status": "active",
      "subscriberId": "523435",
      "beneficiary": {
        "reference": "Patient/d67078ee-41eb-4c8e-a14e-7a433a2e2b87"
      },
      "relationship": {
        "coding": [ {
          "system": "http://terminology.hl7.org/CodeSystem/subscriber-relationship",
          "code": "self"
        } ]
      },
      "payor": [ {
        "reference": "Organization/204257cb-74ad-4d8a-8c38-6b289d012d00"
      } ]
    },
    "request": {
      "method": "PUT",
      "url": "Coverage/cd707fd4-2062-4db8-b87e-a37be69151da"
    }
  }, {
    "fullUrl": "https://madie.cms.gov/Organization/204257cb-74ad-4d8a-8c38-6b289d012d00",
    "resource": {
      "resourceType": "Organization",
      "id": "204257cb-74ad-4d8a-8c38-6b289d012d00",
      "meta": {
        "profile": [ "http://hl7.org/fhir/us/qicore/StructureDefinition/qicore-organization" ]
      },
      "identifier": [ {
        "use": "temp",
        "system": "urn:oid:2.16.840.1.113883.4.4",
        "value": "21-3259825"
      } ],
      "active": true,
      "type": [ {
        "coding": [ {
          "system": "http://terminology.hl7.org/CodeSystem/organization-type",
          "code": "pay",
          "display": "Payer"
        } ]
      } ],
      "name": "Blue Cross Blue Shield of Texas",
      "telecom": [ {
        "system": "phone",
        "value": "(+1) 972-766-6900"
      } ],
      "address": [ {
        "use": "billing",
        "type": "postal",
        "line": [ "P.O. Box 660044" ],
        "city": "Dallas",
        "state": "TX",
        "postalCode": "75266-0044",
        "country": "USA"
      } ]
    },
    "request": {
      "method": "PUT",
      "url": "Organization/204257cb-74ad-4d8a-8c38-6b289d012d00"
    }
  }, {
    "fullUrl": "https://madie.cms.gov/Practitioner/5caa1538-f894-44c8-9cb6-6167ce7cddf2",
    "resource": {
      "resourceType": "Practitioner",
      "id": "5caa1538-f894-44c8-9cb6-6167ce7cddf2",
      "meta": {
        "profile": [ "http://hl7.org/fhir/us/qicore/StructureDefinition/qicore-practitioner" ]
      },
      "identifier": [ {
        "system": "http://hl7.org/fhir/sid/us-npi",
        "value": "1234567890"
      } ],
      "name": [ {
        "family": "Evil",
        "prefix": [ "Dr" ]
      } ]
    },
    "request": {
      "method": "PUT",
      "url": "Practitioner/5caa1538-f894-44c8-9cb6-6167ce7cddf2"
    }
  }, {
    "fullUrl": "https://madie.cms.gov/MeasureReport/bb4d8bdc-4af3-459f-b1c2-8ed6abbabf10",
    "resource": {
      "resourceType": "MeasureReport",
      "id": "bb4d8bdc-4af3-459f-b1c2-8ed6abbabf10",
      "meta": {
        "profile": [ "http://hl7.org/fhir/us/cqfmeasures/StructureDefinition/test-case-cqfm" ]
      },
      "contained": [ {
        "resourceType": "Parameters",
        "id": "68678f94-28a5-4bb2-b909-56c0ac13d8a2-parameters",
        "parameter": [ {
          "name": "subject",
          "valueString": "d67078ee-41eb-4c8e-a14e-7a433a2e2b87"
        } ]
      } ],
      "extension": [ {
        "url": "http://hl7.org/fhir/StructureDefinition/cqf-inputParameters",
        "valueReference": {
          "reference": "#68678f94-28a5-4bb2-b909-56c0ac13d8a2-parameters"
        }
      }, {
        "url": "http://hl7.org/fhir/us/cqfmeasures/StructureDefinition/cqfm-testCaseDescription",
        "valueMarkdown": "Passes: IP, Fails: DENOM  Pt is 27 years of age,  encounter dx delivery of singleton, gravida=1authored less than 42 weeks prior to delivery, calculated EGA is NULL because last Est Deliv is NULL\n"
      } ],
      "modifierExtension": [ {
        "url": "http://hl7.org/fhir/us/cqfmeasures/StructureDefinition/cqfm-isTestCase",
        "valueBoolean": true
      } ],
      "status": "complete",
      "type": "individual",
      "measure": "https://madie.cms.gov/Measure/CMS0334FHIRPCCesareanBirth",
      "period": {
        "start": "2026-01-01",
        "end": "2026-12-31"
      },
      "group": [ {
        "id": "Group_1",
        "population": [ {
          "id": "InitialPopulation_1",
          "code": {
            "coding": [ {
              "system": "http://terminology.hl7.org/CodeSystem/measure-population",
              "code": "initial-population",
              "display": "Initial Population"
            } ]
          },
          "count": 1
        }, {
          "id": "Denominator_1",
          "code": {
            "coding": [ {
              "system": "http://terminology.hl7.org/CodeSystem/measure-population",
              "code": "denominator",
              "display": "Denominator"
            } ]
          },
          "count": 0
        }, {
          "id": "DenominatorExclusion_1",
          "code": {
            "coding": [ {
              "system": "http://terminology.hl7.org/CodeSystem/measure-population",
              "code": "denominator-exclusion",
              "display": "Denominator Exclusion"
            } ]
          },
          "count": 0
        }, {
          "id": "Numerator_1",
          "code": {
            "coding": [ {
              "system": "http://terminology.hl7.org/CodeSystem/measure-population",
              "code": "numerator",
              "display": "Numerator"
            } ]
          },
          "count": 0
        } ],
        "measureScore": {
          "value": 0.0
        }
      } ],
      "evaluatedResource": [ {
        "reference": "Patient/d67078ee-41eb-4c8e-a14e-7a433a2e2b87"
      }, {
        "reference": "Observation/410be1ae-6623-41ef-8809-64f3f7c40108"
      }, {
        "reference": "Observation/b45a0afb-c1aa-4a16-a06a-2622e55984b4"
      }, {
        "reference": "Observation/b0936b49-54e8-42ee-93f3-ba748aa2a7b2"
      }, {
        "reference": "Encounter/55109601-299a-446a-82d0-57473391dcf6"
      }, {
        "reference": "Procedure/0090dc45-e96f-493f-9df4-8ad317ebfe0e"
      }, {
        "reference": "Condition/d182994b-edea-45a8-a18f-b21cf6304dbe"
      }, {
        "reference": "Coverage/cd707fd4-2062-4db8-b87e-a37be69151da"
      }, {
        "reference": "Organization/204257cb-74ad-4d8a-8c38-6b289d012d00"
      }, {
        "reference": "Practitioner/5caa1538-f894-44c8-9cb6-6167ce7cddf2"
      } ]
    },
    "request": {
      "method": "PUT",
      "url": "MeasureReport/bb4d8bdc-4af3-459f-b1c2-8ed6abbabf10"
    }
  } ]
}