{
  "resourceType": "Bundle",
  "id": "661476b015ed5841a5547ebf",
  "type": "transaction",
  "entry": [ {
    "fullUrl": "https://madie.cms.gov/Patient/048b1f27-6343-4bcd-950d-e228de06aa9c",
    "resource": {
      "resourceType": "Patient",
      "id": "048b1f27-6343-4bcd-950d-e228de06aa9c",
      "meta": {
        "profile": [ "http://hl7.org/fhir/us/qicore/StructureDefinition/qicore-patient" ]
      },
      "extension": [ {
        "url": "http://hl7.org/fhir/us/core/StructureDefinition/us-core-race",
        "extension": [ {
          "url": "ombCategory",
          "valueCoding": {
            "system": "urn:oid:2.16.840.1.113883.6.238",
            "code": "1002-5",
            "display": "American Indian or Alaska Native",
            "userSelected": true
          }
        }, {
          "url": "text",
          "valueString": "American Indian or Alaska Native"
        } ]
      }, {
        "url": "http://hl7.org/fhir/us/core/StructureDefinition/us-core-ethnicity",
        "extension": [ {
          "url": "ombCategory",
          "valueCoding": {
            "system": "urn:oid:2.16.840.1.113883.6.238",
            "code": "2135-2",
            "display": "Hispanic or Latino",
            "userSelected": true
          }
        }, {
          "url": "text",
          "valueString": "Hispanic or Latino"
        } ]
      }, {
        "url": "http://hl7.org/fhir/us/core/StructureDefinition/us-core-sex",
        "valueCode": "248153007"
      } ],
      "identifier": [ {
        "type": {
          "coding": [ {
            "system": "http://terminology.hl7.org/CodeSystem/v2-0203",
            "code": "MR"
          } ]
        },
        "system": "https://bonnie-fhir.healthit.gov/",
        "value": "661476b015ed5841a5547ebf"
      } ],
      "name": [ {
        "family": "NUMERStrat1Pass",
        "given": [ "MultipleEnc2NumerPass" ]
      } ],
      "gender": "male",
      "birthDate": "2011-01-01"
    },
    "request": {
      "method": "PUT",
      "url": "Patient/048b1f27-6343-4bcd-950d-e228de06aa9c"
    }
  }, {
    "fullUrl": "https://madie.cms.gov/Encounter/f52f70d1-e04e-487d-bfc5-90b174f14b51",
    "resource": {
      "resourceType": "Encounter",
      "id": "f52f70d1-e04e-487d-bfc5-90b174f14b51",
      "meta": {
        "profile": [ "http://hl7.org/fhir/us/qicore/StructureDefinition/qicore-encounter" ]
      },
      "status": "finished",
      "class": {
        "system": "http://terminology.hl7.org/CodeSystem/v3-ActCode",
        "code": "EMER",
        "display": "emergency department"
      },
      "type": [ {
        "coding": [ {
          "system": "http://snomed.info/sct",
          "version": "2023-09",
          "code": "4525004",
          "display": "Emergency department patient visit (procedure)",
          "userSelected": true
        } ]
      } ],
      "subject": {
        "reference": "Patient/048b1f27-6343-4bcd-950d-e228de06aa9c"
      },
      "period": {
        "start": "2027-05-01T06:00:00.000+00:00",
        "end": "2027-05-01T14:00:00.000+00:00"
      },
      "diagnosis": [ {
        "condition": {
          "reference": "Condition/44e5291e-eb57-4b7f-8ad2-fb417056bf34"
        },
        "use": {
          "coding": [ {
            "system": "http://terminology.hl7.org/CodeSystem/diagnosis-role",
            "code": "billing"
          } ]
        },
        "rank": 1
      } ],
      "location": [ {
        "location": {
          "reference": "Location/86154be0-8200-4ced-ab00-b4ad88370723"
        },
        "period": {
          "start": "2027-05-01T06:00:00.000+00:00",
          "end": "2027-05-01T14:00:00.000+00:00"
        }
      } ]
    },
    "request": {
      "method": "PUT",
      "url": "Encounter/f52f70d1-e04e-487d-bfc5-90b174f14b51"
    }
  }, {
    "fullUrl": "https://madie.cms.gov/Encounter/634d5a3d-7196-4f32-98bc-b2736c5fa5fe",
    "resource": {
      "resourceType": "Encounter",
      "id": "634d5a3d-7196-4f32-98bc-b2736c5fa5fe",
      "meta": {
        "profile": [ "http://hl7.org/fhir/us/qicore/StructureDefinition/qicore-encounter" ]
      },
      "status": "finished",
      "class": {
        "system": "http://terminology.hl7.org/CodeSystem/v3-ActCode",
        "code": "EMER",
        "display": "emergency department"
      },
      "type": [ {
        "coding": [ {
          "system": "http://snomed.info/sct",
          "version": "2023-09",
          "code": "4525004",
          "display": "Emergency department patient visit (procedure)",
          "userSelected": true
        } ]
      } ],
      "subject": {
        "reference": "Patient/048b1f27-6343-4bcd-950d-e228de06aa9c"
      },
      "period": {
        "start": "2027-04-01T06:00:00.000+00:00",
        "end": "2027-04-01T14:01:00.000+00:00"
      },
      "diagnosis": [ {
        "condition": {
          "reference": "Condition/44e5291e-eb57-4b7f-8ad2-fb417056bf34"
        },
        "use": {
          "coding": [ {
            "system": "http://terminology.hl7.org/CodeSystem/diagnosis-role",
            "code": "billing"
          } ]
        },
        "rank": 1
      } ],
      "location": [ {
        "location": {
          "reference": "Location/86154be0-8200-4ced-ab00-b4ad88370723"
        },
        "period": {
          "start": "2027-04-01T06:00:00.000+00:00",
          "end": "2027-04-01T14:01:00.000+00:00"
        }
      } ]
    },
    "request": {
      "method": "PUT",
      "url": "Encounter/634d5a3d-7196-4f32-98bc-b2736c5fa5fe"
    }
  }, {
    "fullUrl": "https://madie.cms.gov/Condition/44e5291e-eb57-4b7f-8ad2-fb417056bf34",
    "resource": {
      "resourceType": "Condition",
      "id": "44e5291e-eb57-4b7f-8ad2-fb417056bf34",
      "meta": {
        "profile": [ "http://hl7.org/fhir/us/qicore/StructureDefinition/qicore-condition-encounter-diagnosis" ]
      },
      "category": [ {
        "coding": [ {
          "system": "http://terminology.hl7.org/CodeSystem/condition-category",
          "code": "encounter-diagnosis",
          "display": "Encounter Diagnosis"
        } ]
      } ],
      "code": {
        "coding": [ {
          "system": "http://snomed.info/sct",
          "version": "2023-09",
          "code": "10660471000119109",
          "display": "Ulcer of left foot due to type 2 diabetes mellitus (disorder)",
          "userSelected": true
        } ]
      },
      "subject": {
        "reference": "Patient/048b1f27-6343-4bcd-950d-e228de06aa9c"
      },
      "recordedDate": "2027-05-01T08:00:00.000+00:00"
    },
    "request": {
      "method": "PUT",
      "url": "Condition/44e5291e-eb57-4b7f-8ad2-fb417056bf34"
    }
  }, {
    "fullUrl": "https://madie.cms.gov/Location/86154be0-8200-4ced-ab00-b4ad88370723",
    "resource": {
      "resourceType": "Location",
      "id": "86154be0-8200-4ced-ab00-b4ad88370723",
      "meta": {
        "profile": [ "http://hl7.org/fhir/us/qicore/StructureDefinition/qicore-location" ]
      },
      "identifier": [ {
        "use": "usual",
        "system": "http://exampleoflocation.com",
        "value": "B1-S.F2"
      } ],
      "name": "Medical Surgical East, first floor",
      "type": [ {
        "coding": [ {
          "system": "https://www.cdc.gov/nhsn/cdaportal/terminology/codesystem/hsloc.html",
          "version": "2022",
          "code": "1108-0",
          "display": "Emergency Department",
          "userSelected": true
        } ]
      } ]
    },
    "request": {
      "method": "PUT",
      "url": "Location/86154be0-8200-4ced-ab00-b4ad88370723"
    }
  }, {
    "fullUrl": "https://madie.cms.gov/Claim/4d4c3ecb-2ee2-4db9-8e1d-6984c7786b9c",
    "resource": {
      "resourceType": "Claim",
      "id": "4d4c3ecb-2ee2-4db9-8e1d-6984c7786b9c",
      "meta": {
        "profile": [ "http://hl7.org/fhir/us/qicore/StructureDefinition/qicore-claim" ]
      },
      "status": "active",
      "type": {
        "coding": [ {
          "system": "http://terminology.hl7.org/CodeSystem/claim-type",
          "code": "institutional"
        } ]
      },
      "use": "claim",
      "patient": {
        "reference": "Patient/048b1f27-6343-4bcd-950d-e228de06aa9c"
      },
      "created": "2027-04-01",
      "provider": {
        "reference": "Practitioner/practitioner-123456"
      },
      "priority": {
        "coding": [ {
          "system": "http://terminology.hl7.org/CodeSystem/processpriority",
          "code": "normal"
        } ]
      },
      "diagnosis": [ {
        "sequence": 1,
        "diagnosisReference": {
          "reference": "Condition/44e5291e-eb57-4b7f-8ad2-fb417056bf34"
        },
        "type": [ {
          "coding": [ {
            "system": "http://terminology.hl7.org/CodeSystem/ex-diagnosistype",
            "code": "principal"
          } ]
        } ]
      } ],
      "insurance": [ {
        "sequence": 1,
        "focal": true,
        "coverage": {
          "reference": "Coverage/1"
        }
      } ],
      "item": [ {
        "sequence": 1,
        "diagnosisSequence": [ 1 ],
        "productOrService": {
          "coding": [ {
            "system": "http://terminology.hl7.org/CodeSystem/ex-USCLS",
            "code": "99555"
          } ]
        },
        "encounter": [ {
          "reference": "Encounter/f52f70d1-e04e-487d-bfc5-90b174f14b51"
        } ]
      } ]
    },
    "request": {
      "method": "PUT",
      "url": "Claim/4d4c3ecb-2ee2-4db9-8e1d-6984c7786b9c"
    }
  }, {
    "fullUrl": "https://madie.cms.gov/Claim/4d4c3ecb-2ee2-4db9-8e1d-6984c7786b9c2",
    "resource": {
      "resourceType": "Claim",
      "id": "4d4c3ecb-2ee2-4db9-8e1d-6984c7786b9c2",
      "meta": {
        "profile": [ "http://hl7.org/fhir/us/qicore/StructureDefinition/qicore-claim" ]
      },
      "status": "active",
      "type": {
        "coding": [ {
          "system": "http://terminology.hl7.org/CodeSystem/claim-type",
          "code": "institutional"
        } ]
      },
      "use": "claim",
      "patient": {
        "reference": "Patient/048b1f27-6343-4bcd-950d-e228de06aa9c"
      },
      "created": "2027-05-01",
      "provider": {
        "reference": "Practitioner/practitioner-123456"
      },
      "priority": {
        "coding": [ {
          "system": "http://terminology.hl7.org/CodeSystem/processpriority",
          "code": "normal"
        } ]
      },
      "diagnosis": [ {
        "sequence": 1,
        "diagnosisReference": {
          "reference": "Condition/44e5291e-eb57-4b7f-8ad2-fb417056bf34"
        },
        "type": [ {
          "coding": [ {
            "system": "http://terminology.hl7.org/CodeSystem/ex-diagnosistype",
            "code": "principal"
          } ]
        } ]
      } ],
      "insurance": [ {
        "sequence": 1,
        "focal": true,
        "coverage": {
          "reference": "Coverage/1"
        }
      } ],
      "item": [ {
        "sequence": 1,
        "diagnosisSequence": [ 1 ],
        "productOrService": {
          "coding": [ {
            "system": "http://terminology.hl7.org/CodeSystem/ex-USCLS",
            "code": "99555"
          } ]
        },
        "encounter": [ {
          "reference": "Encounter/634d5a3d-7196-4f32-98bc-b2736c5fa5fe"
        } ]
      } ]
    },
    "request": {
      "method": "PUT",
      "url": "Claim/4d4c3ecb-2ee2-4db9-8e1d-6984c7786b9c2"
    }
  }, {
    "fullUrl": "https://madie.cms.gov/ServiceRequest/dab8ceab-407c-4b2f-a682-61d6b1c0307e",
    "resource": {
      "resourceType": "ServiceRequest",
      "id": "dab8ceab-407c-4b2f-a682-61d6b1c0307e",
      "meta": {
        "profile": [ "http://hl7.org/fhir/us/qicore/StructureDefinition/qicore-servicerequest" ]
      },
      "status": "completed",
      "intent": "order",
      "code": {
        "coding": [ {
          "system": "http://snomed.info/sct",
          "code": "19712007",
          "display": "Patient transfer, to another health care facility (procedure)",
          "userSelected": true
        } ]
      },
      "subject": {
        "reference": "Patient/048b1f27-6343-4bcd-950d-e228de06aa9c"
      },
      "authoredOn": "2027-05-01T09:59:00.000+00:00"
    },
    "request": {
      "method": "PUT",
      "url": "ServiceRequest/dab8ceab-407c-4b2f-a682-61d6b1c0307e"
    }
  }, {
    "fullUrl": "https://madie.cms.gov/Coverage/bc1ef690-12fd-4257-8516-c3d958c8a11f",
    "resource": {
      "resourceType": "Coverage",
      "id": "bc1ef690-12fd-4257-8516-c3d958c8a11f",
      "meta": {
        "profile": [ "http://hl7.org/fhir/us/qicore/StructureDefinition/qicore-coverage" ]
      },
      "identifier": [ {
        "type": {
          "coding": [ {
            "system": "http://terminology.hl7.org/CodeSystem/v2-0203",
            "code": "MB"
          } ]
        }
      } ],
      "status": "active",
      "beneficiary": {
        "reference": "Patient/048b1f27-6343-4bcd-950d-e228de06aa9c"
      },
      "relationship": {
        "coding": [ {
          "system": "http://terminology.hl7.org/CodeSystem/subscriber-relationship",
          "code": "self"
        } ]
      },
      "payor": [ {
        "reference": "Organization/e02b4c61-420e-4c6e-a803-9383252d066a"
      } ]
    },
    "request": {
      "method": "PUT",
      "url": "Coverage/bc1ef690-12fd-4257-8516-c3d958c8a11f"
    }
  }, {
    "fullUrl": "https://madie.cms.gov/Organization/e02b4c61-420e-4c6e-a803-9383252d066a",
    "resource": {
      "resourceType": "Organization",
      "id": "e02b4c61-420e-4c6e-a803-9383252d066a",
      "meta": {
        "profile": [ "http://hl7.org/fhir/us/qicore/StructureDefinition/qicore-organization" ]
      },
      "identifier": [ {
        "use": "temp",
        "system": "urn:oid:2.16.840.1.113883.4.4",
        "value": "21-3259825"
      } ],
      "active": true,
      "type": [ {
        "coding": [ {
          "system": "http://terminology.hl7.org/CodeSystem/organization-type",
          "code": "pay",
          "display": "Payer"
        } ]
      } ],
      "name": "Blue Cross Blue Shield of Texas",
      "telecom": [ {
        "system": "phone",
        "value": "(+1) 972-766-6900"
      } ],
      "address": [ {
        "use": "billing",
        "type": "postal",
        "line": [ "P.O. Box 660044" ],
        "city": "Dallas",
        "state": "TX",
        "postalCode": "75266-0044",
        "country": "USA"
      } ]
    },
    "request": {
      "method": "PUT",
      "url": "Organization/e02b4c61-420e-4c6e-a803-9383252d066a"
    }
  }, {
    "fullUrl": "https://madie.cms.gov/Practitioner/3bf31a46-ff17-40da-b4eb-2db347b1287e",
    "resource": {
      "resourceType": "Practitioner",
      "id": "3bf31a46-ff17-40da-b4eb-2db347b1287e",
      "meta": {
        "profile": [ "http://hl7.org/fhir/us/qicore/StructureDefinition/qicore-practitioner" ]
      },
      "identifier": [ {
        "system": "http://hl7.org/fhir/sid/us-npi",
        "value": "9999999896"
      } ],
      "name": [ {
        "family": "Evil",
        "prefix": [ "Dr" ]
      } ]
    },
    "request": {
      "method": "PUT",
      "url": "Practitioner/3bf31a46-ff17-40da-b4eb-2db347b1287e"
    }
  }, {
    "fullUrl": "https://madie.cms.gov/MeasureReport/3c7751e4-7b1b-47ce-a993-0818e4729316",
    "resource": {
      "resourceType": "MeasureReport",
      "id": "3c7751e4-7b1b-47ce-a993-0818e4729316",
      "meta": {
        "profile": [ "http://hl7.org/fhir/us/cqfmeasures/StructureDefinition/test-case-cqfm" ]
      },
      "contained": [ {
        "resourceType": "Parameters",
        "id": "6a020bdd-f425-4cc3-b5a9-93ea762084a2-parameters",
        "parameter": [ {
          "name": "subject",
          "valueString": "048b1f27-6343-4bcd-950d-e228de06aa9c"
        } ]
      } ],
      "extension": [ {
        "url": "http://hl7.org/fhir/StructureDefinition/cqf-inputParameters",
        "valueReference": {
          "reference": "#6a020bdd-f425-4cc3-b5a9-93ea762084a2-parameters"
        }
      }, {
        "url": "http://hl7.org/fhir/us/cqfmeasures/StructureDefinition/cqfm-testCaseDescription",
        "valueMarkdown": "Encounter in May 481 minutes passes numerator, encounter in April 241 minutes passes numerator.  Adolescent, no mental health diagnosis."
      } ],
      "modifierExtension": [ {
        "url": "http://hl7.org/fhir/us/cqfmeasures/StructureDefinition/cqfm-isTestCase",
        "valueBoolean": true
      } ],
      "status": "complete",
      "type": "individual",
      "measure": "https://madie.cms.gov/Measure/CMS1264FHIRECATREHQR",
      "period": {
        "start": "2027-01-01",
        "end": "2027-12-31"
      },
      "group": [ {
        "id": "Group_1",
        "population": [ {
          "id": "InitialPopulation_1",
          "code": {
            "coding": [ {
              "system": "http://terminology.hl7.org/CodeSystem/measure-population",
              "code": "initial-population",
              "display": "Initial Population"
            } ]
          },
          "count": 2
        }, {
          "id": "Denominator_1",
          "code": {
            "coding": [ {
              "system": "http://terminology.hl7.org/CodeSystem/measure-population",
              "code": "denominator",
              "display": "Denominator"
            } ]
          },
          "count": 2
        }, {
          "id": "Numerator_1",
          "code": {
            "coding": [ {
              "system": "http://terminology.hl7.org/CodeSystem/measure-population",
              "code": "numerator",
              "display": "Numerator"
            } ]
          },
          "count": 2
        } ],
        "measureScore": {
          "value": 0.0
        },
        "stratifier": [ {
          "id": "Stratification_1_1",
          "code": [ {
            "text": "Strata-1"
          } ],
          "stratum": [ {
            "value": {
              "text": "Strata-1"
            },
            "population": [ {
              "id": "InitialPopulation_1",
              "code": {
                "coding": [ {
                  "system": "http://terminology.hl7.org/CodeSystem/measure-population",
                  "code": "initial-population",
                  "display": "Initial Population"
                } ]
              },
              "count": 2
            }, {
              "id": "Denominator_1",
              "code": {
                "coding": [ {
                  "system": "http://terminology.hl7.org/CodeSystem/measure-population",
                  "code": "denominator",
                  "display": "Denominator"
                } ]
              },
              "count": 2
            }, {
              "id": "Numerator_1",
              "code": {
                "coding": [ {
                  "system": "http://terminology.hl7.org/CodeSystem/measure-population",
                  "code": "numerator",
                  "display": "Numerator"
                } ]
              },
              "count": 2
            } ]
          } ]
        }, {
          "id": "Stratification_1_2",
          "code": [ {
            "text": "Strata-2"
          } ],
          "stratum": [ {
            "value": {
              "text": "Strata-2"
            },
            "population": [ {
              "id": "InitialPopulation_1",
              "code": {
                "coding": [ {
                  "system": "http://terminology.hl7.org/CodeSystem/measure-population",
                  "code": "initial-population",
                  "display": "Initial Population"
                } ]
              },
              "count": 0
            }, {
              "id": "Denominator_1",
              "code": {
                "coding": [ {
                  "system": "http://terminology.hl7.org/CodeSystem/measure-population",
                  "code": "denominator",
                  "display": "Denominator"
                } ]
              },
              "count": 0
            }, {
              "id": "Numerator_1",
              "code": {
                "coding": [ {
                  "system": "http://terminology.hl7.org/CodeSystem/measure-population",
                  "code": "numerator",
                  "display": "Numerator"
                } ]
              },
              "count": 0
            } ]
          } ]
        }, {
          "id": "Stratification_1_3",
          "code": [ {
            "text": "Strata-3"
          } ],
          "stratum": [ {
            "value": {
              "text": "Strata-3"
            },
            "population": [ {
              "id": "InitialPopulation_1",
              "code": {
                "coding": [ {
                  "system": "http://terminology.hl7.org/CodeSystem/measure-population",
                  "code": "initial-population",
                  "display": "Initial Population"
                } ]
              },
              "count": 0
            }, {
              "id": "Denominator_1",
              "code": {
                "coding": [ {
                  "system": "http://terminology.hl7.org/CodeSystem/measure-population",
                  "code": "denominator",
                  "display": "Denominator"
                } ]
              },
              "count": 0
            }, {
              "id": "Numerator_1",
              "code": {
                "coding": [ {
                  "system": "http://terminology.hl7.org/CodeSystem/measure-population",
                  "code": "numerator",
                  "display": "Numerator"
                } ]
              },
              "count": 0
            } ]
          } ]
        }, {
          "id": "Stratification_1_4",
          "code": [ {
            "text": "Strata-4"
          } ],
          "stratum": [ {
            "value": {
              "text": "Strata-4"
            },
            "population": [ {
              "id": "InitialPopulation_1",
              "code": {
                "coding": [ {
                  "system": "http://terminology.hl7.org/CodeSystem/measure-population",
                  "code": "initial-population",
                  "display": "Initial Population"
                } ]
              },
              "count": 0
            }, {
              "id": "Denominator_1",
              "code": {
                "coding": [ {
                  "system": "http://terminology.hl7.org/CodeSystem/measure-population",
                  "code": "denominator",
                  "display": "Denominator"
                } ]
              },
              "count": 0
            }, {
              "id": "Numerator_1",
              "code": {
                "coding": [ {
                  "system": "http://terminology.hl7.org/CodeSystem/measure-population",
                  "code": "numerator",
                  "display": "Numerator"
                } ]
              },
              "count": 0
            } ]
          } ]
        } ]
      } ],
      "evaluatedResource": [ {
        "reference": "Patient/048b1f27-6343-4bcd-950d-e228de06aa9c"
      }, {
        "reference": "Encounter/f52f70d1-e04e-487d-bfc5-90b174f14b51"
      }, {
        "reference": "Encounter/634d5a3d-7196-4f32-98bc-b2736c5fa5fe"
      }, {
        "reference": "Condition/44e5291e-eb57-4b7f-8ad2-fb417056bf34"
      }, {
        "reference": "Location/86154be0-8200-4ced-ab00-b4ad88370723"
      }, {
        "reference": "Claim/4d4c3ecb-2ee2-4db9-8e1d-6984c7786b9c"
      }, {
        "reference": "Claim/4d4c3ecb-2ee2-4db9-8e1d-6984c7786b9c2"
      }, {
        "reference": "ServiceRequest/dab8ceab-407c-4b2f-a682-61d6b1c0307e"
      }, {
        "reference": "Coverage/bc1ef690-12fd-4257-8516-c3d958c8a11f"
      }, {
        "reference": "Organization/e02b4c61-420e-4c6e-a803-9383252d066a"
      }, {
        "reference": "Practitioner/3bf31a46-ff17-40da-b4eb-2db347b1287e"
      } ]
    },
    "request": {
      "method": "PUT",
      "url": "MeasureReport/3c7751e4-7b1b-47ce-a993-0818e4729316"
    }
  } ]
}