{
  "resourceType": "Bundle",
  "id": "NUMPass-InitHOOSJr90DaysB4THAFUHOOSJr425DaysAfterTHA",
  "type": "collection",
  "entry": [ {
    "fullUrl": "https://madie.cms.gov/Patient/11c8c8ff-97d1-4b46-8297-0a85d5caa1f3",
    "resource": {
      "resourceType": "Patient",
      "id": "11c8c8ff-97d1-4b46-8297-0a85d5caa1f3",
      "meta": {
        "profile": [ "http://hl7.org/fhir/us/qicore/StructureDefinition/qicore-patient" ]
      },
      "extension": [ {
        "url": "http://hl7.org/fhir/us/core/StructureDefinition/us-core-race",
        "extension": [ {
          "url": "ombCategory",
          "valueCoding": {
            "system": "urn:oid:2.16.840.1.113883.6.238",
            "code": "2028-9",
            "display": "Asian"
          }
        }, {
          "url": "text",
          "valueString": "Asian"
        } ]
      }, {
        "url": "http://hl7.org/fhir/us/core/StructureDefinition/us-core-ethnicity",
        "extension": [ {
          "url": "ombCategory",
          "valueCoding": {
            "system": "urn:oid:2.16.840.1.113883.6.238",
            "code": "2135-2",
            "display": "Hispanic or Latino"
          }
        }, {
          "url": "text",
          "valueString": "Hispanic or Latino"
        } ]
      } ],
      "identifier": [ {
        "system": "http://hospital.smarthealthit.org",
        "value": "999999995"
      } ],
      "name": [ {
        "family": "Bertha",
        "given": [ "Betty" ]
      } ],
      "gender": "female",
      "birthDate": "2007-01-01"
    }
  }, {
    "fullUrl": "https://madie.cms.gov/Procedure/f7505865-f8c3-421e-97db-bb41abd75348",
    "resource": {
      "resourceType": "Procedure",
      "id": "f7505865-f8c3-421e-97db-bb41abd75348",
      "meta": {
        "profile": [ "http://hl7.org/fhir/us/qicore/StructureDefinition/qicore-procedure" ]
      },
      "extension": [ {
        "url": "http://hl7.org/fhir/us/qicore/StructureDefinition/qicore-recorded",
        "valueDateTime": "2024-11-01T00:00:00.000+00:00"
      } ],
      "status": "completed",
      "code": {
        "coding": [ {
          "system": "http://www.cms.gov/Medicare/Coding/ICD10",
          "code": "0SR9019",
          "display": "Replacement of Right Hip Joint with Metal Synthetic Substitute, Cemented, Open Approach"
        } ]
      },
      "subject": {
        "reference": "Patient/11c8c8ff-97d1-4b46-8297-0a85d5caa1f3"
      },
      "performedPeriod": {
        "start": "2024-11-01T00:00:00.000+00:00",
        "end": "2024-11-01T01:00:00.000+00:00"
      }
    }
  }, {
    "fullUrl": "https://madie.cms.gov/Encounter/deacc380-7181-44b2-9cb6-ecd64d0cedfe",
    "resource": {
      "resourceType": "Encounter",
      "id": "deacc380-7181-44b2-9cb6-ecd64d0cedfe",
      "meta": {
        "profile": [ "http://hl7.org/fhir/us/qicore/StructureDefinition/qicore-encounter" ]
      },
      "status": "finished",
      "class": {
        "system": "http://terminology.hl7.org/CodeSystem/v3-ActCode",
        "code": "AMB",
        "display": "ambulatory"
      },
      "type": [ {
        "coding": [ {
          "system": "http://snomed.info/sct",
          "version": "http://snomed.info/sct/731000124108/version/20250301",
          "code": "281036007",
          "display": "Follow-up consultation (procedure)"
        } ]
      } ],
      "subject": {
        "reference": "Patient/11c8c8ff-97d1-4b46-8297-0a85d5caa1f3"
      },
      "period": {
        "start": "2025-11-01T00:00:00.000+00:00",
        "end": "2025-11-01T01:15:00.000+00:00"
      }
    }
  }, {
    "fullUrl": "https://madie.cms.gov/Observation/5e63892d-e1d9-4db3-bbf3-cabc63254473",
    "resource": {
      "resourceType": "Observation",
      "id": "5e63892d-e1d9-4db3-bbf3-cabc63254473",
      "meta": {
        "profile": [ "http://hl7.org/fhir/us/qicore/StructureDefinition/qicore-observation-screening-assessment" ]
      },
      "status": "final",
      "category": [ {
        "coding": [ {
          "system": "http://terminology.hl7.org/CodeSystem/observation-category",
          "code": "survey"
        } ]
      } ],
      "code": {
        "coding": [ {
          "system": "http://loinc.org",
          "code": "82323-7",
          "display": "Total interval score [HOOSJR]"
        } ]
      },
      "subject": {
        "reference": "Patient/11c8c8ff-97d1-4b46-8297-0a85d5caa1f3"
      },
      "effectivePeriod": {
        "start": "2024-08-03T00:00:00.000+00:00",
        "end": "2024-08-03T01:00:00.000+00:00"
      },
      "valueInteger": 60
    }
  }, {
    "fullUrl": "https://madie.cms.gov/Observation/c18fbf94-999d-46cf-968f-8e786bd75461",
    "resource": {
      "resourceType": "Observation",
      "id": "c18fbf94-999d-46cf-968f-8e786bd75461",
      "meta": {
        "profile": [ "http://hl7.org/fhir/us/qicore/StructureDefinition/qicore-observation-screening-assessment" ]
      },
      "status": "final",
      "category": [ {
        "coding": [ {
          "system": "http://terminology.hl7.org/CodeSystem/observation-category",
          "code": "survey"
        } ]
      } ],
      "code": {
        "coding": [ {
          "system": "http://loinc.org",
          "code": "82323-7",
          "display": "Total interval score [HOOSJR]"
        } ]
      },
      "subject": {
        "reference": "Patient/11c8c8ff-97d1-4b46-8297-0a85d5caa1f3"
      },
      "effectivePeriod": {
        "start": "2025-12-30T00:00:00.000+00:00",
        "end": "2025-12-30T01:00:00.000+00:00"
      },
      "valueInteger": 60
    }
  }, {
    "fullUrl": "https://madie.cms.gov/MeasureReport/44d17e38-08a5-4470-8861-1975cd02644f",
    "resource": {
      "resourceType": "MeasureReport",
      "id": "44d17e38-08a5-4470-8861-1975cd02644f",
      "meta": {
        "profile": [ "http://hl7.org/fhir/us/cqfmeasures/StructureDefinition/test-case-cqfm" ]
      },
      "contained": [ {
        "resourceType": "Parameters",
        "id": "6610035a-1369-4200-996d-1f8ed2825230-parameters",
        "parameter": [ {
          "name": "subject",
          "valueString": "11c8c8ff-97d1-4b46-8297-0a85d5caa1f3"
        } ]
      } ],
      "extension": [ {
        "url": "http://hl7.org/fhir/StructureDefinition/cqf-inputParameters",
        "valueReference": {
          "reference": "#6610035a-1369-4200-996d-1f8ed2825230-parameters"
        }
      }, {
        "url": "http://hl7.org/fhir/us/cqfmeasures/StructureDefinition/cqfm-testCaseDescription",
        "valueMarkdown": "Patient w/ a THA Procedure 11/1, Initial Hip Assessment HOOSJr 90 days before THA Procedure(8/3), and FollowUp Hip Assessment HOOSJr 425 days after THA Procedure (12/30)"
      } ],
      "modifierExtension": [ {
        "url": "http://hl7.org/fhir/us/cqfmeasures/StructureDefinition/cqfm-isTestCase",
        "valueBoolean": true
      } ],
      "status": "complete",
      "type": "individual",
      "measure": "https://madie.cms.gov/Measure/CMS56FHIRFuncStatHipReplacement",
      "period": {
        "start": "2026-01-01",
        "end": "2026-12-31"
      },
      "group": [ {
        "id": "Group_1",
        "population": [ {
          "id": "InitialPopulation_1",
          "code": {
            "coding": [ {
              "system": "http://terminology.hl7.org/CodeSystem/measure-population",
              "code": "initial-population",
              "display": "Initial Population"
            } ]
          },
          "count": 1
        }, {
          "id": "Denominator_1",
          "code": {
            "coding": [ {
              "system": "http://terminology.hl7.org/CodeSystem/measure-population",
              "code": "denominator",
              "display": "Denominator"
            } ]
          },
          "count": 1
        }, {
          "id": "DenominatorExclusion_1",
          "code": {
            "coding": [ {
              "system": "http://terminology.hl7.org/CodeSystem/measure-population",
              "code": "denominator-exclusion",
              "display": "Denominator Exclusion"
            } ]
          },
          "count": 0
        }, {
          "id": "Numerator_1",
          "code": {
            "coding": [ {
              "system": "http://terminology.hl7.org/CodeSystem/measure-population",
              "code": "numerator",
              "display": "Numerator"
            } ]
          },
          "count": 1
        } ],
        "measureScore": {
          "value": 1.0
        }
      } ],
      "evaluatedResource": [ {
        "reference": "Patient/11c8c8ff-97d1-4b46-8297-0a85d5caa1f3"
      }, {
        "reference": "Procedure/f7505865-f8c3-421e-97db-bb41abd75348"
      }, {
        "reference": "Encounter/deacc380-7181-44b2-9cb6-ecd64d0cedfe"
      }, {
        "reference": "Observation/5e63892d-e1d9-4db3-bbf3-cabc63254473"
      }, {
        "reference": "Observation/c18fbf94-999d-46cf-968f-8e786bd75461"
      } ]
    }
  } ]
}