{
  "resourceType": "Bundle",
  "id": "DENEXPass-66yoWAIFrailEncOnDec31OfMP",
  "type": "transaction",
  "entry": [ {
    "fullUrl": "https://madie.cms.gov/Patient/d8946843-06c7-4b82-992a-91a9c20ec7c0",
    "resource": {
      "resourceType": "Patient",
      "id": "d8946843-06c7-4b82-992a-91a9c20ec7c0",
      "meta": {
        "profile": [ "http://hl7.org/fhir/us/qicore/StructureDefinition/qicore-patient" ]
      },
      "extension": [ {
        "url": "http://hl7.org/fhir/us/core/StructureDefinition/us-core-race",
        "extension": [ {
          "url": "ombCategory",
          "valueCoding": {
            "system": "urn:oid:2.16.840.1.113883.6.238",
            "code": "2028-9",
            "display": "Asian"
          }
        }, {
          "url": "text",
          "valueString": "Asian"
        } ]
      }, {
        "url": "http://hl7.org/fhir/us/core/StructureDefinition/us-core-ethnicity",
        "extension": [ {
          "url": "ombCategory",
          "valueCoding": {
            "system": "urn:oid:2.16.840.1.113883.6.238",
            "code": "2135-2",
            "display": "Hispanic or Latino"
          }
        }, {
          "url": "text",
          "valueString": "Hispanic or Latino"
        } ]
      } ],
      "identifier": [ {
        "system": "http://hospital.smarthealthit.org",
        "value": "999999995"
      } ],
      "name": [ {
        "family": "Bertha",
        "given": [ "Betty" ]
      } ],
      "gender": "female",
      "birthDate": "1959-12-31"
    },
    "request": {
      "method": "PUT",
      "url": "Patient/d8946843-06c7-4b82-992a-91a9c20ec7c0"
    }
  }, {
    "fullUrl": "https://madie.cms.gov/Encounter/76b7a82d-9009-490c-ae0f-e9bbba06e0fe",
    "resource": {
      "resourceType": "Encounter",
      "id": "76b7a82d-9009-490c-ae0f-e9bbba06e0fe",
      "meta": {
        "profile": [ "http://hl7.org/fhir/us/qicore/StructureDefinition/qicore-encounter" ]
      },
      "status": "finished",
      "class": {
        "system": "http://terminology.hl7.org/CodeSystem/v3-ActCode",
        "code": "AMB",
        "display": "ambulatory"
      },
      "type": [ {
        "coding": [ {
          "system": "http://snomed.info/sct",
          "code": "185463005",
          "display": "Visit out of hours (procedure)"
        } ]
      } ],
      "subject": {
        "reference": "Patient/d8946843-06c7-4b82-992a-91a9c20ec7c0"
      },
      "period": {
        "start": "2026-01-01T00:00:00.000+00:00",
        "end": "2026-01-01T00:00:00.000+00:00"
      }
    },
    "request": {
      "method": "PUT",
      "url": "Encounter/76b7a82d-9009-490c-ae0f-e9bbba06e0fe"
    }
  }, {
    "fullUrl": "https://madie.cms.gov/Condition/44f74b98-c01f-43b0-a9c1-7ce072dc32d2",
    "resource": {
      "resourceType": "Condition",
      "id": "44f74b98-c01f-43b0-a9c1-7ce072dc32d2",
      "meta": {
        "profile": [ "http://hl7.org/fhir/us/qicore/StructureDefinition/qicore-condition-encounter-diagnosis" ]
      },
      "clinicalStatus": {
        "coding": [ {
          "system": "http://terminology.hl7.org/CodeSystem/condition-clinical",
          "code": "active"
        } ]
      },
      "category": [ {
        "coding": [ {
          "system": "http://terminology.hl7.org/CodeSystem/condition-category",
          "code": "encounter-diagnosis",
          "display": "Encounter Diagnosis"
        } ]
      } ],
      "code": {
        "coding": [ {
          "system": "http://snomed.info/sct",
          "code": "102781000119107",
          "display": "Sensory neuropathy due to type 1 diabetes mellitus (disorder)"
        } ]
      },
      "subject": {
        "reference": "Patient/d8946843-06c7-4b82-992a-91a9c20ec7c0"
      },
      "onsetDateTime": "2026-01-01T00:00:00.000+00:00"
    },
    "request": {
      "method": "PUT",
      "url": "Condition/44f74b98-c01f-43b0-a9c1-7ce072dc32d2"
    }
  }, {
    "fullUrl": "https://madie.cms.gov/Encounter/76b7a82d-9009-490c-ae0f-e9bbba06e0fe.1",
    "resource": {
      "resourceType": "Encounter",
      "id": "76b7a82d-9009-490c-ae0f-e9bbba06e0fe.1",
      "meta": {
        "profile": [ "http://hl7.org/fhir/us/qicore/StructureDefinition/qicore-encounter" ]
      },
      "status": "finished",
      "class": {
        "system": "http://terminology.hl7.org/CodeSystem/v3-ActCode",
        "code": "AMB",
        "display": "ambulatory"
      },
      "type": [ {
        "coding": [ {
          "system": "http://snomed.info/sct",
          "code": "10378005",
          "display": "Hospital admission, emergency, from emergency room, accidental injury (procedure)"
        } ]
      } ],
      "subject": {
        "reference": "Patient/d8946843-06c7-4b82-992a-91a9c20ec7c0"
      },
      "period": {
        "start": "2026-12-31T23:59:59.000+00:00",
        "end": "2026-12-31T23:59:59.000+00:00"
      },
      "diagnosis": [ {
        "condition": {
          "reference": "Condition/121182e2-7fd9-4e25-a006-a79edf20726f"
        }
      } ]
    },
    "request": {
      "method": "PUT",
      "url": "Encounter/76b7a82d-9009-490c-ae0f-e9bbba06e0fe.1"
    }
  }, {
    "fullUrl": "https://madie.cms.gov/Condition/121182e2-7fd9-4e25-a006-a79edf20726f",
    "resource": {
      "resourceType": "Condition",
      "id": "121182e2-7fd9-4e25-a006-a79edf20726f",
      "meta": {
        "profile": [ "http://hl7.org/fhir/us/qicore/StructureDefinition/qicore-condition-problems-health-concerns" ]
      },
      "clinicalStatus": {
        "coding": [ {
          "system": "http://terminology.hl7.org/CodeSystem/condition-clinical",
          "code": "active"
        } ]
      },
      "category": [ {
        "coding": [ {
          "system": "http://terminology.hl7.org/CodeSystem/condition-category",
          "code": "problem-list-item",
          "display": "Problem List Item"
        } ]
      } ],
      "code": {
        "coding": [ {
          "system": "http://snomed.info/sct",
          "code": "100721000119109",
          "display": "High grade astrocytoma of brain (disorder)"
        } ]
      },
      "subject": {
        "reference": "Patient/d8946843-06c7-4b82-992a-91a9c20ec7c0"
      },
      "onsetDateTime": "2026-01-01T00:00:00.000+00:00"
    },
    "request": {
      "method": "PUT",
      "url": "Condition/121182e2-7fd9-4e25-a006-a79edf20726f"
    }
  }, {
    "fullUrl": "https://madie.cms.gov/DeviceRequest/b65d3089-2b51-4257-b5da-c5e2516425d5",
    "resource": {
      "resourceType": "DeviceRequest",
      "id": "b65d3089-2b51-4257-b5da-c5e2516425d5",
      "meta": {
        "profile": [ "http://hl7.org/fhir/us/qicore/StructureDefinition/qicore-devicerequest" ]
      },
      "modifierExtension": [ {
        "url": "http://hl7.org/fhir/5.0/StructureDefinition/extension-DeviceRequest.doNotPerform",
        "valueBoolean": false
      } ],
      "status": "completed",
      "intent": "order",
      "codeCodeableConcept": {
        "coding": [ {
          "system": "http://snomed.info/sct",
          "code": "183240000",
          "display": "Self-propelled wheelchair (physical object)"
        } ]
      },
      "subject": {
        "reference": "Patient/d8946843-06c7-4b82-992a-91a9c20ec7c0"
      },
      "authoredOn": "2026-01-01T00:00:00.000+00:00"
    },
    "request": {
      "method": "PUT",
      "url": "DeviceRequest/b65d3089-2b51-4257-b5da-c5e2516425d5"
    }
  }, {
    "fullUrl": "https://madie.cms.gov/MeasureReport/c2e6ca0d-6330-4d32-92b0-85150dfdd9e3",
    "resource": {
      "resourceType": "MeasureReport",
      "id": "c2e6ca0d-6330-4d32-92b0-85150dfdd9e3",
      "meta": {
        "profile": [ "http://hl7.org/fhir/us/cqfmeasures/StructureDefinition/test-case-cqfm" ]
      },
      "contained": [ {
        "resourceType": "Parameters",
        "id": "0f3b6965-45b9-447b-abbb-a9e52a068893-parameters",
        "parameter": [ {
          "name": "subject",
          "valueString": "d8946843-06c7-4b82-992a-91a9c20ec7c0"
        } ]
      } ],
      "extension": [ {
        "url": "http://hl7.org/fhir/StructureDefinition/cqf-inputParameters",
        "valueReference": {
          "reference": "#0f3b6965-45b9-447b-abbb-a9e52a068893-parameters"
        }
      }, {
        "url": "http://hl7.org/fhir/us/cqfmeasures/StructureDefinition/cqfm-testCaseDescription",
        "valueMarkdown": "Patient 66yo w/ an Office Visit Encounter 1/1 of the MP, Diabetes Condition ending 1/1 during the MP, & an Advanced Illness & Frailty Encounter that starts on 12/31 of the MP."
      } ],
      "modifierExtension": [ {
        "url": "http://hl7.org/fhir/us/cqfmeasures/StructureDefinition/cqfm-isTestCase",
        "valueBoolean": true
      } ],
      "status": "complete",
      "type": "individual",
      "measure": "https://madie.cms.gov/Measure/CMS131FHIRDiabetesEyeExam",
      "period": {
        "start": "2026-01-01",
        "end": "2026-12-31"
      },
      "group": [ {
        "id": "Group_1",
        "population": [ {
          "id": "InitialPopulation_1",
          "code": {
            "coding": [ {
              "system": "http://terminology.hl7.org/CodeSystem/measure-population",
              "code": "initial-population",
              "display": "Initial Population"
            } ]
          },
          "count": 1
        }, {
          "id": "Denominator_1",
          "code": {
            "coding": [ {
              "system": "http://terminology.hl7.org/CodeSystem/measure-population",
              "code": "denominator",
              "display": "Denominator"
            } ]
          },
          "count": 1
        }, {
          "id": "DenominatorExclusion_1",
          "code": {
            "coding": [ {
              "system": "http://terminology.hl7.org/CodeSystem/measure-population",
              "code": "denominator-exclusion",
              "display": "Denominator Exclusion"
            } ]
          },
          "count": 1
        }, {
          "id": "Numerator_1",
          "code": {
            "coding": [ {
              "system": "http://terminology.hl7.org/CodeSystem/measure-population",
              "code": "numerator",
              "display": "Numerator"
            } ]
          },
          "count": 0
        } ],
        "measureScore": {
          "value": 1.0
        }
      } ],
      "evaluatedResource": [ {
        "reference": "Patient/d8946843-06c7-4b82-992a-91a9c20ec7c0"
      }, {
        "reference": "Encounter/76b7a82d-9009-490c-ae0f-e9bbba06e0fe"
      }, {
        "reference": "Condition/44f74b98-c01f-43b0-a9c1-7ce072dc32d2"
      }, {
        "reference": "Encounter/76b7a82d-9009-490c-ae0f-e9bbba06e0fe.1"
      }, {
        "reference": "Condition/121182e2-7fd9-4e25-a006-a79edf20726f"
      }, {
        "reference": "DeviceRequest/b65d3089-2b51-4257-b5da-c5e2516425d5"
      } ]
    },
    "request": {
      "method": "PUT",
      "url": "MeasureReport/c2e6ca0d-6330-4d32-92b0-85150dfdd9e3"
    }
  } ]
}