{
  "resourceType": "Bundle",
  "id": "SDEPass-SDECoverage",
  "type": "transaction",
  "entry": [ {
    "fullUrl": "https://madie.cms.gov/Patient/a6b08556-8019-43ad-8ab0-0c213f3789ca",
    "resource": {
      "resourceType": "Patient",
      "id": "a6b08556-8019-43ad-8ab0-0c213f3789ca",
      "meta": {
        "profile": [ "http://hl7.org/fhir/us/qicore/StructureDefinition/qicore-patient" ]
      },
      "extension": [ {
        "url": "http://hl7.org/fhir/us/core/StructureDefinition/us-core-race",
        "extension": [ {
          "url": "ombCategory",
          "valueCoding": {
            "system": "urn:oid:2.16.840.1.113883.6.238",
            "code": "2028-9",
            "display": "Asian"
          }
        }, {
          "url": "text",
          "valueString": "Asian"
        }, {
          "url": "detailed",
          "valueCoding": {
            "system": "urn:oid:2.16.840.1.113883.6.238",
            "code": "1653-5",
            "display": "Tohono O'Odham"
          }
        } ]
      }, {
        "url": "http://hl7.org/fhir/us/core/StructureDefinition/us-core-ethnicity",
        "extension": [ {
          "url": "ombCategory",
          "valueCoding": {
            "system": "urn:oid:2.16.840.1.113883.6.238",
            "code": "2135-2",
            "display": "Hispanic or Latino"
          }
        }, {
          "url": "text",
          "valueString": "Hispanic or Latino"
        }, {
          "url": "detailed",
          "valueCoding": {
            "system": "urn:oid:2.16.840.1.113883.6.238",
            "code": "2180-8",
            "display": "Puerto Rican"
          }
        } ]
      }, {
        "url": "http://hl7.org/fhir/us/core/StructureDefinition/us-core-sex",
        "valueCode": "248152002"
      } ],
      "identifier": [ {
        "system": "http://hospital.smarthealthit.org",
        "value": "999999995"
      } ],
      "name": [ {
        "family": "SDE",
        "given": [ "SDECoverage" ]
      } ],
      "gender": "unknown",
      "birthDate": "1951-01-01"
    },
    "request": {
      "method": "PUT",
      "url": "Patient/a6b08556-8019-43ad-8ab0-0c213f3789ca"
    }
  }, {
    "fullUrl": "https://madie.cms.gov/Encounter/9f101fe1-d656-4431-bf47-986a4503eed6",
    "resource": {
      "resourceType": "Encounter",
      "id": "9f101fe1-d656-4431-bf47-986a4503eed6",
      "meta": {
        "profile": [ "http://hl7.org/fhir/us/qicore/StructureDefinition/qicore-encounter" ]
      },
      "status": "finished",
      "class": {
        "system": "http://terminology.hl7.org/CodeSystem/v3-ActCode",
        "code": "AMB",
        "display": "ambulatory"
      },
      "type": [ {
        "coding": [ {
          "system": "http://snomed.info/sct",
          "code": "185460008",
          "display": "Home visit request by patient (procedure)"
        } ]
      } ],
      "subject": {
        "reference": "Patient/a6b08556-8019-43ad-8ab0-0c213f3789ca"
      },
      "period": {
        "start": "2026-01-01T00:00:00.000+00:00",
        "end": "2026-01-01T00:15:00.000+00:00"
      }
    },
    "request": {
      "method": "PUT",
      "url": "Encounter/9f101fe1-d656-4431-bf47-986a4503eed6"
    }
  }, {
    "fullUrl": "https://madie.cms.gov/Coverage/20f57081-75a5-4d34-b1b9-8f19012cd35f",
    "resource": {
      "resourceType": "Coverage",
      "id": "20f57081-75a5-4d34-b1b9-8f19012cd35f",
      "meta": {
        "profile": [ "http://hl7.org/fhir/us/qicore/StructureDefinition/qicore-coverage" ]
      },
      "identifier": [ {
        "system": "http://benefitsinc.com/certificate",
        "value": "12345"
      } ],
      "status": "active",
      "type": {
        "coding": [ {
          "system": "https://nahdo.org/sopt",
          "code": "59",
          "display": "Other Private Insurance"
        } ]
      },
      "policyHolder": {
        "reference": "Patient/a6b08556-8019-43ad-8ab0-0c213f3789ca"
      },
      "subscriber": {
        "reference": "Patient/a6b08556-8019-43ad-8ab0-0c213f3789ca"
      },
      "subscriberId": "12191",
      "beneficiary": {
        "reference": "Patient/a6b08556-8019-43ad-8ab0-0c213f3789ca"
      },
      "dependent": "0",
      "relationship": {
        "coding": [ {
          "system": "http://terminology.hl7.org/CodeSystem/subscriber-relationship",
          "code": "self"
        } ]
      },
      "period": {
        "start": "2023-01-01T06:00:00.000+00:00",
        "end": "2023-01-01T11:06:01.000+00:00"
      },
      "payor": [ {
        "reference": "Patient/a6b08556-8019-43ad-8ab0-0c213f3789ca"
      } ],
      "order": 9
    },
    "request": {
      "method": "PUT",
      "url": "Coverage/20f57081-75a5-4d34-b1b9-8f19012cd35f"
    }
  }, {
    "fullUrl": "https://madie.cms.gov/Condition/c060c4f1-1a42-4185-ac38-0994491e0a05",
    "resource": {
      "resourceType": "Condition",
      "id": "c060c4f1-1a42-4185-ac38-0994491e0a05",
      "meta": {
        "profile": [ "http://hl7.org/fhir/us/qicore/StructureDefinition/qicore-condition-encounter-diagnosis" ]
      },
      "clinicalStatus": {
        "coding": [ {
          "system": "http://terminology.hl7.org/CodeSystem/condition-clinical",
          "code": "active"
        } ]
      },
      "category": [ {
        "coding": [ {
          "system": "http://terminology.hl7.org/CodeSystem/condition-category",
          "code": "encounter-diagnosis",
          "display": "Encounter Diagnosis"
        } ]
      } ],
      "code": {
        "coding": [ {
          "system": "http://snomed.info/sct",
          "code": "102781000119107",
          "display": "Sensory neuropathy due to type 1 diabetes mellitus (disorder)"
        } ]
      },
      "subject": {
        "reference": "Patient/a6b08556-8019-43ad-8ab0-0c213f3789ca"
      },
      "onsetDateTime": "2026-01-01T23:59:00.000+00:00"
    },
    "request": {
      "method": "PUT",
      "url": "Condition/c060c4f1-1a42-4185-ac38-0994491e0a05"
    }
  }, {
    "fullUrl": "https://madie.cms.gov/MeasureReport/ecd72e3a-1ba5-4cf9-af09-aeb9fd9187b5",
    "resource": {
      "resourceType": "MeasureReport",
      "id": "ecd72e3a-1ba5-4cf9-af09-aeb9fd9187b5",
      "meta": {
        "profile": [ "http://hl7.org/fhir/us/cqfmeasures/StructureDefinition/test-case-cqfm" ]
      },
      "contained": [ {
        "resourceType": "Parameters",
        "id": "6e269b77-b836-42a5-82d7-0dd8f059ace3-parameters",
        "parameter": [ {
          "name": "subject",
          "valueString": "a6b08556-8019-43ad-8ab0-0c213f3789ca"
        } ]
      } ],
      "extension": [ {
        "url": "http://hl7.org/fhir/StructureDefinition/cqf-inputParameters",
        "valueReference": {
          "reference": "#6e269b77-b836-42a5-82d7-0dd8f059ace3-parameters"
        }
      }, {
        "url": "http://hl7.org/fhir/us/cqfmeasures/StructureDefinition/cqfm-testCaseDescription",
        "valueMarkdown": "For meeting SDE 100% coverage - patient sex female"
      } ],
      "modifierExtension": [ {
        "url": "http://hl7.org/fhir/us/cqfmeasures/StructureDefinition/cqfm-isTestCase",
        "valueBoolean": true
      } ],
      "status": "complete",
      "type": "individual",
      "measure": "https://madie.cms.gov/Measure/CMS122FHIRDiabetesAssessGT9Pct",
      "period": {
        "start": "2026-01-01",
        "end": "2026-12-31"
      },
      "group": [ {
        "id": "Group_1",
        "population": [ {
          "id": "InitialPopulation_1",
          "code": {
            "coding": [ {
              "system": "http://terminology.hl7.org/CodeSystem/measure-population",
              "code": "initial-population",
              "display": "Initial Population"
            } ]
          },
          "count": 1
        }, {
          "id": "Denominator_1",
          "code": {
            "coding": [ {
              "system": "http://terminology.hl7.org/CodeSystem/measure-population",
              "code": "denominator",
              "display": "Denominator"
            } ]
          },
          "count": 1
        }, {
          "id": "DenominatorExclusion_1",
          "code": {
            "coding": [ {
              "system": "http://terminology.hl7.org/CodeSystem/measure-population",
              "code": "denominator-exclusion",
              "display": "Denominator Exclusion"
            } ]
          },
          "count": 0
        }, {
          "id": "Numerator_1",
          "code": {
            "coding": [ {
              "system": "http://terminology.hl7.org/CodeSystem/measure-population",
              "code": "numerator",
              "display": "Numerator"
            } ]
          },
          "count": 1
        } ],
        "measureScore": {
          "value": 1.0
        }
      } ],
      "evaluatedResource": [ {
        "reference": "Patient/a6b08556-8019-43ad-8ab0-0c213f3789ca"
      }, {
        "reference": "Encounter/9f101fe1-d656-4431-bf47-986a4503eed6"
      }, {
        "reference": "Coverage/20f57081-75a5-4d34-b1b9-8f19012cd35f"
      }, {
        "reference": "Condition/c060c4f1-1a42-4185-ac38-0994491e0a05"
      } ]
    },
    "request": {
      "method": "PUT",
      "url": "MeasureReport/ecd72e3a-1ba5-4cf9-af09-aeb9fd9187b5"
    }
  } ]
}