{
  "resourceType": "Bundle",
  "id": "5646468464165161651",
  "type": "collection",
  "entry": [ {
    "fullUrl": "https://madie.cms.gov/Patient/4d13ba5c-740b-4263-ae55-3a40a3f73846",
    "resource": {
      "resourceType": "Patient",
      "id": "4d13ba5c-740b-4263-ae55-3a40a3f73846",
      "meta": {
        "profile": [ "http://hl7.org/fhir/us/qicore/StructureDefinition/qicore-patient" ]
      },
      "extension": [ {
        "url": "http://hl7.org/fhir/us/core/StructureDefinition/us-core-race",
        "extension": [ {
          "url": "ombCategory",
          "valueCoding": {
            "system": "urn:oid:2.16.840.1.113883.6.238",
            "code": "2076-8",
            "display": "Native Hawaiian or Other Pacific Islander"
          }
        }, {
          "url": "text",
          "valueString": "Native Hawaiian or Other Pacific Islander"
        } ]
      }, {
        "url": "http://hl7.org/fhir/us/core/StructureDefinition/us-core-ethnicity",
        "extension": [ {
          "url": "ombCategory",
          "valueCoding": {
            "system": "urn:oid:2.16.840.1.113883.6.238",
            "code": "2186-5",
            "display": "Not Hispanic or Latino"
          }
        }, {
          "url": "text",
          "valueString": "Not Hispanic or Latino"
        } ]
      } ],
      "identifier": [ {
        "type": {
          "coding": [ {
            "system": "http://terminology.hl7.org/CodeSystem/v2-0203",
            "code": "MR"
          } ]
        },
        "system": "https://bonnie-fhir.healthit.gov/",
        "value": "6845635684131"
      } ],
      "active": true,
      "name": [ {
        "use": "usual",
        "family": "DENOMEXCEPPass",
        "given": [ "IntoleranceToBetaBlockerBeforeLastEnc" ]
      } ],
      "gender": "male",
      "birthDate": "1972-12-30"
    }
  }, {
    "fullUrl": "https://madie.cms.gov/Encounter/5c65968b-f52c-46d7-8797-b6b0314bc9f6",
    "resource": {
      "resourceType": "Encounter",
      "id": "5c65968b-f52c-46d7-8797-b6b0314bc9f6",
      "meta": {
        "profile": [ "http://hl7.org/fhir/us/qicore/StructureDefinition/qicore-encounter" ]
      },
      "status": "finished",
      "class": {
        "system": "http://terminology.hl7.org/CodeSystem/v3-ActCode",
        "code": "AMB",
        "display": "ambulatory"
      },
      "type": [ {
        "coding": [ {
          "system": "http://www.ama-assn.org/go/cpt",
          "version": "2024",
          "code": "99213"
        } ]
      } ],
      "subject": {
        "reference": "Patient/4d13ba5c-740b-4263-ae55-3a40a3f73846"
      },
      "period": {
        "start": "2026-04-14T14:40:00Z",
        "end": "2026-04-14T14:50:00Z"
      },
      "length": {
        "value": 0,
        "unit": "days"
      }
    }
  }, {
    "fullUrl": "https://madie.cms.gov/Encounter/90b766f7-9737-45d4-b003-548c7d85f9e9",
    "resource": {
      "resourceType": "Encounter",
      "id": "90b766f7-9737-45d4-b003-548c7d85f9e9",
      "meta": {
        "profile": [ "http://hl7.org/fhir/us/qicore/StructureDefinition/qicore-encounter" ]
      },
      "status": "finished",
      "class": {
        "system": "http://terminology.hl7.org/CodeSystem/v3-ActCode",
        "code": "NONAC",
        "display": "inpatient non-acute"
      },
      "type": [ {
        "coding": [ {
          "system": "http://snomed.info/sct",
          "version": "http://snomed.info/sct/731000124108/version/20230901",
          "code": "207195004",
          "display": "History and physical examination with evaluation and management of nursing facility patient (procedure)"
        } ]
      } ],
      "subject": {
        "reference": "Patient/4d13ba5c-740b-4263-ae55-3a40a3f73846"
      },
      "period": {
        "start": "2026-07-20T11:50:00Z",
        "end": "2026-07-20T11:50:00Z"
      },
      "length": {
        "value": 0,
        "unit": "days"
      }
    }
  }, {
    "fullUrl": "https://madie.cms.gov/Condition/58e13ce7-f907-40e0-994f-a8e1eb972935",
    "resource": {
      "resourceType": "Condition",
      "id": "58e13ce7-f907-40e0-994f-a8e1eb972935",
      "meta": {
        "profile": [ "http://hl7.org/fhir/us/qicore/StructureDefinition/qicore-condition-problems-health-concerns" ]
      },
      "clinicalStatus": {
        "coding": [ {
          "system": "http://terminology.hl7.org/CodeSystem/condition-clinical",
          "code": "active",
          "display": "Active"
        } ]
      },
      "verificationStatus": {
        "coding": [ {
          "system": "http://terminology.hl7.org/CodeSystem/condition-ver-status",
          "code": "confirmed",
          "display": "Confirmed"
        } ]
      },
      "category": [ {
        "coding": [ {
          "system": "http://terminology.hl7.org/CodeSystem/condition-category",
          "code": "problem-list-item",
          "display": "Problem List Item"
        } ]
      } ],
      "code": {
        "coding": [ {
          "system": "http://hl7.org/fhir/sid/icd-10-cm",
          "version": "2024",
          "code": "I11.0"
        } ]
      },
      "subject": {
        "reference": "Patient/4d13ba5c-740b-4263-ae55-3a40a3f73846"
      },
      "onsetPeriod": {
        "start": "2026-04-11T10:00:00Z"
      }
    }
  }, {
    "fullUrl": "https://madie.cms.gov/Condition/35caa1ca-5162-4e9e-9655-48dd962614c9",
    "resource": {
      "resourceType": "Condition",
      "id": "35caa1ca-5162-4e9e-9655-48dd962614c9",
      "meta": {
        "profile": [ "http://hl7.org/fhir/us/qicore/StructureDefinition/qicore-condition-problems-health-concerns" ]
      },
      "clinicalStatus": {
        "coding": [ {
          "system": "http://terminology.hl7.org/CodeSystem/condition-clinical",
          "code": "active",
          "display": "Active"
        } ]
      },
      "verificationStatus": {
        "coding": [ {
          "system": "http://terminology.hl7.org/CodeSystem/condition-ver-status",
          "code": "confirmed",
          "display": "Confirmed"
        } ]
      },
      "category": [ {
        "coding": [ {
          "system": "http://terminology.hl7.org/CodeSystem/condition-category",
          "code": "problem-list-item",
          "display": "Problem List Item"
        } ]
      } ],
      "severity": {
        "coding": [ {
          "system": "http://snomed.info/sct",
          "version": "http://snomed.info/sct/731000124108/version/20240301",
          "code": "24484000",
          "display": "Severe (severity modifier) (qualifier value)"
        } ]
      },
      "code": {
        "coding": [ {
          "system": "http://snomed.info/sct",
          "version": "http://snomed.info/sct/731000124108/version/20250301",
          "code": "134401001",
          "display": "Left ventricular systolic dysfunction (disorder)"
        } ]
      },
      "subject": {
        "reference": "Patient/4d13ba5c-740b-4263-ae55-3a40a3f73846"
      },
      "onsetPeriod": {
        "start": "2026-04-14T14:41:00Z"
      }
    }
  }, {
    "fullUrl": "https://madie.cms.gov/Condition/79a420e2-191f-4583-a1e9-9bf053b58f4f",
    "resource": {
      "resourceType": "Condition",
      "id": "79a420e2-191f-4583-a1e9-9bf053b58f4f",
      "meta": {
        "profile": [ "http://hl7.org/fhir/us/qicore/StructureDefinition/qicore-condition-encounter-diagnosis" ]
      },
      "clinicalStatus": {
        "coding": [ {
          "system": "http://terminology.hl7.org/CodeSystem/condition-clinical",
          "code": "active",
          "display": "Active"
        } ]
      },
      "verificationStatus": {
        "coding": [ {
          "system": "http://terminology.hl7.org/CodeSystem/condition-ver-status",
          "code": "confirmed",
          "display": "Confirmed"
        } ]
      },
      "category": [ {
        "coding": [ {
          "system": "http://terminology.hl7.org/CodeSystem/condition-category",
          "code": "encounter-diagnosis",
          "display": "Encounter Diagnosis"
        } ]
      } ],
      "code": {
        "coding": [ {
          "system": "http://snomed.info/sct",
          "version": "http://snomed.info/sct/731000124108/version/20250301",
          "code": "292428006",
          "display": "Metoprolol adverse reaction (disorder)"
        } ]
      },
      "subject": {
        "reference": "Patient/4d13ba5c-740b-4263-ae55-3a40a3f73846"
      },
      "onsetPeriod": {
        "start": "2026-01-20T14:32:00Z"
      }
    }
  }, {
    "fullUrl": "https://madie.cms.gov/MeasureReport/0ea06957-bab5-4b8c-9962-3488709beda3",
    "resource": {
      "resourceType": "MeasureReport",
      "id": "0ea06957-bab5-4b8c-9962-3488709beda3",
      "meta": {
        "profile": [ "http://hl7.org/fhir/us/cqfmeasures/StructureDefinition/test-case-cqfm" ]
      },
      "contained": [ {
        "resourceType": "Parameters",
        "id": "6681450e-830a-4bdc-ba55-1e2732f9a03c-parameters",
        "parameter": [ {
          "name": "subject",
          "valueString": "4d13ba5c-740b-4263-ae55-3a40a3f73846"
        } ]
      } ],
      "extension": [ {
        "url": "http://hl7.org/fhir/StructureDefinition/cqf-inputParameters",
        "valueReference": {
          "reference": "#6681450e-830a-4bdc-ba55-1e2732f9a03c-parameters"
        }
      }, {
        "url": "http://hl7.org/fhir/us/cqfmeasures/StructureDefinition/cqfm-testCaseDescription",
        "valueMarkdown": "Patient falls into denominator exception due to intolerance to metoprolol diagnosed before last encounter. Nursing home patient during part of the year."
      } ],
      "modifierExtension": [ {
        "url": "http://hl7.org/fhir/us/cqfmeasures/StructureDefinition/cqfm-isTestCase",
        "valueBoolean": true
      } ],
      "status": "complete",
      "type": "individual",
      "measure": "https://madie.cms.gov/Measure/CMS144FHIRHFBetaBlockerForLVSD",
      "period": {
        "start": "2026-01-01",
        "end": "2026-12-31"
      },
      "group": [ {
        "id": "Group_1",
        "population": [ {
          "id": "InitialPopulation_1",
          "code": {
            "coding": [ {
              "system": "http://terminology.hl7.org/CodeSystem/measure-population",
              "code": "initial-population",
              "display": "Initial Population"
            } ]
          },
          "count": 1
        }, {
          "id": "Denominator_1",
          "code": {
            "coding": [ {
              "system": "http://terminology.hl7.org/CodeSystem/measure-population",
              "code": "denominator",
              "display": "Denominator"
            } ]
          },
          "count": 1
        }, {
          "id": "DenominatorExclusion_1",
          "code": {
            "coding": [ {
              "system": "http://terminology.hl7.org/CodeSystem/measure-population",
              "code": "denominator-exclusion",
              "display": "Denominator Exclusion"
            } ]
          },
          "count": 0
        }, {
          "id": "Numerator_1",
          "code": {
            "coding": [ {
              "system": "http://terminology.hl7.org/CodeSystem/measure-population",
              "code": "numerator",
              "display": "Numerator"
            } ]
          },
          "count": 0
        }, {
          "id": "DenominatorException_1",
          "code": {
            "coding": [ {
              "system": "http://terminology.hl7.org/CodeSystem/measure-population",
              "code": "denominator-exception",
              "display": "Denominator Exception"
            } ]
          },
          "count": 1
        } ],
        "measureScore": {
          "value": 1.0
        }
      } ],
      "evaluatedResource": [ {
        "reference": "Patient/4d13ba5c-740b-4263-ae55-3a40a3f73846"
      }, {
        "reference": "Encounter/5c65968b-f52c-46d7-8797-b6b0314bc9f6"
      }, {
        "reference": "Encounter/90b766f7-9737-45d4-b003-548c7d85f9e9"
      }, {
        "reference": "Condition/58e13ce7-f907-40e0-994f-a8e1eb972935"
      }, {
        "reference": "Condition/35caa1ca-5162-4e9e-9655-48dd962614c9"
      }, {
        "reference": "Condition/79a420e2-191f-4583-a1e9-9bf053b58f4f"
      } ]
    }
  } ]
}