{
  "resourceType": "Bundle",
  "id": "tests-NeuromuscularDisorderViaReasonRef",
  "type": "transaction",
  "entry": [ {
    "fullUrl": "https://madie.cms.gov/Patient/0770c85b-6b0c-46cc-a5e7-9c3db8ba6063",
    "resource": {
      "resourceType": "Patient",
      "id": "0770c85b-6b0c-46cc-a5e7-9c3db8ba6063",
      "meta": {
        "profile": [ "http://hl7.org/fhir/us/qicore/StructureDefinition/qicore-patient" ]
      },
      "extension": [ {
        "url": "http://hl7.org/fhir/us/core/StructureDefinition/us-core-race",
        "extension": [ {
          "url": "ombCategory",
          "valueCoding": {
            "system": "urn:oid:2.16.840.1.113883.6.238",
            "code": "2054-5",
            "display": "Black or African American",
            "userSelected": true
          }
        }, {
          "url": "text",
          "valueString": "Black or African American"
        } ]
      }, {
        "url": "http://hl7.org/fhir/us/core/StructureDefinition/us-core-ethnicity",
        "extension": [ {
          "url": "ombCategory",
          "valueCoding": {
            "system": "urn:oid:2.16.840.1.113883.6.238",
            "code": "2186-5",
            "display": "Not Hispanic or Latino",
            "userSelected": true
          }
        }, {
          "url": "text",
          "valueString": "Not Hispanic or Latino"
        } ]
      } ],
      "identifier": [ {
        "type": {
          "coding": [ {
            "system": "http://terminology.hl7.org/CodeSystem/v2-0203",
            "code": "MR"
          } ]
        },
        "system": "https://bonnie-fhir.healthit.gov/",
        "value": "61152a3b98086b7a79cbd7c1"
      } ],
      "active": true,
      "name": [ {
        "use": "usual",
        "family": "DENEXPass",
        "given": [ "NeuromuscularDisorder" ]
      } ],
      "gender": "female",
      "birthDate": "1966-07-12"
    },
    "request": {
      "method": "PUT",
      "url": "Patient/0770c85b-6b0c-46cc-a5e7-9c3db8ba6063"
    }
  }, {
    "fullUrl": "https://madie.cms.gov/Encounter/ba396049-eb57-4b8a-bda9-605079d2286a",
    "resource": {
      "resourceType": "Encounter",
      "id": "ba396049-eb57-4b8a-bda9-605079d2286a",
      "meta": {
        "profile": [ "http://hl7.org/fhir/us/qicore/StructureDefinition/qicore-encounter" ]
      },
      "status": "finished",
      "class": {
        "system": "http://terminology.hl7.org/CodeSystem/v3-ActCode",
        "code": "IMP",
        "display": "inpatient encounter"
      },
      "type": [ {
        "coding": [ {
          "system": "http://snomed.info/sct",
          "code": "112689000",
          "display": "Hospital admission, elective, with complete pre-admission work-up"
        } ],
        "text": "Hospital admission, elective, with complete pre-admission work-up"
      } ],
      "priority": {
        "coding": [ {
          "system": "http://snomed.info/sct",
          "code": "103390000"
        } ]
      },
      "subject": {
        "reference": "Patient/0770c85b-6b0c-46cc-a5e7-9c3db8ba6063"
      },
      "period": {
        "start": "2026-04-10T08:00:00.000Z",
        "end": "2026-04-14T08:15:00.000Z"
      },
      "reasonReference": [ {
        "reference": "Condition/857f261e-261a-4ed2-a0aa-3fd0210a581e"
      } ]
    },
    "request": {
      "method": "PUT",
      "url": "Encounter/ba396049-eb57-4b8a-bda9-605079d2286a"
    }
  }, {
    "fullUrl": "https://madie.cms.gov/Procedure/98753336-8a27-4207-8e7b-ddec65fd8001",
    "resource": {
      "resourceType": "Procedure",
      "id": "98753336-8a27-4207-8e7b-ddec65fd8001",
      "meta": {
        "profile": [ "http://hl7.org/fhir/us/qicore/StructureDefinition/qicore-procedure" ]
      },
      "extension": [ {
        "url": "http://hl7.org/fhir/us/qicore/StructureDefinition/qicore-recorded",
        "valueDateTime": "2026-04-11T10:20:00.000Z"
      } ],
      "status": "completed",
      "category": {
        "coding": [ {
          "system": "http://snomed.info/sct",
          "code": "18286008",
          "display": "General or neuraxial anesthesia"
        } ]
      },
      "code": {
        "coding": [ {
          "system": "http://snomed.info/sct",
          "code": "112943005",
          "display": "Epidural injection of anesthetic substance, diagnostic, caudal, continuous"
        } ]
      },
      "subject": {
        "reference": "Patient/0770c85b-6b0c-46cc-a5e7-9c3db8ba6063"
      },
      "performedPeriod": {
        "start": "2026-04-11T08:00:00.000Z",
        "end": "2026-04-11T10:15:00.000Z"
      }
    },
    "request": {
      "method": "PUT",
      "url": "Procedure/98753336-8a27-4207-8e7b-ddec65fd8001"
    }
  }, {
    "fullUrl": "https://madie.cms.gov/Condition/857f261e-261a-4ed2-a0aa-3fd0210a581e",
    "resource": {
      "resourceType": "Condition",
      "id": "857f261e-261a-4ed2-a0aa-3fd0210a581e",
      "meta": {
        "profile": [ "http://hl7.org/fhir/us/qicore/StructureDefinition/qicore-condition-encounter-diagnosis" ]
      },
      "clinicalStatus": {
        "coding": [ {
          "system": "http://terminology.hl7.org/CodeSystem/condition-clinical",
          "code": "active",
          "display": "Active",
          "userSelected": true
        } ]
      },
      "verificationStatus": {
        "coding": [ {
          "system": "http://terminology.hl7.org/CodeSystem/condition-ver-status",
          "code": "confirmed",
          "display": "Confirmed",
          "userSelected": true
        } ]
      },
      "category": [ {
        "coding": [ {
          "system": "http://terminology.hl7.org/CodeSystem/condition-category",
          "code": "encounter-diagnosis",
          "display": "Encounter Diagnosis",
          "userSelected": true
        } ]
      } ],
      "code": {
        "coding": [ {
          "system": "http://hl7.org/fhir/sid/icd-10-cm",
          "code": "G61.0",
          "display": "Guillain-Barré syndrome",
          "userSelected": true
        } ]
      },
      "subject": {
        "reference": "Patient/0770c85b-6b0c-46cc-a5e7-9c3db8ba6063"
      },
      "onsetPeriod": {
        "start": "2026-04-10T08:00:00.000Z"
      },
      "recordedDate": "2026-04-10T08:05:00.000Z"
    },
    "request": {
      "method": "PUT",
      "url": "Condition/857f261e-261a-4ed2-a0aa-3fd0210a581e"
    }
  }, {
    "fullUrl": "https://madie.cms.gov/MeasureReport/1323c421-d3e5-4374-a24f-53a499822ff9",
    "resource": {
      "resourceType": "MeasureReport",
      "id": "1323c421-d3e5-4374-a24f-53a499822ff9",
      "meta": {
        "profile": [ "http://hl7.org/fhir/us/cqfmeasures/StructureDefinition/test-case-cqfm" ]
      },
      "contained": [ {
        "resourceType": "Parameters",
        "id": "889950e4-1339-44b0-be6c-e2847ec53a28-parameters",
        "parameter": [ {
          "name": "subject",
          "valueString": "0770c85b-6b0c-46cc-a5e7-9c3db8ba6063"
        } ]
      } ],
      "extension": [ {
        "url": "http://hl7.org/fhir/StructureDefinition/cqf-inputParameters",
        "valueReference": {
          "reference": "#889950e4-1339-44b0-be6c-e2847ec53a28-parameters"
        }
      }, {
        "url": "http://hl7.org/fhir/us/cqfmeasures/StructureDefinition/cqfm-testCaseDescription",
        "valueMarkdown": "Elective hospitalization with procedure (general anesthesia) within first 3 days of encounter. But has encounter diagnosis of neuromuscular disorder via reasonReference so meets denom exclusion. \n"
      } ],
      "modifierExtension": [ {
        "url": "http://hl7.org/fhir/us/cqfmeasures/StructureDefinition/cqfm-isTestCase",
        "valueBoolean": true
      } ],
      "status": "complete",
      "type": "individual",
      "measure": "https://madie.cms.gov/Measure/CMS1218FHIRHHRF",
      "period": {
        "start": "2026-01-01",
        "end": "2026-12-31"
      },
      "group": [ {
        "id": "Group_1",
        "population": [ {
          "id": "InitialPopulation_1",
          "code": {
            "coding": [ {
              "system": "http://terminology.hl7.org/CodeSystem/measure-population",
              "code": "initial-population",
              "display": "Initial Population"
            } ]
          },
          "count": 1
        }, {
          "id": "Denominator_1",
          "code": {
            "coding": [ {
              "system": "http://terminology.hl7.org/CodeSystem/measure-population",
              "code": "denominator",
              "display": "Denominator"
            } ]
          },
          "count": 1
        }, {
          "id": "DenominatorExclusion_1",
          "code": {
            "coding": [ {
              "system": "http://terminology.hl7.org/CodeSystem/measure-population",
              "code": "denominator-exclusion",
              "display": "Denominator Exclusion"
            } ]
          },
          "count": 1
        }, {
          "id": "Numerator_1",
          "code": {
            "coding": [ {
              "system": "http://terminology.hl7.org/CodeSystem/measure-population",
              "code": "numerator",
              "display": "Numerator"
            } ]
          },
          "count": 0
        } ],
        "measureScore": {
          "value": 0.0
        }
      } ],
      "evaluatedResource": [ {
        "reference": "Patient/0770c85b-6b0c-46cc-a5e7-9c3db8ba6063"
      }, {
        "reference": "Encounter/ba396049-eb57-4b8a-bda9-605079d2286a"
      }, {
        "reference": "Procedure/98753336-8a27-4207-8e7b-ddec65fd8001"
      }, {
        "reference": "Condition/857f261e-261a-4ed2-a0aa-3fd0210a581e"
      } ]
    },
    "request": {
      "method": "PUT",
      "url": "MeasureReport/1323c421-d3e5-4374-a24f-53a499822ff9"
    }
  } ]
}