{
  "resourceType": "Bundle",
  "id": "71353541641654",
  "type": "collection",
  "entry": [ {
    "fullUrl": "https://madie.cms.gov/Patient/ec508dbb-76f6-4878-b8a2-114ea8e82297",
    "resource": {
      "resourceType": "Patient",
      "id": "ec508dbb-76f6-4878-b8a2-114ea8e82297",
      "meta": {
        "profile": [ "http://hl7.org/fhir/us/qicore/StructureDefinition/qicore-patient" ]
      },
      "extension": [ {
        "url": "http://hl7.org/fhir/us/core/StructureDefinition/us-core-race",
        "extension": [ {
          "url": "ombCategory",
          "valueCoding": {
            "system": "urn:oid:2.16.840.1.113883.6.238",
            "code": "1002-5",
            "display": "American Indian or Alaska Native"
          }
        }, {
          "url": "text",
          "valueString": "American Indian or Alaska Native"
        } ]
      }, {
        "url": "http://hl7.org/fhir/us/core/StructureDefinition/us-core-ethnicity",
        "extension": [ {
          "url": "ombCategory",
          "valueCoding": {
            "system": "urn:oid:2.16.840.1.113883.6.238",
            "code": "2135-2",
            "display": "Hispanic or Latino"
          }
        }, {
          "url": "text",
          "valueString": "Hispanic or Latino"
        } ]
      } ],
      "identifier": [ {
        "type": {
          "coding": [ {
            "system": "http://terminology.hl7.org/CodeSystem/v2-0203",
            "code": "MR"
          } ]
        },
        "system": "https://bonnie-fhir.healthit.gov/",
        "value": "9871563684351313"
      } ],
      "name": [ {
        "family": "NUMERFail",
        "given": [ "ACEARBRequest1MinAfterEncEdge" ]
      } ],
      "gender": "female",
      "birthDate": "1933-01-21"
    }
  }, {
    "fullUrl": "https://madie.cms.gov/Encounter/4f9d2f4d-a711-471a-a51d-5a338cc96a41",
    "resource": {
      "resourceType": "Encounter",
      "id": "4f9d2f4d-a711-471a-a51d-5a338cc96a41",
      "meta": {
        "profile": [ "http://hl7.org/fhir/us/qicore/StructureDefinition/qicore-encounter" ]
      },
      "status": "finished",
      "class": {
        "system": "http://terminology.hl7.org/CodeSystem/v3-ActCode",
        "code": "AMB",
        "display": "ambulatory"
      },
      "type": [ {
        "coding": [ {
          "system": "http://snomed.info/sct",
          "version": "http://snomed.info/sct/731000124108/version/20250301",
          "code": "185463005",
          "display": "Visit out of hours"
        } ]
      } ],
      "subject": {
        "reference": "Patient/ec508dbb-76f6-4878-b8a2-114ea8e82297"
      },
      "period": {
        "start": "2026-06-08T08:00:00.000+00:00",
        "end": "2026-06-08T08:15:00.000+00:00"
      }
    }
  }, {
    "fullUrl": "https://madie.cms.gov/Encounter/286ae18a-bbe3-444b-bc22-e1bb6d42e347",
    "resource": {
      "resourceType": "Encounter",
      "id": "286ae18a-bbe3-444b-bc22-e1bb6d42e347",
      "meta": {
        "profile": [ "http://hl7.org/fhir/us/qicore/StructureDefinition/qicore-encounter" ]
      },
      "status": "finished",
      "class": {
        "system": "http://terminology.hl7.org/CodeSystem/v3-ActCode",
        "code": "AMB",
        "display": "ambulatory"
      },
      "type": [ {
        "coding": [ {
          "system": "http://snomed.info/sct",
          "version": "http://snomed.info/sct/731000124108/version/20250301",
          "code": "185316007",
          "display": "Indirect encounter (procedure)"
        } ]
      } ],
      "subject": {
        "reference": "Patient/ec508dbb-76f6-4878-b8a2-114ea8e82297"
      },
      "period": {
        "start": "2026-07-17T08:00:00.000+00:00",
        "end": "2026-07-17T08:15:00.000+00:00"
      }
    }
  }, {
    "fullUrl": "https://madie.cms.gov/Condition/4224c22b-61e6-4574-94bd-4d21f519fbf5",
    "resource": {
      "resourceType": "Condition",
      "id": "4224c22b-61e6-4574-94bd-4d21f519fbf5",
      "meta": {
        "profile": [ "http://hl7.org/fhir/us/qicore/StructureDefinition/qicore-condition-problems-health-concerns" ]
      },
      "clinicalStatus": {
        "coding": [ {
          "system": "http://terminology.hl7.org/CodeSystem/condition-clinical",
          "code": "active",
          "display": "active"
        } ]
      },
      "verificationStatus": {
        "coding": [ {
          "system": "http://terminology.hl7.org/CodeSystem/condition-ver-status",
          "code": "confirmed",
          "display": "Confirmed"
        } ]
      },
      "category": [ {
        "coding": [ {
          "system": "http://terminology.hl7.org/CodeSystem/condition-category",
          "code": "problem-list-item",
          "display": "Problem List Item"
        } ]
      } ],
      "code": {
        "coding": [ {
          "system": "http://snomed.info/sct",
          "version": "http://snomed.info/sct/731000124108/version/20250301",
          "code": "10091002",
          "display": "High output heart failure (disorder)"
        } ]
      },
      "subject": {
        "reference": "Patient/ec508dbb-76f6-4878-b8a2-114ea8e82297"
      },
      "onsetPeriod": {
        "start": "2026-06-08T08:00:00.000+00:00"
      }
    }
  }, {
    "fullUrl": "https://madie.cms.gov/Condition/3c23a27c-44c4-4ca0-a3b1-c76ccb0fe926",
    "resource": {
      "resourceType": "Condition",
      "id": "3c23a27c-44c4-4ca0-a3b1-c76ccb0fe926",
      "meta": {
        "profile": [ "http://hl7.org/fhir/us/qicore/StructureDefinition/qicore-condition-problems-health-concerns" ]
      },
      "clinicalStatus": {
        "coding": [ {
          "system": "http://terminology.hl7.org/CodeSystem/condition-clinical",
          "code": "active",
          "display": "active"
        } ]
      },
      "verificationStatus": {
        "coding": [ {
          "system": "http://terminology.hl7.org/CodeSystem/condition-ver-status",
          "code": "confirmed",
          "display": "Confirmed"
        } ]
      },
      "category": [ {
        "coding": [ {
          "system": "http://terminology.hl7.org/CodeSystem/condition-category",
          "code": "problem-list-item",
          "display": "Problem List Item"
        } ]
      } ],
      "code": {
        "coding": [ {
          "system": "http://snomed.info/sct",
          "version": "http://snomed.info/sct/731000124108/version/20250301",
          "code": "981000124106",
          "display": "Moderate left ventricular systolic dysfunction (disorder)"
        } ]
      },
      "subject": {
        "reference": "Patient/ec508dbb-76f6-4878-b8a2-114ea8e82297"
      },
      "onsetPeriod": {
        "start": "2026-05-22T08:00:00.000+00:00"
      }
    }
  }, {
    "fullUrl": "https://madie.cms.gov/MedicationRequest/712fa75b-8abd-4e65-b8a8-79257d1fa6b0",
    "resource": {
      "resourceType": "MedicationRequest",
      "id": "712fa75b-8abd-4e65-b8a8-79257d1fa6b0",
      "meta": {
        "profile": [ "http://hl7.org/fhir/us/qicore/StructureDefinition/qicore-medicationrequest" ]
      },
      "status": "completed",
      "intent": "order",
      "medicationReference": {
        "reference": "Medication/f1419810-51c6-4f9f-93d9-504880d27f0e"
      },
      "subject": {
        "reference": "Patient/ec508dbb-76f6-4878-b8a2-114ea8e82297"
      },
      "authoredOn": "2026-06-08T08:16:00.000+00:00",
      "requester": {
        "reference": "Practitioner/0f0b2d56-adff-4b9e-9c9a-9ccc7dcb79b0"
      }
    }
  }, {
    "fullUrl": "https://madie.cms.gov/Practitioner/0f0b2d56-adff-4b9e-9c9a-9ccc7dcb79b0",
    "resource": {
      "resourceType": "Practitioner",
      "id": "0f0b2d56-adff-4b9e-9c9a-9ccc7dcb79b0",
      "meta": {
        "profile": [ "http://hl7.org/fhir/us/qicore/StructureDefinition/qicore-practitioner" ]
      },
      "identifier": [ {
        "use": "temp",
        "system": "urn:oid:2.16.840.1.113883.4.336",
        "value": "Practitioner-23"
      } ],
      "active": true,
      "name": [ {
        "family": "Careful",
        "given": [ "Adam" ],
        "prefix": [ "Dr" ]
      } ],
      "address": [ {
        "use": "home",
        "line": [ "534 Erewhon St" ],
        "city": "PleasantVille",
        "state": "UT",
        "postalCode": "84414"
      } ],
      "qualification": [ {
        "identifier": [ {
          "system": "http://goodhealthcare.org/UniversityIdentifier",
          "value": "12345"
        } ],
        "code": {
          "coding": [ {
            "system": "http://terminology.hl7.org/CodeSystem/v2-0360|2.7",
            "code": "BS",
            "display": "Bachelor of Science"
          } ],
          "text": "Bachelor of Science"
        },
        "period": {
          "start": "1996"
        },
        "issuer": {
          "display": "Good Healthcare"
        }
      } ]
    }
  }, {
    "fullUrl": "https://madie.cms.gov/Medication/f1419810-51c6-4f9f-93d9-504880d27f0e",
    "resource": {
      "resourceType": "Medication",
      "id": "f1419810-51c6-4f9f-93d9-504880d27f0e",
      "meta": {
        "profile": [ "http://hl7.org/fhir/us/qicore/StructureDefinition/qicore-medication" ]
      },
      "code": {
        "coding": [ {
          "system": "http://www.nlm.nih.gov/research/umls/rxnorm",
          "version": "06052023",
          "code": "1000001",
          "display": "amlodipine 5 MG / hydrochlorothiazide 25 MG / olmesartan medoxomil 40 MG Oral Tablet"
        } ]
      }
    }
  }, {
    "fullUrl": "https://madie.cms.gov/MeasureReport/d1b704c8-7e95-4cd9-89e7-a8b90f925ce2",
    "resource": {
      "resourceType": "MeasureReport",
      "id": "d1b704c8-7e95-4cd9-89e7-a8b90f925ce2",
      "meta": {
        "profile": [ "http://hl7.org/fhir/us/cqfmeasures/StructureDefinition/test-case-cqfm" ]
      },
      "contained": [ {
        "resourceType": "Parameters",
        "id": "1114a812-1824-4751-94f2-7be45a678166-parameters",
        "parameter": [ {
          "name": "subject",
          "valueString": "ec508dbb-76f6-4878-b8a2-114ea8e82297"
        } ]
      } ],
      "extension": [ {
        "url": "http://hl7.org/fhir/StructureDefinition/cqf-inputParameters",
        "valueReference": {
          "reference": "#1114a812-1824-4751-94f2-7be45a678166-parameters"
        }
      }, {
        "url": "http://hl7.org/fhir/us/cqfmeasures/StructureDefinition/cqfm-testCaseDescription",
        "valueMarkdown": "Angiotensin Medication Request authored 1 minute after edge of encounter is not counted in Numerator"
      } ],
      "modifierExtension": [ {
        "url": "http://hl7.org/fhir/us/cqfmeasures/StructureDefinition/cqfm-isTestCase",
        "valueBoolean": true
      } ],
      "status": "complete",
      "type": "individual",
      "measure": "https://madie.cms.gov/Measure/CMS135FHIRACEIorARBorARNIforHF",
      "period": {
        "start": "2026-01-01",
        "end": "2026-12-31"
      },
      "group": [ {
        "id": "Group_1",
        "population": [ {
          "id": "InitialPopulation_1",
          "code": {
            "coding": [ {
              "system": "http://terminology.hl7.org/CodeSystem/measure-population",
              "code": "initial-population",
              "display": "Initial Population"
            } ]
          },
          "count": 1
        }, {
          "id": "Denominator_1",
          "code": {
            "coding": [ {
              "system": "http://terminology.hl7.org/CodeSystem/measure-population",
              "code": "denominator",
              "display": "Denominator"
            } ]
          },
          "count": 1
        }, {
          "id": "DenominatorExclusion_1",
          "code": {
            "coding": [ {
              "system": "http://terminology.hl7.org/CodeSystem/measure-population",
              "code": "denominator-exclusion",
              "display": "Denominator Exclusion"
            } ]
          },
          "count": 0
        }, {
          "id": "Numerator_1",
          "code": {
            "coding": [ {
              "system": "http://terminology.hl7.org/CodeSystem/measure-population",
              "code": "numerator",
              "display": "Numerator"
            } ]
          },
          "count": 0
        }, {
          "id": "DenominatorException_1",
          "code": {
            "coding": [ {
              "system": "http://terminology.hl7.org/CodeSystem/measure-population",
              "code": "denominator-exception",
              "display": "Denominator Exception"
            } ]
          },
          "count": 0
        } ],
        "measureScore": {
          "value": 1.0
        }
      } ],
      "evaluatedResource": [ {
        "reference": "Patient/ec508dbb-76f6-4878-b8a2-114ea8e82297"
      }, {
        "reference": "Encounter/4f9d2f4d-a711-471a-a51d-5a338cc96a41"
      }, {
        "reference": "Encounter/286ae18a-bbe3-444b-bc22-e1bb6d42e347"
      }, {
        "reference": "Condition/4224c22b-61e6-4574-94bd-4d21f519fbf5"
      }, {
        "reference": "Condition/3c23a27c-44c4-4ca0-a3b1-c76ccb0fe926"
      }, {
        "reference": "MedicationRequest/712fa75b-8abd-4e65-b8a8-79257d1fa6b0"
      }, {
        "reference": "Practitioner/0f0b2d56-adff-4b9e-9c9a-9ccc7dcb79b0"
      }, {
        "reference": "Medication/f1419810-51c6-4f9f-93d9-504880d27f0e"
      } ]
    }
  } ]
}