{
  "resourceType": "Bundle",
  "id": "63ec096bccb3770120fea0ad",
  "type": "transaction",
  "entry": [ {
    "fullUrl": "https://madie.cms.gov/Patient/c25ff376-c6dd-4f49-8d4a-953a70341e4f",
    "resource": {
      "resourceType": "Patient",
      "id": "c25ff376-c6dd-4f49-8d4a-953a70341e4f",
      "meta": {
        "profile": [ "http://hl7.org/fhir/us/qicore/StructureDefinition/qicore-patient" ]
      },
      "text": {
        "status": "generated",
        "div": "<div xmlns=\"http://www.w3.org/1999/xhtml\"><div class=\"hapiHeaderText\">NoResult <b>SODIUMFAIL </b></div><table class=\"hapiPropertyTable\"><tbody><tr><td>Identifier</td><td>eb360e3679224871964d5b3575a59ceb3c2f6260372fb1be3ea61ac84d2937cf</td></tr><tr><td>Date of birth</td><td><span>15 June 1956</span></td></tr></tbody></table></div>"
      },
      "extension": [ {
        "url": "http://hl7.org/fhir/us/core/StructureDefinition/us-core-race",
        "extension": [ {
          "url": "ombCategory",
          "valueCoding": {
            "system": "urn:oid:2.16.840.1.113883.6.238",
            "code": "1002-5",
            "display": "American Indian or Alaska Native",
            "userSelected": true
          }
        }, {
          "url": "text",
          "valueString": "American Indian or Alaska Native"
        } ]
      }, {
        "url": "http://hl7.org/fhir/us/core/StructureDefinition/us-core-ethnicity",
        "extension": [ {
          "url": "ombCategory",
          "valueCoding": {
            "system": "urn:oid:2.16.840.1.113883.6.238",
            "code": "2186-5",
            "display": "Not Hispanic or Latino",
            "userSelected": true
          }
        }, {
          "url": "text",
          "valueString": "Not Hispanic or Latino"
        } ]
      }, {
        "url": "http://hl7.org/fhir/us/core/StructureDefinition/us-core-sex",
        "valueCode": "248153007"
      } ],
      "identifier": [ {
        "type": {
          "coding": [ {
            "system": "http://terminology.hl7.org/CodeSystem/v2-0203",
            "code": "MR"
          } ]
        },
        "system": "https://bonnie-fhir.healthit.gov/",
        "value": "63ec096bccb3770120fea0ad"
      } ],
      "active": true,
      "name": [ {
        "use": "usual",
        "family": "SodiumFail",
        "given": [ "NoResult" ]
      } ],
      "gender": "male",
      "birthDate": "1957-06-15"
    },
    "request": {
      "method": "PUT",
      "url": "Patient/c25ff376-c6dd-4f49-8d4a-953a70341e4f"
    }
  }, {
    "fullUrl": "https://madie.cms.gov/Encounter/32ff999f-87cd-445c-b56b-e6908490a1bd",
    "resource": {
      "resourceType": "Encounter",
      "id": "32ff999f-87cd-445c-b56b-e6908490a1bd",
      "meta": {
        "profile": [ "http://hl7.org/fhir/us/qicore/StructureDefinition/qicore-encounter" ]
      },
      "status": "finished",
      "class": {
        "system": "http://terminology.hl7.org/CodeSystem/v3-ActCode",
        "code": "IMP",
        "display": "inpatient encounter",
        "userSelected": true
      },
      "type": [ {
        "coding": [ {
          "system": "http://snomed.info/sct",
          "code": "183452005"
        } ]
      } ],
      "subject": {
        "reference": "Patient/c25ff376-c6dd-4f49-8d4a-953a70341e4f"
      },
      "period": {
        "start": "2026-07-21T08:00:00.000+00:00",
        "end": "2026-07-23T08:15:00.000+00:00"
      }
    },
    "request": {
      "method": "PUT",
      "url": "Encounter/32ff999f-87cd-445c-b56b-e6908490a1bd"
    }
  }, {
    "fullUrl": "https://madie.cms.gov/Coverage/7d42dc14-4005-4e73-af4e-e05e27cf1333",
    "resource": {
      "resourceType": "Coverage",
      "id": "7d42dc14-4005-4e73-af4e-e05e27cf1333",
      "meta": {
        "profile": [ "http://hl7.org/fhir/us/qicore/StructureDefinition/qicore-coverage" ]
      },
      "status": "active",
      "type": {
        "coding": [ {
          "system": "https://nahdo.org/sopt",
          "version": "1.0.1",
          "code": "1",
          "display": "MEDICARE",
          "userSelected": true
        } ]
      },
      "subscriberId": "AB9876",
      "beneficiary": {
        "reference": "Patient/c25ff376-c6dd-4f49-8d4a-953a70341e4f"
      },
      "relationship": {
        "coding": [ {
          "system": "http://terminology.hl7.org/CodeSystem/subscriber-relationship",
          "code": "self"
        } ]
      },
      "payor": [ {
        "reference": "Organization/cbd8eaae-daf9-4052-bb8c-0a9bf16a6dfb"
      } ]
    },
    "request": {
      "method": "PUT",
      "url": "Coverage/7d42dc14-4005-4e73-af4e-e05e27cf1333"
    }
  }, {
    "fullUrl": "https://madie.cms.gov/Observation/c167c15e-887b-43f3-93c5-b68a0eec43e9",
    "resource": {
      "resourceType": "Observation",
      "id": "c167c15e-887b-43f3-93c5-b68a0eec43e9",
      "meta": {
        "profile": [ "http://hl7.org/fhir/us/qicore/StructureDefinition/qicore-observation-lab" ]
      },
      "status": "amended",
      "category": [ {
        "coding": [ {
          "system": "http://terminology.hl7.org/CodeSystem/observation-category",
          "code": "laboratory",
          "display": "Laboratory",
          "userSelected": true
        } ]
      } ],
      "code": {
        "coding": [ {
          "system": "http://loinc.org",
          "version": "2.72",
          "code": "2947-0",
          "display": "Sodium [Moles/volume] in Blood"
        } ]
      },
      "subject": {
        "reference": "Patient/c25ff376-c6dd-4f49-8d4a-953a70341e4f"
      },
      "issued": "2026-07-21T08:01:00.000+00:00",
      "performer": [ {
        "reference": "Organization/Organization-1"
      } ],
      "dataAbsentReason": {
        "coding": [ {
          "system": "http://terminology.hl7.org/CodeSystem/data-absent-reason",
          "code": "unknown",
          "display": "Unknown"
        } ]
      }
    },
    "request": {
      "method": "PUT",
      "url": "Observation/c167c15e-887b-43f3-93c5-b68a0eec43e9"
    }
  }, {
    "fullUrl": "https://madie.cms.gov/Organization/cbd8eaae-daf9-4052-bb8c-0a9bf16a6dfb",
    "resource": {
      "resourceType": "Organization",
      "id": "cbd8eaae-daf9-4052-bb8c-0a9bf16a6dfb",
      "meta": {
        "profile": [ "http://hl7.org/fhir/us/qicore/StructureDefinition/qicore-organization" ]
      },
      "identifier": [ {
        "use": "temp",
        "system": "urn:oid:2.16.840.1.113883.4.4",
        "value": "21-3259825"
      } ],
      "active": true,
      "type": [ {
        "coding": [ {
          "system": "http://terminology.hl7.org/CodeSystem/organization-type",
          "code": "pay",
          "display": "Payer"
        } ]
      } ],
      "name": "Blue Cross Blue Shield of Texas",
      "telecom": [ {
        "system": "phone",
        "value": "(+1) 972-766-6900"
      } ],
      "address": [ {
        "use": "billing",
        "type": "postal",
        "line": [ "P.O. Box 660044" ],
        "city": "Dallas",
        "state": "TX",
        "postalCode": "75266-0044",
        "country": "USA"
      } ]
    },
    "request": {
      "method": "PUT",
      "url": "Organization/cbd8eaae-daf9-4052-bb8c-0a9bf16a6dfb"
    }
  }, {
    "fullUrl": "https://madie.cms.gov/Practitioner/43408766-845a-4a5c-9908-8cf58797970b",
    "resource": {
      "resourceType": "Practitioner",
      "id": "43408766-845a-4a5c-9908-8cf58797970b",
      "meta": {
        "profile": [ "http://hl7.org/fhir/us/qicore/StructureDefinition/qicore-practitioner" ]
      },
      "identifier": [ {
        "system": "http://hl7.org/fhir/sid/us-npi",
        "value": "0723660813"
      } ],
      "name": [ {
        "family": "Evil",
        "prefix": [ "Dr" ]
      } ]
    },
    "request": {
      "method": "PUT",
      "url": "Practitioner/43408766-845a-4a5c-9908-8cf58797970b"
    }
  }, {
    "fullUrl": "https://madie.cms.gov/MeasureReport/7b88c94b-25c1-43d3-b38a-87d23b691899",
    "resource": {
      "resourceType": "MeasureReport",
      "id": "7b88c94b-25c1-43d3-b38a-87d23b691899",
      "meta": {
        "profile": [ "http://hl7.org/fhir/us/cqfmeasures/StructureDefinition/test-case-cqfm" ]
      },
      "contained": [ {
        "resourceType": "Parameters",
        "id": "99701ea1-cc5f-45db-b83e-73f64dfd2ac7-parameters",
        "parameter": [ {
          "name": "subject",
          "valueString": "c25ff376-c6dd-4f49-8d4a-953a70341e4f"
        } ]
      } ],
      "extension": [ {
        "url": "http://hl7.org/fhir/StructureDefinition/cqf-inputParameters",
        "valueReference": {
          "reference": "#99701ea1-cc5f-45db-b83e-73f64dfd2ac7-parameters"
        }
      }, {
        "url": "http://hl7.org/fhir/us/cqfmeasures/StructureDefinition/cqfm-testCaseDescription",
        "valueMarkdown": "In MP. Sodium test given with no result present."
      } ],
      "modifierExtension": [ {
        "url": "http://hl7.org/fhir/us/cqfmeasures/StructureDefinition/cqfm-isTestCase",
        "valueBoolean": true
      } ],
      "status": "complete",
      "type": "individual",
      "measure": "https://madie.cms.gov/Measure/CMSFHIR844HybridHospitalWideMortality",
      "period": {
        "start": "2026-07-01",
        "end": "2027-06-30"
      },
      "group": [ {
        "id": "Group_1",
        "population": [ {
          "id": "InitialPopulation_1",
          "code": {
            "coding": [ {
              "system": "http://terminology.hl7.org/CodeSystem/measure-population",
              "code": "initial-population",
              "display": "Initial Population"
            } ]
          },
          "count": 1
        } ],
        "measureScore": {
          "value": 0.0
        }
      } ],
      "evaluatedResource": [ {
        "reference": "Patient/c25ff376-c6dd-4f49-8d4a-953a70341e4f"
      }, {
        "reference": "Encounter/32ff999f-87cd-445c-b56b-e6908490a1bd"
      }, {
        "reference": "Coverage/7d42dc14-4005-4e73-af4e-e05e27cf1333"
      }, {
        "reference": "Observation/c167c15e-887b-43f3-93c5-b68a0eec43e9"
      }, {
        "reference": "Organization/cbd8eaae-daf9-4052-bb8c-0a9bf16a6dfb"
      }, {
        "reference": "Practitioner/43408766-845a-4a5c-9908-8cf58797970b"
      } ]
    },
    "request": {
      "method": "PUT",
      "url": "MeasureReport/7b88c94b-25c1-43d3-b38a-87d23b691899"
    }
  } ]
}