{
  "resourceType": "Bundle",
  "id": "610d3a53be3d5dcbc43d6777",
  "type": "collection",
  "entry": [ {
    "fullUrl": "https://madie.cms.gov/Patient/2eb467fd-9453-4652-bb38-18d1ab636aca",
    "resource": {
      "resourceType": "Patient",
      "id": "2eb467fd-9453-4652-bb38-18d1ab636aca",
      "meta": {
        "profile": [ "http://hl7.org/fhir/us/qicore/StructureDefinition/qicore-patient" ]
      },
      "extension": [ {
        "url": "http://hl7.org/fhir/us/core/StructureDefinition/us-core-race",
        "extension": [ {
          "url": "ombCategory",
          "valueCoding": {
            "system": "urn:oid:2.16.840.1.113883.6.238",
            "code": "2028-9",
            "display": "Asian",
            "userSelected": true
          }
        }, {
          "url": "text",
          "valueString": "Asian"
        } ]
      }, {
        "url": "http://hl7.org/fhir/us/core/StructureDefinition/us-core-ethnicity",
        "extension": [ {
          "url": "ombCategory",
          "valueCoding": {
            "system": "urn:oid:2.16.840.1.113883.6.238",
            "code": "2186-5",
            "display": "Not Hispanic or Latino",
            "userSelected": true
          }
        }, {
          "url": "text",
          "valueString": "Not Hispanic or Latino"
        } ]
      } ],
      "identifier": [ {
        "type": {
          "coding": [ {
            "system": "http://terminology.hl7.org/CodeSystem/v2-0203",
            "code": "MR"
          } ]
        },
        "system": "https://bonnie-fhir.healthit.gov/",
        "value": "610d3a53be3d5dcbc43d6777"
      } ],
      "name": [ {
        "family": "IPPass",
        "given": [ "DementiaDxStartsFirstDayofMPEdge" ]
      } ],
      "gender": "female",
      "birthDate": "1969-03-02"
    }
  }, {
    "fullUrl": "https://madie.cms.gov/Encounter/413d7948-6025-4fc3-899b-c5203347a00f",
    "resource": {
      "resourceType": "Encounter",
      "id": "413d7948-6025-4fc3-899b-c5203347a00f",
      "meta": {
        "profile": [ "http://hl7.org/fhir/us/qicore/StructureDefinition/qicore-encounter" ]
      },
      "status": "finished",
      "class": {
        "system": "http://terminology.hl7.org/CodeSystem/v3-ActCode",
        "code": "AMB",
        "display": "ambulatory",
        "userSelected": true
      },
      "type": [ {
        "coding": [ {
          "system": "http://snomed.info/sct",
          "version": "http://snomed.info/sct/731000124108/version/202303",
          "code": "185460008",
          "display": "Home visit request by patient (procedure)",
          "userSelected": true
        } ]
      } ],
      "subject": {
        "reference": "Patient/2eb467fd-9453-4652-bb38-18d1ab636aca"
      },
      "period": {
        "start": "2026-08-06T08:00:00.000Z",
        "end": "2026-08-10T08:15:00.000Z"
      }
    }
  }, {
    "fullUrl": "https://madie.cms.gov/Condition/bdaab5ae-acf9-4772-a132-c765f888b203",
    "resource": {
      "resourceType": "Condition",
      "id": "bdaab5ae-acf9-4772-a132-c765f888b203",
      "meta": {
        "profile": [ "http://hl7.org/fhir/us/qicore/StructureDefinition/qicore-condition-problems-health-concerns" ]
      },
      "clinicalStatus": {
        "coding": [ {
          "system": "http://terminology.hl7.org/CodeSystem/condition-clinical",
          "code": "active",
          "display": "active",
          "userSelected": true
        } ]
      },
      "category": [ {
        "coding": [ {
          "system": "http://terminology.hl7.org/CodeSystem/condition-category",
          "code": "problem-list-item",
          "display": "Problem List Item"
        } ]
      } ],
      "code": {
        "coding": [ {
          "system": "http://snomed.info/sct",
          "version": "http://snomed.info/sct/731000124108/version/20250301",
          "code": "10349009",
          "display": "Multi-infarct dementia with delirium (disorder)",
          "userSelected": true
        } ]
      },
      "subject": {
        "reference": "Patient/2eb467fd-9453-4652-bb38-18d1ab636aca"
      },
      "onsetDateTime": "2026-01-01T00:00:00.000Z"
    }
  }, {
    "fullUrl": "https://madie.cms.gov/Encounter/32b69ea3-54cb-41ea-b9a0-628f73887767",
    "resource": {
      "resourceType": "Encounter",
      "id": "32b69ea3-54cb-41ea-b9a0-628f73887767",
      "meta": {
        "profile": [ "http://hl7.org/fhir/us/qicore/StructureDefinition/qicore-encounter" ]
      },
      "status": "finished",
      "class": {
        "system": "http://terminology.hl7.org/CodeSystem/v3-ActCode",
        "code": "AMB",
        "display": "ambulatory",
        "userSelected": true
      },
      "type": [ {
        "coding": [ {
          "system": "http://snomed.info/sct",
          "version": "http://snomed.info/sct/731000124108/version/202303",
          "code": "185316007",
          "display": "Indirect encounter (procedure)",
          "userSelected": true
        } ]
      } ],
      "subject": {
        "reference": "Patient/2eb467fd-9453-4652-bb38-18d1ab636aca"
      },
      "period": {
        "start": "2026-08-06T08:00:00.000Z",
        "end": "2026-08-10T08:15:00.000Z"
      },
      "diagnosis": [ {
        "condition": {
          "reference": "Condition/dementia-mental-degenerations-5d61"
        }
      } ]
    }
  }, {
    "fullUrl": "https://madie.cms.gov/Condition/34dfe813-9356-4672-94a4-87924e065916",
    "resource": {
      "resourceType": "Condition",
      "id": "34dfe813-9356-4672-94a4-87924e065916",
      "meta": {
        "profile": [ "http://hl7.org/fhir/us/qicore/StructureDefinition/qicore-condition-encounter-diagnosis" ]
      },
      "clinicalStatus": {
        "coding": [ {
          "system": "http://terminology.hl7.org/CodeSystem/condition-clinical",
          "code": "active",
          "display": "active",
          "userSelected": true
        } ]
      },
      "category": [ {
        "coding": [ {
          "system": "http://terminology.hl7.org/CodeSystem/condition-category",
          "code": "encounter-diagnosis",
          "display": "Encounter Diagnosis"
        } ]
      } ],
      "code": {
        "coding": [ {
          "system": "http://snomed.info/sct",
          "version": "http://snomed.info/sct/731000124108/version/20250301",
          "code": "10349009",
          "display": "Multi-infarct dementia with delirium (disorder)",
          "userSelected": true
        } ]
      },
      "subject": {
        "reference": "Patient/2eb467fd-9453-4652-bb38-18d1ab636aca"
      },
      "onsetPeriod": {
        "start": "2025-08-05T08:00:00.000Z",
        "end": "2025-08-11T08:15:00.000Z"
      }
    }
  }, {
    "fullUrl": "https://madie.cms.gov/Coverage/c29fb40c-4908-4b6d-bd52-de84bdc51836",
    "resource": {
      "resourceType": "Coverage",
      "id": "c29fb40c-4908-4b6d-bd52-de84bdc51836",
      "meta": {
        "profile": [ "http://hl7.org/fhir/us/qicore/StructureDefinition/qicore-coverage" ]
      },
      "status": "active",
      "subscriberId": "123456",
      "beneficiary": {
        "reference": "Patient/2eb467fd-9453-4652-bb38-18d1ab636aca"
      },
      "relationship": {
        "coding": [ {
          "system": "http://terminology.hl7.org/CodeSystem/subscriber-relationship",
          "code": "self"
        } ]
      },
      "period": {
        "start": "2016-05-23",
        "end": "2027-05-23"
      },
      "payor": [ {
        "reference": "Organization/27620767-92e9-48c0-832b-69097c22bf3e"
      } ]
    }
  }, {
    "fullUrl": "https://madie.cms.gov/Organization/27620767-92e9-48c0-832b-69097c22bf3e",
    "resource": {
      "resourceType": "Organization",
      "id": "27620767-92e9-48c0-832b-69097c22bf3e",
      "meta": {
        "profile": [ "http://hl7.org/fhir/us/qicore/StructureDefinition/qicore-organization" ]
      },
      "identifier": [ {
        "use": "temp",
        "system": "urn:oid:2.16.840.1.113883.4.4",
        "value": "21-3259825"
      } ],
      "active": true,
      "type": [ {
        "coding": [ {
          "system": "http://terminology.hl7.org/CodeSystem/organization-type",
          "code": "pay",
          "display": "Payer"
        } ]
      } ],
      "name": "Blue Cross Blue Shield of Texas",
      "telecom": [ {
        "system": "phone",
        "value": "(+1) 972-766-6900"
      } ],
      "address": [ {
        "use": "billing",
        "type": "postal",
        "line": [ "P.O. Box 660044" ],
        "city": "Dallas",
        "state": "TX",
        "postalCode": "75266-0044",
        "country": "USA"
      } ]
    }
  }, {
    "fullUrl": "https://madie.cms.gov/Practitioner/8f80e634-ebab-4959-9cf9-7e0315031a72",
    "resource": {
      "resourceType": "Practitioner",
      "id": "8f80e634-ebab-4959-9cf9-7e0315031a72",
      "identifier": [ {
        "system": "http://hl7.org/fhir/sid/us-npi",
        "value": "1689411712"
      } ],
      "name": [ {
        "family": "Evil",
        "prefix": [ "Dr" ]
      } ]
    }
  }, {
    "fullUrl": "https://madie.cms.gov/MeasureReport/f1cc54d4-fac8-4f1d-a09c-9abed607c2e6",
    "resource": {
      "resourceType": "MeasureReport",
      "id": "f1cc54d4-fac8-4f1d-a09c-9abed607c2e6",
      "meta": {
        "profile": [ "http://hl7.org/fhir/us/cqfmeasures/StructureDefinition/test-case-cqfm" ]
      },
      "contained": [ {
        "resourceType": "Parameters",
        "id": "a470f478-5dbb-4fff-b00c-a92736e5e546-parameters",
        "parameter": [ {
          "name": "subject",
          "valueString": "2eb467fd-9453-4652-bb38-18d1ab636aca"
        } ]
      } ],
      "extension": [ {
        "url": "http://hl7.org/fhir/StructureDefinition/cqf-inputParameters",
        "valueReference": {
          "reference": "#a470f478-5dbb-4fff-b00c-a92736e5e546-parameters"
        }
      }, {
        "url": "http://hl7.org/fhir/us/cqfmeasures/StructureDefinition/cqfm-testCaseDescription",
        "valueMarkdown": "Dementia Diagnosis begins exactly at start of MP with Home Visit and Patient Provider Interaction"
      } ],
      "modifierExtension": [ {
        "url": "http://hl7.org/fhir/us/cqfmeasures/StructureDefinition/cqfm-isTestCase",
        "valueBoolean": true
      } ],
      "status": "complete",
      "type": "individual",
      "measure": "https://madie.cms.gov/Measure/CMS149FHIRDementiaCognitiveAssess",
      "period": {
        "start": "2026-01-01",
        "end": "2026-12-31"
      },
      "group": [ {
        "id": "Group_1",
        "population": [ {
          "id": "InitialPopulation_1",
          "code": {
            "coding": [ {
              "system": "http://terminology.hl7.org/CodeSystem/measure-population",
              "code": "initial-population",
              "display": "Initial Population"
            } ]
          },
          "count": 1
        }, {
          "id": "Denominator_1",
          "code": {
            "coding": [ {
              "system": "http://terminology.hl7.org/CodeSystem/measure-population",
              "code": "denominator",
              "display": "Denominator"
            } ]
          },
          "count": 1
        }, {
          "id": "Numerator_1",
          "code": {
            "coding": [ {
              "system": "http://terminology.hl7.org/CodeSystem/measure-population",
              "code": "numerator",
              "display": "Numerator"
            } ]
          },
          "count": 0
        }, {
          "id": "DenominatorException_1",
          "code": {
            "coding": [ {
              "system": "http://terminology.hl7.org/CodeSystem/measure-population",
              "code": "denominator-exception",
              "display": "Denominator Exception"
            } ]
          },
          "count": 0
        } ],
        "measureScore": {
          "value": 1.0
        }
      } ],
      "evaluatedResource": [ {
        "reference": "Patient/2eb467fd-9453-4652-bb38-18d1ab636aca"
      }, {
        "reference": "Encounter/413d7948-6025-4fc3-899b-c5203347a00f"
      }, {
        "reference": "Condition/bdaab5ae-acf9-4772-a132-c765f888b203"
      }, {
        "reference": "Encounter/32b69ea3-54cb-41ea-b9a0-628f73887767"
      }, {
        "reference": "Condition/34dfe813-9356-4672-94a4-87924e065916"
      }, {
        "reference": "Coverage/c29fb40c-4908-4b6d-bd52-de84bdc51836"
      }, {
        "reference": "Organization/27620767-92e9-48c0-832b-69097c22bf3e"
      }, {
        "reference": "Practitioner/8f80e634-ebab-4959-9cf9-7e0315031a72"
      } ]
    }
  } ]
}