{
  "resourceType": "Bundle",
  "id": "60f82c2e98086b570510e275",
  "type": "transaction",
  "entry": [ {
    "fullUrl": "https://madie.cms.gov/Patient/871d38c3-6822-4136-8fe0-2ed0f226888f",
    "resource": {
      "resourceType": "Patient",
      "id": "871d38c3-6822-4136-8fe0-2ed0f226888f",
      "meta": {
        "profile": [ "http://hl7.org/fhir/us/qicore/StructureDefinition/qicore-patient" ]
      },
      "text": {
        "status": "generated",
        "div": "<div xmlns=\"http://www.w3.org/1999/xhtml\"><div class=\"hapiHeaderText\">EncDx=IschemicStroke <b>IPPFAIL </b></div><table class=\"hapiPropertyTable\"><tbody><tr><td>Identifier</td><td>89a98bc05b4643f22db6eeb5f4cd4a58</td></tr><tr><td>Date of birth</td><td><span>20 August 1994</span></td></tr></tbody></table></div>"
      },
      "extension": [ {
        "url": "http://hl7.org/fhir/us/core/StructureDefinition/us-core-race",
        "extension": [ {
          "url": "ombCategory",
          "valueCoding": {
            "system": "urn:oid:2.16.840.1.113883.6.238",
            "code": "1002-5",
            "display": "American Indian or Alaska Native",
            "userSelected": true
          }
        }, {
          "url": "text",
          "valueString": "American Indian or Alaska Native"
        } ]
      }, {
        "url": "http://hl7.org/fhir/us/core/StructureDefinition/us-core-ethnicity",
        "extension": [ {
          "url": "ombCategory",
          "valueCoding": {
            "system": "urn:oid:2.16.840.1.113883.6.238",
            "code": "2186-5",
            "display": "Not Hispanic or Latino",
            "userSelected": true
          }
        }, {
          "url": "text",
          "valueString": "Not Hispanic or Latino"
        } ]
      } ],
      "identifier": [ {
        "type": {
          "coding": [ {
            "system": "http://terminology.hl7.org/CodeSystem/v2-0203",
            "code": "MR"
          } ]
        },
        "system": "https://bonnie-fhir.healthit.gov/",
        "value": "60f82c2e98086b570510e275"
      } ],
      "active": true,
      "name": [ {
        "use": "usual",
        "family": "IPPFail",
        "given": [ "EncDxIschemicStroke" ]
      } ],
      "gender": "male",
      "birthDate": "1995-08-20"
    },
    "request": {
      "method": "PUT",
      "url": "Patient/871d38c3-6822-4136-8fe0-2ed0f226888f"
    }
  }, {
    "fullUrl": "https://madie.cms.gov/Encounter/6f02948e-16ae-44ba-b178-a83d18ea0f2c",
    "resource": {
      "resourceType": "Encounter",
      "id": "6f02948e-16ae-44ba-b178-a83d18ea0f2c",
      "meta": {
        "profile": [ "http://hl7.org/fhir/us/qicore/StructureDefinition/qicore-encounter" ]
      },
      "status": "finished",
      "class": {
        "system": "http://terminology.hl7.org/CodeSystem/v3-ActCode",
        "code": "IMP",
        "display": "inpatient encounter"
      },
      "type": [ {
        "coding": [ {
          "system": "http://snomed.info/sct",
          "code": "32485007"
        } ]
      } ],
      "subject": {
        "reference": "Patient/871d38c3-6822-4136-8fe0-2ed0f226888f"
      },
      "period": {
        "start": "2026-08-21T00:00:00.000+00:00",
        "end": "2026-12-18T23:59:00.000+00:00"
      },
      "length": {
        "value": 119,
        "unit": "days"
      },
      "reasonReference": [ {
        "reference": "Condition/76efe182-575a-4e56-8326-a3bac50b7a30"
      } ]
    },
    "request": {
      "method": "PUT",
      "url": "Encounter/6f02948e-16ae-44ba-b178-a83d18ea0f2c"
    }
  }, {
    "fullUrl": "https://madie.cms.gov/Coverage/d66ab3fe-ce4c-4df7-b39d-9925ad77a5f0",
    "resource": {
      "resourceType": "Coverage",
      "id": "d66ab3fe-ce4c-4df7-b39d-9925ad77a5f0",
      "status": "active",
      "beneficiary": {
        "reference": "Patient/871d38c3-6822-4136-8fe0-2ed0f226888f"
      },
      "period": {
        "start": "1995-08-20T07:00:00.000+00:00"
      },
      "payor": [ {
        "reference": "Organization/8aeaadd6-705a-40bf-9559-e5555ce46d4d"
      } ]
    },
    "request": {
      "method": "PUT",
      "url": "Coverage/d66ab3fe-ce4c-4df7-b39d-9925ad77a5f0"
    }
  }, {
    "fullUrl": "https://madie.cms.gov/Condition/76efe182-575a-4e56-8326-a3bac50b7a30",
    "resource": {
      "resourceType": "Condition",
      "id": "76efe182-575a-4e56-8326-a3bac50b7a30",
      "meta": {
        "profile": [ "http://hl7.org/fhir/us/qicore/StructureDefinition/qicore-condition-encounter-diagnosis" ]
      },
      "clinicalStatus": {
        "coding": [ {
          "system": "http://terminology.hl7.org/CodeSystem/condition-clinical",
          "code": "active"
        } ]
      },
      "verificationStatus": {
        "coding": [ {
          "system": "http://terminology.hl7.org/CodeSystem/condition-ver-status",
          "code": "confirmed"
        } ]
      },
      "category": [ {
        "coding": [ {
          "system": "http://terminology.hl7.org/CodeSystem/condition-category",
          "code": "encounter-diagnosis",
          "display": "Encounter Diagnosis"
        } ]
      } ],
      "code": {
        "coding": [ {
          "system": "http://snomed.info/sct",
          "version": "2020-09",
          "code": "111297002",
          "display": "Nonparalytic stroke (disorder)",
          "userSelected": true
        } ]
      },
      "subject": {
        "reference": "Patient/871d38c3-6822-4136-8fe0-2ed0f226888f"
      },
      "encounter": {
        "reference": "Encounter/6f02948e-16ae-44ba-b178-a83d18ea0f2c"
      },
      "recordedDate": "2026-08-16T08:00:00.000+00:00"
    },
    "request": {
      "method": "PUT",
      "url": "Condition/76efe182-575a-4e56-8326-a3bac50b7a30"
    }
  }, {
    "fullUrl": "https://madie.cms.gov/claim/5ca62962b8484628b8de1ec5",
    "resource": {
      "resourceType": "Claim",
      "id": "5ca62962b8484628b8de1ec5",
      "meta": {
        "profile": [ "http://hl7.org/fhir/us/qicore/StructureDefinition/qicore-claim" ]
      },
      "status": "active",
      "type": {
        "coding": [ {
          "system": "http://terminology.hl7.org/CodeSystem/claim-type",
          "code": "institutional"
        } ]
      },
      "use": "claim",
      "patient": {
        "reference": "Patient/871d38c3-6822-4136-8fe0-2ed0f226888f"
      },
      "created": "2026-12-01",
      "provider": {
        "reference": "Practitioner/3ffe40f8-ebd4-4fcf-9efd-6670f2f14d52"
      },
      "priority": {
        "coding": [ {
          "system": "http://terminology.hl7.org/CodeSystem/processpriority",
          "code": "normal"
        } ]
      },
      "diagnosis": [ {
        "sequence": 2,
        "diagnosisCodeableConcept": {
          "coding": [ {
            "system": "http://hl7.org/fhir/sid/icd-10-cm",
            "code": "I63.00"
          } ]
        },
        "type": [ {
          "coding": [ {
            "system": "http://terminology.hl7.org/CodeSystem/ex-diagnosistype",
            "code": "principal"
          } ]
        } ]
      } ],
      "insurance": [ {
        "sequence": 2,
        "focal": true,
        "coverage": {
          "reference": "Coverage/5fa041661c76ba66d9959367"
        }
      } ],
      "item": [ {
        "sequence": 1,
        "diagnosisSequence": [ 1 ],
        "productOrService": {
          "coding": [ {
            "system": "http://terminology.hl7.org/CodeSystem/ex-USCLS",
            "code": "99555"
          } ]
        },
        "encounter": [ {
          "reference": "Encounter/6f02948e-16ae-44ba-b178-a83d18ea0f2c"
        } ]
      } ]
    },
    "request": {
      "method": "PUT",
      "url": "Claim/5ca62962b8484628b8de1ec5"
    }
  }, {
    "fullUrl": "https://madie.cms.gov/Organization/8aeaadd6-705a-40bf-9559-e5555ce46d4d",
    "resource": {
      "resourceType": "Organization",
      "id": "8aeaadd6-705a-40bf-9559-e5555ce46d4d",
      "meta": {
        "profile": [ "http://hl7.org/fhir/us/qicore/StructureDefinition/qicore-organization" ]
      },
      "identifier": [ {
        "use": "temp",
        "system": "urn:oid:2.16.840.1.113883.4.4",
        "value": "21-3259825"
      } ],
      "active": true,
      "type": [ {
        "coding": [ {
          "system": "http://terminology.hl7.org/CodeSystem/organization-type",
          "code": "pay",
          "display": "Payer"
        } ]
      } ],
      "name": "Blue Cross Blue Shield of Texas",
      "telecom": [ {
        "system": "phone",
        "value": "(+1) 972-766-6900"
      } ],
      "address": [ {
        "use": "billing",
        "type": "postal",
        "line": [ "P.O. Box 660044" ],
        "city": "Dallas",
        "state": "TX",
        "postalCode": "75266-0044",
        "country": "USA"
      } ]
    },
    "request": {
      "method": "PUT",
      "url": "Organization/8aeaadd6-705a-40bf-9559-e5555ce46d4d"
    }
  }, {
    "fullUrl": "https://madie.cms.gov/Practitioner/3ffe40f8-ebd4-4fcf-9efd-6670f2f14d52",
    "resource": {
      "resourceType": "Practitioner",
      "id": "3ffe40f8-ebd4-4fcf-9efd-6670f2f14d52",
      "identifier": [ {
        "system": "http://hl7.org/fhir/sid/us-npi",
        "value": "123456"
      } ],
      "name": [ {
        "family": "Evil",
        "prefix": [ "Dr" ]
      } ]
    },
    "request": {
      "method": "PUT",
      "url": "Practitioner/3ffe40f8-ebd4-4fcf-9efd-6670f2f14d52"
    }
  }, {
    "fullUrl": "https://madie.cms.gov/MeasureReport/194780e4-9b89-4aa1-8e62-652ed5b3119a",
    "resource": {
      "resourceType": "MeasureReport",
      "id": "194780e4-9b89-4aa1-8e62-652ed5b3119a",
      "meta": {
        "profile": [ "http://hl7.org/fhir/us/cqfmeasures/StructureDefinition/test-case-cqfm" ]
      },
      "contained": [ {
        "resourceType": "Parameters",
        "id": "99a3969e-bc49-4b1c-82ad-7305f7064c33-parameters",
        "parameter": [ {
          "name": "subject",
          "valueString": "871d38c3-6822-4136-8fe0-2ed0f226888f"
        } ]
      } ],
      "extension": [ {
        "url": "http://hl7.org/fhir/StructureDefinition/cqf-inputParameters",
        "valueReference": {
          "reference": "#99a3969e-bc49-4b1c-82ad-7305f7064c33-parameters"
        }
      }, {
        "url": "http://hl7.org/fhir/us/cqfmeasures/StructureDefinition/cqfm-testCaseDescription",
        "valueMarkdown": "EncDx=IschemicStroke    LOS<120\n"
      } ],
      "modifierExtension": [ {
        "url": "http://hl7.org/fhir/us/cqfmeasures/StructureDefinition/cqfm-isTestCase",
        "valueBoolean": true
      } ],
      "status": "complete",
      "type": "individual",
      "measure": "https://madie.cms.gov/Measure/CMS72FHIRSTKAntithromboticDay2",
      "period": {
        "start": "2026-01-01",
        "end": "2026-12-31"
      },
      "group": [ {
        "id": "Group_1",
        "population": [ {
          "id": "InitialPopulation_1",
          "code": {
            "coding": [ {
              "system": "http://terminology.hl7.org/CodeSystem/measure-population",
              "code": "initial-population",
              "display": "Initial Population"
            } ]
          },
          "count": 0
        }, {
          "id": "Denominator_1",
          "code": {
            "coding": [ {
              "system": "http://terminology.hl7.org/CodeSystem/measure-population",
              "code": "denominator",
              "display": "Denominator"
            } ]
          },
          "count": 0
        }, {
          "id": "DenominatorExclusion_1",
          "code": {
            "coding": [ {
              "system": "http://terminology.hl7.org/CodeSystem/measure-population",
              "code": "denominator-exclusion",
              "display": "Denominator Exclusion"
            } ]
          },
          "count": 0
        }, {
          "id": "Numerator_1",
          "code": {
            "coding": [ {
              "system": "http://terminology.hl7.org/CodeSystem/measure-population",
              "code": "numerator",
              "display": "Numerator"
            } ]
          },
          "count": 0
        }, {
          "id": "DenominatorException_1",
          "code": {
            "coding": [ {
              "system": "http://terminology.hl7.org/CodeSystem/measure-population",
              "code": "denominator-exception",
              "display": "Denominator Exception"
            } ]
          },
          "count": 0
        } ],
        "measureScore": {
          "value": 0.0
        }
      } ],
      "evaluatedResource": [ {
        "reference": "Patient/871d38c3-6822-4136-8fe0-2ed0f226888f"
      }, {
        "reference": "Encounter/6f02948e-16ae-44ba-b178-a83d18ea0f2c"
      }, {
        "reference": "Coverage/d66ab3fe-ce4c-4df7-b39d-9925ad77a5f0"
      }, {
        "reference": "Condition/76efe182-575a-4e56-8326-a3bac50b7a30"
      }, {
        "reference": "Claim/5ca62962b8484628b8de1ec5"
      }, {
        "reference": "Organization/8aeaadd6-705a-40bf-9559-e5555ce46d4d"
      }, {
        "reference": "Practitioner/3ffe40f8-ebd4-4fcf-9efd-6670f2f14d52"
      } ]
    },
    "request": {
      "method": "PUT",
      "url": "MeasureReport/194780e4-9b89-4aa1-8e62-652ed5b3119a"
    }
  } ]
}