{
  "resourceType": "Bundle",
  "id": "Patient-IPPass-MedicalNutritionTherapy5",
  "type": "transaction",
  "entry": [ {
    "fullUrl": "https://madie.cms.gov/Patient/5d692a54-a1d5-4a9c-80ba-fb6b20112484",
    "resource": {
      "resourceType": "Patient",
      "id": "5d692a54-a1d5-4a9c-80ba-fb6b20112484",
      "meta": {
        "profile": [ "http://hl7.org/fhir/us/qicore/StructureDefinition/qicore-patient" ]
      },
      "extension": [ {
        "url": "http://hl7.org/fhir/us/core/StructureDefinition/us-core-race",
        "extension": [ {
          "url": "ombCategory",
          "valueCoding": {
            "system": "urn:oid:2.16.840.1.113883.6.238",
            "code": "2028-9",
            "display": "Asian"
          }
        }, {
          "url": "text",
          "valueString": "Asian"
        } ]
      }, {
        "url": "http://hl7.org/fhir/us/core/StructureDefinition/us-core-ethnicity",
        "extension": [ {
          "url": "ombCategory",
          "valueCoding": {
            "system": "urn:oid:2.16.840.1.113883.6.238",
            "code": "2135-2",
            "display": "Hispanic or Latino"
          }
        }, {
          "url": "text",
          "valueString": "Hispanic or Latino"
        } ]
      } ],
      "identifier": [ {
        "system": "http://hospital.smarthealthit.org",
        "value": "999999995"
      } ],
      "name": [ {
        "family": "Bertha",
        "given": [ "Betty" ]
      } ],
      "gender": "female",
      "birthDate": "2008-01-01"
    },
    "request": {
      "method": "PUT",
      "url": "Patient/5d692a54-a1d5-4a9c-80ba-fb6b20112484"
    }
  }, {
    "fullUrl": "https://madie.cms.gov/Encounter/16c2f4ef-943c-4773-8599-53887f7f4ffe",
    "resource": {
      "resourceType": "Encounter",
      "id": "16c2f4ef-943c-4773-8599-53887f7f4ffe",
      "meta": {
        "profile": [ "http://hl7.org/fhir/us/qicore/StructureDefinition/qicore-encounter" ]
      },
      "status": "finished",
      "class": {
        "system": "http://terminology.hl7.org/CodeSystem/v3-ActCode",
        "code": "AMB",
        "display": "ambulatory"
      },
      "type": [ {
        "coding": [ {
          "system": "http://www.cms.gov/Medicare/Coding/HCPCSReleaseCodeSets",
          "code": "G0270",
          "display": "Medical nutrition therapy; reassessment and subsequent intervention(s) following second referral in same year for change in diagnosis, medical condition or treatment regimen (including additional hours needed for renal disease), individual, face to face with the patient, each 15 minutes"
        } ]
      } ],
      "subject": {
        "reference": "Patient/5d692a54-a1d5-4a9c-80ba-fb6b20112484"
      },
      "period": {
        "start": "2026-01-01T00:00:00.000+00:00",
        "end": "2026-01-01T00:15:00.000+00:00"
      }
    },
    "request": {
      "method": "PUT",
      "url": "Encounter/16c2f4ef-943c-4773-8599-53887f7f4ffe"
    }
  }, {
    "fullUrl": "https://madie.cms.gov/Condition/9c42181b-4234-4b66-b634-dacdeec2d042",
    "resource": {
      "resourceType": "Condition",
      "id": "9c42181b-4234-4b66-b634-dacdeec2d042",
      "meta": {
        "profile": [ "http://hl7.org/fhir/us/qicore/StructureDefinition/qicore-condition-encounter-diagnosis" ]
      },
      "clinicalStatus": {
        "coding": [ {
          "system": "http://terminology.hl7.org/CodeSystem/condition-clinical",
          "code": "active"
        } ]
      },
      "category": [ {
        "coding": [ {
          "system": "http://terminology.hl7.org/CodeSystem/condition-category",
          "code": "encounter-diagnosis",
          "display": "Encounter Diagnosis"
        } ]
      } ],
      "code": {
        "coding": [ {
          "system": "http://snomed.info/sct",
          "code": "102781000119107",
          "display": "Sensory neuropathy due to type 1 diabetes mellitus (disorder)"
        } ]
      },
      "subject": {
        "reference": "Patient/5d692a54-a1d5-4a9c-80ba-fb6b20112484"
      },
      "onsetDateTime": "2026-01-01T23:59:00.000+00:00"
    },
    "request": {
      "method": "PUT",
      "url": "Condition/9c42181b-4234-4b66-b634-dacdeec2d042"
    }
  }, {
    "fullUrl": "https://madie.cms.gov/MeasureReport/459468b5-2eae-4096-b992-a16da2e75c21",
    "resource": {
      "resourceType": "MeasureReport",
      "id": "459468b5-2eae-4096-b992-a16da2e75c21",
      "meta": {
        "profile": [ "http://hl7.org/fhir/us/cqfmeasures/StructureDefinition/test-case-cqfm" ]
      },
      "contained": [ {
        "resourceType": "Parameters",
        "id": "2a2222a6-c223-4317-8ee8-0aec81bb6510-parameters",
        "parameter": [ {
          "name": "subject",
          "valueString": "5d692a54-a1d5-4a9c-80ba-fb6b20112484"
        } ]
      } ],
      "extension": [ {
        "url": "http://hl7.org/fhir/StructureDefinition/cqf-inputParameters",
        "valueReference": {
          "reference": "#2a2222a6-c223-4317-8ee8-0aec81bb6510-parameters"
        }
      }, {
        "url": "http://hl7.org/fhir/us/cqfmeasures/StructureDefinition/cqfm-testCaseDescription",
        "valueMarkdown": "Encounter is mnt; reassessment/subsequent intervention(s) following 2nd referral in same year for dx change, med condition or treatment regimen (incl. add. hrs needed for renal disease), individual, face to face with the patient, each 15 minutes"
      } ],
      "modifierExtension": [ {
        "url": "http://hl7.org/fhir/us/cqfmeasures/StructureDefinition/cqfm-isTestCase",
        "valueBoolean": true
      } ],
      "status": "complete",
      "type": "individual",
      "measure": "https://madie.cms.gov/Measure/CMS122FHIRDiabetesAssessGT9Pct",
      "period": {
        "start": "2026-01-01",
        "end": "2026-12-31"
      },
      "group": [ {
        "id": "Group_1",
        "population": [ {
          "id": "InitialPopulation_1",
          "code": {
            "coding": [ {
              "system": "http://terminology.hl7.org/CodeSystem/measure-population",
              "code": "initial-population",
              "display": "Initial Population"
            } ]
          },
          "count": 1
        }, {
          "id": "Denominator_1",
          "code": {
            "coding": [ {
              "system": "http://terminology.hl7.org/CodeSystem/measure-population",
              "code": "denominator",
              "display": "Denominator"
            } ]
          },
          "count": 1
        }, {
          "id": "DenominatorExclusion_1",
          "code": {
            "coding": [ {
              "system": "http://terminology.hl7.org/CodeSystem/measure-population",
              "code": "denominator-exclusion",
              "display": "Denominator Exclusion"
            } ]
          },
          "count": 0
        }, {
          "id": "Numerator_1",
          "code": {
            "coding": [ {
              "system": "http://terminology.hl7.org/CodeSystem/measure-population",
              "code": "numerator",
              "display": "Numerator"
            } ]
          },
          "count": 1
        } ],
        "measureScore": {
          "value": 1.0
        }
      } ],
      "evaluatedResource": [ {
        "reference": "Patient/5d692a54-a1d5-4a9c-80ba-fb6b20112484"
      }, {
        "reference": "Encounter/16c2f4ef-943c-4773-8599-53887f7f4ffe"
      }, {
        "reference": "Condition/9c42181b-4234-4b66-b634-dacdeec2d042"
      } ]
    },
    "request": {
      "method": "PUT",
      "url": "MeasureReport/459468b5-2eae-4096-b992-a16da2e75c21"
    }
  } ]
}