{
  "resourceType": "Bundle",
  "id": "64945f79d09ece2c2e9bf904",
  "type": "collection",
  "entry": [ {
    "fullUrl": "https://madie.cms.gov/Patient/89de85c7-996d-40f2-bbdb-2495c659b959",
    "resource": {
      "resourceType": "Patient",
      "id": "89de85c7-996d-40f2-bbdb-2495c659b959",
      "meta": {
        "profile": [ "http://hl7.org/fhir/us/qicore/StructureDefinition/qicore-patient" ]
      },
      "extension": [ {
        "url": "http://hl7.org/fhir/us/core/StructureDefinition/us-core-race",
        "extension": [ {
          "url": "ombCategory",
          "valueCoding": {
            "system": "urn:oid:2.16.840.1.113883.6.238",
            "code": "1002-5",
            "display": "American Indian or Alaska Native",
            "userSelected": true
          }
        }, {
          "url": "text",
          "valueString": "American Indian or Alaska Native"
        } ]
      }, {
        "url": "http://hl7.org/fhir/us/core/StructureDefinition/us-core-ethnicity",
        "extension": [ {
          "url": "ombCategory",
          "valueCoding": {
            "system": "urn:oid:2.16.840.1.113883.6.238",
            "code": "2135-2",
            "display": "Hispanic or Latino",
            "userSelected": true
          }
        }, {
          "url": "text",
          "valueString": "Hispanic or Latino"
        } ]
      } ],
      "identifier": [ {
        "type": {
          "coding": [ {
            "system": "http://terminology.hl7.org/CodeSystem/v2-0203",
            "code": "MR"
          } ]
        },
        "system": "https://bonnie-fhir.healthit.gov/",
        "value": "64945f79d09ece2c2e9bf904"
      } ],
      "name": [ {
        "family": "6NumFail",
        "given": [ "TwoEncLessThan90DaysApart" ]
      } ],
      "gender": "female",
      "birthDate": "1947-01-05"
    }
  }, {
    "fullUrl": "https://madie.cms.gov/Condition/a64d469d-e50e-40d5-888c-7f2559e8774d",
    "resource": {
      "resourceType": "Condition",
      "id": "a64d469d-e50e-40d5-888c-7f2559e8774d",
      "meta": {
        "profile": [ "http://hl7.org/fhir/us/qicore/StructureDefinition/qicore-condition-problems-health-concerns" ]
      },
      "clinicalStatus": {
        "coding": [ {
          "system": "http://terminology.hl7.org/CodeSystem/condition-clinical",
          "code": "active",
          "display": "active",
          "userSelected": true
        } ]
      },
      "category": [ {
        "coding": [ {
          "system": "http://terminology.hl7.org/CodeSystem/condition-category",
          "code": "problem-list-item",
          "display": "Problem List Item"
        } ]
      } ],
      "code": {
        "coding": [ {
          "system": "http://hl7.org/fhir/sid/icd-9-cm",
          "version": "2013",
          "code": "042",
          "display": "Human immunodeficiency virus [HIV] disease",
          "userSelected": true
        }, {
          "system": "http://snomed.info/sct",
          "version": "http://snomed.info/sct/731000124108/version/20250301",
          "code": "165816005",
          "userSelected": true
        } ]
      },
      "subject": {
        "reference": "Patient/89de85c7-996d-40f2-bbdb-2495c659b959"
      },
      "onsetDateTime": "2023-01-08T08:00:00.000+00:00",
      "recordedDate": "2023-01-08T08:00:00.000+00:00"
    }
  }, {
    "fullUrl": "https://madie.cms.gov/Encounter/312ad514-9482-4a91-b84f-307d0cd7347b",
    "resource": {
      "resourceType": "Encounter",
      "id": "312ad514-9482-4a91-b84f-307d0cd7347b",
      "meta": {
        "profile": [ "http://hl7.org/fhir/us/qicore/StructureDefinition/qicore-encounter" ]
      },
      "status": "finished",
      "class": {
        "system": "http://terminology.hl7.org/CodeSystem/v3-ActCode",
        "code": "AMB",
        "display": "ambulatory"
      },
      "type": [ {
        "coding": [ {
          "system": "http://www.ama-assn.org/go/cpt",
          "version": "2023",
          "code": "99395",
          "display": "Periodic comprehensive preventive medicine reevaluation and management of an individual including an age and gender appropriate history, examination, counseling/anticipatory guidance/risk factor reduction interventions, and the ordering of laboratory/diagnostic procedures, established patient; 18-39 years",
          "userSelected": true
        } ]
      } ],
      "subject": {
        "reference": "Patient/89de85c7-996d-40f2-bbdb-2495c659b959"
      },
      "period": {
        "start": "2026-02-01T08:00:00.000+00:00",
        "end": "2026-02-01T08:15:00.000+00:00"
      }
    }
  }, {
    "fullUrl": "https://madie.cms.gov/Encounter/f40a3fc4-05ac-4cef-a92b-e5376b839092",
    "resource": {
      "resourceType": "Encounter",
      "id": "f40a3fc4-05ac-4cef-a92b-e5376b839092",
      "meta": {
        "profile": [ "http://hl7.org/fhir/us/qicore/StructureDefinition/qicore-encounter" ]
      },
      "status": "finished",
      "class": {
        "system": "http://terminology.hl7.org/CodeSystem/v3-ActCode",
        "code": "AMB",
        "display": "ambulatory"
      },
      "type": [ {
        "coding": [ {
          "system": "http://snomed.info/sct",
          "version": "2022-09",
          "code": "439708006",
          "display": "Home visit (procedure)",
          "userSelected": true
        } ]
      } ],
      "subject": {
        "reference": "Patient/89de85c7-996d-40f2-bbdb-2495c659b959"
      },
      "period": {
        "start": "2026-04-01T08:00:00.000+00:00",
        "end": "2026-04-01T08:35:00.000+00:00"
      }
    }
  }, {
    "fullUrl": "https://madie.cms.gov/Coverage/4d31e2cd-6d51-4545-a2ce-4bf2da428d08",
    "resource": {
      "resourceType": "Coverage",
      "id": "4d31e2cd-6d51-4545-a2ce-4bf2da428d08",
      "meta": {
        "profile": [ "http://hl7.org/fhir/us/qicore/StructureDefinition/qicore-coverage" ]
      },
      "status": "active",
      "subscriberId": "123456",
      "beneficiary": {
        "reference": "Patient/89de85c7-996d-40f2-bbdb-2495c659b959"
      },
      "relationship": {
        "coding": [ {
          "system": "http://terminology.hl7.org/CodeSystem/subscriber-relationship",
          "code": "self",
          "display": "Self"
        } ]
      },
      "payor": [ {
        "reference": "Organization/0ce1ac57-0e1f-4af3-a4cf-cabf872215fb"
      } ]
    }
  }, {
    "fullUrl": "https://madie.cms.gov/Organization/0ce1ac57-0e1f-4af3-a4cf-cabf872215fb",
    "resource": {
      "resourceType": "Organization",
      "id": "0ce1ac57-0e1f-4af3-a4cf-cabf872215fb",
      "meta": {
        "profile": [ "http://hl7.org/fhir/us/qicore/StructureDefinition/qicore-organization" ]
      },
      "identifier": [ {
        "use": "temp",
        "system": "urn:oid:2.16.840.1.113883.4.4",
        "value": "21-3259825"
      } ],
      "active": true,
      "type": [ {
        "coding": [ {
          "system": "http://terminology.hl7.org/CodeSystem/organization-type",
          "code": "pay",
          "display": "Payer"
        } ]
      } ],
      "name": "Blue Cross Blue Shield of Texas",
      "telecom": [ {
        "system": "phone",
        "value": "(+1) 972-766-6900"
      } ],
      "address": [ {
        "use": "billing",
        "type": "postal",
        "line": [ "P.O. Box 660044" ],
        "city": "Dallas",
        "state": "TX",
        "postalCode": "75266-0044",
        "country": "USA"
      } ]
    }
  }, {
    "fullUrl": "https://madie.cms.gov/Practitioner/8fb8b2d6-b281-43da-8311-2829d0e8dc41",
    "resource": {
      "resourceType": "Practitioner",
      "id": "8fb8b2d6-b281-43da-8311-2829d0e8dc41",
      "meta": {
        "profile": [ "http://hl7.org/fhir/us/qicore/StructureDefinition/qicore-practitioner" ]
      },
      "identifier": [ {
        "system": "http://hl7.org/fhir/sid/us-npi",
        "value": "1689411712"
      } ],
      "name": [ {
        "family": "Evil",
        "prefix": [ "Dr" ]
      } ]
    }
  }, {
    "fullUrl": "https://madie.cms.gov/MeasureReport/c2343551-2e08-428d-bdf9-3c399f3ffba4",
    "resource": {
      "resourceType": "MeasureReport",
      "id": "c2343551-2e08-428d-bdf9-3c399f3ffba4",
      "meta": {
        "profile": [ "http://hl7.org/fhir/us/cqfmeasures/StructureDefinition/test-case-cqfm" ]
      },
      "contained": [ {
        "resourceType": "Parameters",
        "id": "e1c9fd13-2cc7-4d97-b519-46b4e55ea872-parameters",
        "parameter": [ {
          "name": "subject",
          "valueString": "89de85c7-996d-40f2-bbdb-2495c659b959"
        } ]
      } ],
      "extension": [ {
        "url": "http://hl7.org/fhir/StructureDefinition/cqf-inputParameters",
        "valueReference": {
          "reference": "#e1c9fd13-2cc7-4d97-b519-46b4e55ea872-parameters"
        }
      }, {
        "url": "http://hl7.org/fhir/us/cqfmeasures/StructureDefinition/cqfm-testCaseDescription",
        "valueMarkdown": "The patient has two encounters in less than 60 days. Expect numerator to fail."
      } ],
      "modifierExtension": [ {
        "url": "http://hl7.org/fhir/us/cqfmeasures/StructureDefinition/cqfm-isTestCase",
        "valueBoolean": true
      } ],
      "status": "complete",
      "type": "individual",
      "measure": "https://madie.cms.gov/Measure/CMS1157FHIRHIVRetention",
      "period": {
        "start": "2026-01-01",
        "end": "2026-12-31"
      },
      "group": [ {
        "id": "Group_1",
        "population": [ {
          "id": "InitialPopulation_1",
          "code": {
            "coding": [ {
              "system": "http://terminology.hl7.org/CodeSystem/measure-population",
              "code": "initial-population",
              "display": "Initial Population"
            } ]
          },
          "count": 1
        }, {
          "id": "Denominator_1",
          "code": {
            "coding": [ {
              "system": "http://terminology.hl7.org/CodeSystem/measure-population",
              "code": "denominator",
              "display": "Denominator"
            } ]
          },
          "count": 1
        }, {
          "id": "Numerator_1",
          "code": {
            "coding": [ {
              "system": "http://terminology.hl7.org/CodeSystem/measure-population",
              "code": "numerator",
              "display": "Numerator"
            } ]
          },
          "count": 0
        } ],
        "measureScore": {
          "value": 1.0
        }
      } ],
      "evaluatedResource": [ {
        "reference": "Patient/89de85c7-996d-40f2-bbdb-2495c659b959"
      }, {
        "reference": "Condition/a64d469d-e50e-40d5-888c-7f2559e8774d"
      }, {
        "reference": "Encounter/312ad514-9482-4a91-b84f-307d0cd7347b"
      }, {
        "reference": "Encounter/f40a3fc4-05ac-4cef-a92b-e5376b839092"
      }, {
        "reference": "Coverage/4d31e2cd-6d51-4545-a2ce-4bf2da428d08"
      }, {
        "reference": "Organization/0ce1ac57-0e1f-4af3-a4cf-cabf872215fb"
      }, {
        "reference": "Practitioner/8fb8b2d6-b281-43da-8311-2829d0e8dc41"
      } ]
    }
  } ]
}