{
  "resourceType": "Bundle",
  "id": "tests-f2e41ef7-1aa1-4ea0-8541-be476f3cb661-bundle",
  "type": "transaction",
  "entry": [ {
    "fullUrl": "https://madie.cms.gov/Patient/f2e41ef7-1aa1-4ea0-8541-be476f3cb661",
    "resource": {
      "resourceType": "Patient",
      "id": "f2e41ef7-1aa1-4ea0-8541-be476f3cb661",
      "meta": {
        "profile": [ "http://hl7.org/fhir/us/qicore/StructureDefinition/qicore-patient" ]
      },
      "extension": [ {
        "url": "http://hl7.org/fhir/us/core/StructureDefinition/us-core-race",
        "extension": [ {
          "url": "ombCategory",
          "valueCoding": {
            "system": "urn:oid:2.16.840.1.113883.6.238",
            "code": "2054-5",
            "display": "Black or African American",
            "userSelected": true
          }
        }, {
          "url": "text",
          "valueString": "Black or African American"
        } ]
      }, {
        "url": "http://hl7.org/fhir/us/core/StructureDefinition/us-core-ethnicity",
        "extension": [ {
          "url": "ombCategory",
          "valueCoding": {
            "system": "urn:oid:2.16.840.1.113883.6.238",
            "code": "2186-5",
            "display": "Not Hispanic or Latino",
            "userSelected": true
          }
        }, {
          "url": "text",
          "valueString": "Not Hispanic or Latino"
        } ]
      } ],
      "identifier": [ {
        "type": {
          "coding": [ {
            "system": "http://terminology.hl7.org/CodeSystem/v2-0203",
            "code": "MR"
          } ]
        },
        "system": "https://bonnie-fhir.healthit.gov/",
        "value": "61152a3b98086b7a79cbd7c1"
      } ],
      "active": true,
      "name": [ {
        "use": "usual",
        "family": "NUMERPass",
        "given": [ "Num4MVGT48HrsORProcAt48Hrs" ]
      } ],
      "gender": "female",
      "birthDate": "1966-07-12"
    },
    "request": {
      "method": "PUT",
      "url": "Patient/f2e41ef7-1aa1-4ea0-8541-be476f3cb661"
    }
  }, {
    "fullUrl": "https://madie.cms.gov/Procedure/a7b4353a-16d9-400e-a3ed-61c6528843b3",
    "resource": {
      "resourceType": "Procedure",
      "id": "a7b4353a-16d9-400e-a3ed-61c6528843b3",
      "meta": {
        "profile": [ "http://hl7.org/fhir/us/qicore/StructureDefinition/qicore-procedure" ]
      },
      "extension": [ {
        "url": "http://hl7.org/fhir/us/qicore/StructureDefinition/qicore-recorded",
        "valueDateTime": "2026-04-11T08:10:00.000+00:00"
      } ],
      "status": "completed",
      "category": {
        "coding": [ {
          "system": "http://snomed.info/sct",
          "code": "18286008",
          "display": "General or neuraxial anesthesia"
        } ]
      },
      "code": {
        "coding": [ {
          "system": "http://snomed.info/sct",
          "code": "112943005",
          "display": "Epidural injection of anesthetic substance, diagnostic, caudal, continuous"
        } ]
      },
      "subject": {
        "reference": "Patient/f2e41ef7-1aa1-4ea0-8541-be476f3cb661"
      },
      "performedPeriod": {
        "start": "2026-04-11T08:00:00.000+00:00",
        "end": "2026-04-11T10:15:00.000+00:00"
      }
    },
    "request": {
      "method": "PUT",
      "url": "Procedure/a7b4353a-16d9-400e-a3ed-61c6528843b3"
    }
  }, {
    "fullUrl": "https://madie.cms.gov/Encounter/8ab3d4ff-7152-490b-a212-60a9c1c3a339",
    "resource": {
      "resourceType": "Encounter",
      "id": "8ab3d4ff-7152-490b-a212-60a9c1c3a339",
      "meta": {
        "profile": [ "http://hl7.org/fhir/us/qicore/StructureDefinition/qicore-encounter" ]
      },
      "status": "finished",
      "class": {
        "system": "http://terminology.hl7.org/CodeSystem/v3-ActCode",
        "code": "IMP",
        "display": "inpatient encounter"
      },
      "type": [ {
        "coding": [ {
          "system": "http://snomed.info/sct",
          "code": "112689000",
          "display": "Hospital admission, elective, with complete pre-admission work-up"
        } ],
        "text": "Hospital admission, elective, with complete pre-admission work-up"
      } ],
      "priority": {
        "coding": [ {
          "system": "http://snomed.info/sct",
          "code": "103390000"
        } ]
      },
      "subject": {
        "reference": "Patient/f2e41ef7-1aa1-4ea0-8541-be476f3cb661"
      },
      "period": {
        "start": "2026-04-10T08:00:00.000+00:00",
        "end": "2026-04-14T08:15:00.000+00:00"
      }
    },
    "request": {
      "method": "PUT",
      "url": "Encounter/8ab3d4ff-7152-490b-a212-60a9c1c3a339"
    }
  }, {
    "fullUrl": "https://madie.cms.gov/MeasureReport/dee11e77-e2fd-4ba0-9557-eaf128dc278f",
    "resource": {
      "resourceType": "MeasureReport",
      "id": "dee11e77-e2fd-4ba0-9557-eaf128dc278f",
      "meta": {
        "profile": [ "http://hl7.org/fhir/us/cqfmeasures/StructureDefinition/test-case-cqfm" ]
      },
      "contained": [ {
        "resourceType": "Parameters",
        "id": "342051a7-5145-4e23-96b1-e03affa70307-parameters",
        "parameter": [ {
          "name": "subject",
          "valueString": "f2e41ef7-1aa1-4ea0-8541-be476f3cb661"
        } ]
      } ],
      "extension": [ {
        "url": "http://hl7.org/fhir/us/cqfmeasures/StructureDefinition/cqfm-inputParameters",
        "valueReference": {
          "reference": "#342051a7-5145-4e23-96b1-e03affa70307-parameters"
        }
      }, {
        "url": "http://hl7.org/fhir/us/cqfmeasures/StructureDefinition/cqfm-testCaseDescription",
        "valueMarkdown": "Elective hospitalization with procedure (general anesthesia) within first 3 days of encounter. Mech ventilation starts exactly 48 hrs+1 minute after end of OR proc. Edge case, meets Numerator 4."
      } ],
      "modifierExtension": [ {
        "url": "http://hl7.org/fhir/us/cqfmeasures/StructureDefinition/cqfm-isTestCase",
        "valueBoolean": true
      } ],
      "status": "complete",
      "type": "individual",
      "measure": "https://madie.cms.gov/Measure/CMS1218HHRFFHIR",
      "period": {
        "start": "2026-01-01",
        "end": "2026-12-31"
      },
      "group": [ {
        "id": "67520e47670f1c0879cef598",
        "population": [ {
          "id": "EBD61368-EDA1-4A7F-B134-48A501C47028",
          "code": {
            "coding": [ {
              "system": "http://terminology.hl7.org/CodeSystem/measure-population",
              "code": "initial-population",
              "display": "Initial Population"
            } ]
          },
          "count": 1
        }, {
          "id": "A15EB430-6645-42AC-8FCE-0FF0BF0B4749",
          "code": {
            "coding": [ {
              "system": "http://terminology.hl7.org/CodeSystem/measure-population",
              "code": "denominator",
              "display": "Denominator"
            } ]
          },
          "count": 1
        }, {
          "id": "1389AFF6-741D-47CB-BED0-62D858980EE4",
          "code": {
            "coding": [ {
              "system": "http://terminology.hl7.org/CodeSystem/measure-population",
              "code": "denominator-exclusion",
              "display": "Denominator Exclusion"
            } ]
          },
          "count": 0
        }, {
          "id": "F1D273B8-1513-4C6E-B65F-22FD939174E6",
          "code": {
            "coding": [ {
              "system": "http://terminology.hl7.org/CodeSystem/measure-population",
              "code": "numerator",
              "display": "Numerator"
            } ]
          },
          "count": 1
        } ],
        "measureScore": {
          "value": 0.0
        }
      } ],
      "evaluatedResource": [ {
        "reference": "Encounter/8ab3d4ff-7152-490b-a212-60a9c1c3a339"
      }, {
        "reference": "Patient/f2e41ef7-1aa1-4ea0-8541-be476f3cb661"
      }, {
        "reference": "Procedure/a7b4353a-16d9-400e-a3ed-61c6528843b3"
      }, {
        "reference": "Procedure/b53d400a-1ae1-4afa-9f72-e48f86646cd1"
      } ]
    },
    "request": {
      "method": "PUT",
      "url": "MeasureReport/dee11e77-e2fd-4ba0-9557-eaf128dc278f"
    }
  }, {
    "fullUrl": "https://madie.cms.gov/Procedure/b53d400a-1ae1-4afa-9f72-e48f86646cd1",
    "resource": {
      "resourceType": "Procedure",
      "id": "b53d400a-1ae1-4afa-9f72-e48f86646cd1",
      "meta": {
        "profile": [ "http://hl7.org/fhir/us/qicore/StructureDefinition/qicore-procedure" ]
      },
      "extension": [ {
        "url": "http://hl7.org/fhir/us/qicore/StructureDefinition/qicore-recorded",
        "valueDateTime": "2026-04-13T10:20:30.000+00:00"
      } ],
      "status": "completed",
      "code": {
        "coding": [ {
          "system": "http://snomed.info/sct",
          "code": "243141005",
          "display": "Mechanically assisted spontaneous ventilation"
        } ],
        "text": "Mechanically assisted spontaneous ventilation"
      },
      "subject": {
        "reference": "Patient/f2e41ef7-1aa1-4ea0-8541-be476f3cb661"
      },
      "performedDateTime": "2026-04-13T10:16:00.000+00:00"
    },
    "request": {
      "method": "PUT",
      "url": "Procedure/b53d400a-1ae1-4afa-9f72-e48f86646cd1"
    }
  }, {
    "fullUrl": "https://madie.cms.gov/MeasureReport/46a40e8b-0bf4-49a8-b351-c99f12b64060",
    "resource": {
      "resourceType": "MeasureReport",
      "id": "46a40e8b-0bf4-49a8-b351-c99f12b64060",
      "meta": {
        "profile": [ "http://hl7.org/fhir/us/cqfmeasures/StructureDefinition/test-case-cqfm" ]
      },
      "contained": [ {
        "resourceType": "Parameters",
        "id": "2d5f50c6-a01d-4021-9111-99b1856b3488-parameters",
        "parameter": [ {
          "name": "subject",
          "valueString": "f2e41ef7-1aa1-4ea0-8541-be476f3cb661"
        } ]
      } ],
      "extension": [ {
        "url": "http://hl7.org/fhir/StructureDefinition/cqf-inputParameters",
        "valueReference": {
          "reference": "#2d5f50c6-a01d-4021-9111-99b1856b3488-parameters"
        }
      }, {
        "url": "http://hl7.org/fhir/us/cqfmeasures/StructureDefinition/cqfm-testCaseDescription",
        "valueMarkdown": "Elective hospitalization with procedure (general anesthesia) within first 3 days of encounter. Mech ventilation starts exactly 48 hrs+1 minute after end of OR proc. Edge case, meets Numerator 4. "
      } ],
      "modifierExtension": [ {
        "url": "http://hl7.org/fhir/us/cqfmeasures/StructureDefinition/cqfm-isTestCase",
        "valueBoolean": true
      } ],
      "status": "complete",
      "type": "individual",
      "measure": "https://madie.cms.gov/Measure/CMS1218FHIRHHRF",
      "period": {
        "start": "2026-01-01",
        "end": "2026-12-31"
      },
      "group": [ {
        "id": "Group_1",
        "population": [ {
          "id": "InitialPopulation_1",
          "code": {
            "coding": [ {
              "system": "http://terminology.hl7.org/CodeSystem/measure-population",
              "code": "initial-population",
              "display": "Initial Population"
            } ]
          },
          "count": 1
        }, {
          "id": "Denominator_1",
          "code": {
            "coding": [ {
              "system": "http://terminology.hl7.org/CodeSystem/measure-population",
              "code": "denominator",
              "display": "Denominator"
            } ]
          },
          "count": 1
        }, {
          "id": "DenominatorExclusion_1",
          "code": {
            "coding": [ {
              "system": "http://terminology.hl7.org/CodeSystem/measure-population",
              "code": "denominator-exclusion",
              "display": "Denominator Exclusion"
            } ]
          },
          "count": 0
        }, {
          "id": "Numerator_1",
          "code": {
            "coding": [ {
              "system": "http://terminology.hl7.org/CodeSystem/measure-population",
              "code": "numerator",
              "display": "Numerator"
            } ]
          },
          "count": 1
        } ],
        "measureScore": {
          "value": 0.0
        }
      } ],
      "evaluatedResource": [ {
        "reference": "Patient/f2e41ef7-1aa1-4ea0-8541-be476f3cb661"
      }, {
        "reference": "Procedure/a7b4353a-16d9-400e-a3ed-61c6528843b3"
      }, {
        "reference": "Encounter/8ab3d4ff-7152-490b-a212-60a9c1c3a339"
      }, {
        "reference": "MeasureReport/dee11e77-e2fd-4ba0-9557-eaf128dc278f"
      }, {
        "reference": "Procedure/b53d400a-1ae1-4afa-9f72-e48f86646cd1"
      } ]
    },
    "request": {
      "method": "PUT",
      "url": "MeasureReport/46a40e8b-0bf4-49a8-b351-c99f12b64060"
    }
  } ]
}