{
  "resourceType": "Bundle",
  "id": "tests-NumerPass-RVwithAntihypertensivePlanAtAdmission-bundle",
  "type": "transaction",
  "entry": [ {
    "fullUrl": "https://madie.cms.gov/Encounter/0fe6f711-1341-4c0f-8d9e-1f62367a37d3",
    "resource": {
      "resourceType": "Encounter",
      "id": "0fe6f711-1341-4c0f-8d9e-1f62367a37d3",
      "meta": {
        "profile": [ "http://hl7.org/fhir/us/qicore/StructureDefinition/qicore-encounter" ]
      },
      "status": "finished",
      "class": {
        "system": "http://terminology.hl7.org/CodeSystem/v3-ActCode",
        "code": "IMP",
        "display": "inpatient encounter"
      },
      "type": [ {
        "coding": [ {
          "system": "http://snomed.info/sct",
          "code": "183452005",
          "display": "Emergency hospital admission"
        } ]
      } ],
      "subject": {
        "reference": "Patient/55b18e1a-c949-4d85-b1c5-caa91fc6ac4b"
      },
      "period": {
        "start": "2026-10-19T08:30:00.000+00:00",
        "end": "2026-10-21T08:15:00.000+00:00"
      },
      "reasonCode": [ {
        "coding": [ {
          "system": "http://snomed.info/sct",
          "code": "14047009"
        } ]
      }, {
        "coding": [ {
          "system": "http://snomed.info/sct",
          "code": "64859006"
        } ]
      } ]
    },
    "request": {
      "method": "PUT",
      "url": "Encounter/0fe6f711-1341-4c0f-8d9e-1f62367a37d3"
    }
  }, {
    "fullUrl": "https://madie.cms.gov/Encounter/f16e5955-af48-4fe9-8dba-41529cb8c783",
    "resource": {
      "resourceType": "Encounter",
      "id": "f16e5955-af48-4fe9-8dba-41529cb8c783",
      "meta": {
        "profile": [ "http://hl7.org/fhir/us/qicore/StructureDefinition/qicore-encounter" ]
      },
      "status": "finished",
      "class": {
        "system": "http://terminology.hl7.org/CodeSystem/v3-ActCode",
        "code": "EMER",
        "display": "emergency encounter"
      },
      "type": [ {
        "coding": [ {
          "system": "http://snomed.info/sct",
          "code": "4525004",
          "display": "Emergency department patient visit (procedure)"
        } ]
      } ],
      "subject": {
        "reference": "Patient/55b18e1a-c949-4d85-b1c5-caa91fc6ac4b"
      },
      "period": {
        "start": "2026-10-18T09:15:00.000+00:00",
        "end": "2026-10-19T08:15:00.000+00:00"
      }
    },
    "request": {
      "method": "PUT",
      "url": "Encounter/f16e5955-af48-4fe9-8dba-41529cb8c783"
    }
  }, {
    "fullUrl": "https://madie.cms.gov/Patient/55b18e1a-c949-4d85-b1c5-caa91fc6ac4b",
    "resource": {
      "resourceType": "Patient",
      "id": "55b18e1a-c949-4d85-b1c5-caa91fc6ac4b",
      "meta": {
        "profile": [ "http://hl7.org/fhir/us/qicore/StructureDefinition/qicore-patient" ]
      },
      "extension": [ {
        "url": "http://hl7.org/fhir/us/core/StructureDefinition/us-core-race",
        "extension": [ {
          "url": "ombCategory",
          "valueCoding": {
            "system": "urn:oid:2.16.840.1.113883.6.238",
            "code": "2106-3",
            "display": "White"
          }
        }, {
          "url": "text",
          "valueString": "White"
        } ]
      }, {
        "url": "http://hl7.org/fhir/us/core/StructureDefinition/us-core-ethnicity",
        "extension": [ {
          "url": "ombCategory",
          "valueCoding": {
            "system": "urn:oid:2.16.840.1.113883.6.238",
            "code": "2135-2",
            "display": "Hispanic or Latino"
          }
        }, {
          "url": "text",
          "valueString": "Hispanic or Latino"
        } ]
      }, {
        "url": "http://hl7.org/fhir/us/core/StructureDefinition/us-core-sex",
        "valueCode": "248153007"
      } ],
      "identifier": [ {
        "system": "http://hospital.smarthealthit.org",
        "value": "999999999"
      } ],
      "name": [ {
        "family": "Example",
        "given": [ "Patient" ]
      } ],
      "gender": "female",
      "birthDate": "1956-01-01"
    },
    "request": {
      "method": "PUT",
      "url": "Patient/55b18e1a-c949-4d85-b1c5-caa91fc6ac4b"
    }
  }, {
    "fullUrl": "https://madie.cms.gov/Claim/53593e90-1540-40c2-b8b3-aefb8709eeaf",
    "resource": {
      "resourceType": "Claim",
      "id": "53593e90-1540-40c2-b8b3-aefb8709eeaf",
      "meta": {
        "profile": [ "http://hl7.org/fhir/us/qicore/StructureDefinition/qicore-claim" ]
      },
      "status": "active",
      "type": {
        "coding": [ {
          "system": "http://terminology.hl7.org/CodeSystem/claim-type",
          "code": "institutional",
          "display": "Institutional"
        } ]
      },
      "use": "claim",
      "patient": {
        "reference": "Patient/55b18e1a-c949-4d85-b1c5-caa91fc6ac4b"
      },
      "created": "2026-10-22",
      "provider": {
        "reference": "Practitioner/practitioner-1"
      },
      "priority": {
        "coding": [ {
          "system": "http://terminology.hl7.org/CodeSystem/processpriority",
          "code": "normal"
        } ]
      },
      "diagnosis": [ {
        "sequence": 1,
        "diagnosisCodeableConcept": {
          "coding": [ {
            "system": "http://snomed.info/sct",
            "code": "14047009"
          } ]
        }
      } ],
      "insurance": [ {
        "sequence": 1,
        "focal": true,
        "coverage": {
          "reference": "Coverage/coverage-1"
        }
      } ],
      "item": [ {
        "sequence": 1,
        "diagnosisSequence": [ 1, 2 ],
        "productOrService": {
          "coding": [ {
            "system": "http://terminology.hl7.org/CodeSystem/ex-USCLS",
            "code": "1101"
          } ]
        },
        "encounter": [ {
          "reference": "Encounter/0fe6f711-1341-4c0f-8d9e-1f62367a37d3"
        } ]
      } ]
    },
    "request": {
      "method": "PUT",
      "url": "Claim/53593e90-1540-40c2-b8b3-aefb8709eeaf"
    }
  }, {
    "fullUrl": "https://madie.cms.gov/Claim/a7945580-136e-4808-87bc-f1992ac7439b",
    "resource": {
      "resourceType": "Claim",
      "id": "a7945580-136e-4808-87bc-f1992ac7439b",
      "meta": {
        "profile": [ "http://hl7.org/fhir/us/qicore/StructureDefinition/qicore-claim" ]
      },
      "status": "active",
      "type": {
        "coding": [ {
          "system": "http://terminology.hl7.org/CodeSystem/claim-type",
          "code": "institutional",
          "display": "Institutional"
        } ]
      },
      "use": "claim",
      "patient": {
        "reference": "Patient/55b18e1a-c949-4d85-b1c5-caa91fc6ac4b"
      },
      "created": "2026-11-01",
      "provider": {
        "reference": "Practitioner/practitioner-1"
      },
      "priority": {
        "coding": [ {
          "system": "http://terminology.hl7.org/CodeSystem/processpriority",
          "code": "normal"
        } ]
      },
      "diagnosis": [ {
        "sequence": 1,
        "diagnosisCodeableConcept": {
          "coding": [ {
            "system": "http://hl7.org/fhir/sid/icd-10-cm",
            "code": "M80.00XA",
            "display": "Age-related osteoporosis with current pathological fracture, unspecified site, initial encounter for fracture"
          } ]
        }
      } ],
      "insurance": [ {
        "sequence": 1,
        "focal": true,
        "coverage": {
          "reference": "Coverage/coverage-1"
        }
      } ],
      "item": [ {
        "sequence": 1,
        "diagnosisSequence": [ 1, 2 ],
        "productOrService": {
          "coding": [ {
            "system": "http://terminology.hl7.org/CodeSystem/ex-USCLS",
            "code": "1101"
          } ]
        },
        "encounter": [ {
          "reference": "Encounter/0fe6f711-1341-4c0f-8d9e-1f62367a37d3"
        } ]
      } ]
    },
    "request": {
      "method": "PUT",
      "url": "Claim/a7945580-136e-4808-87bc-f1992ac7439b"
    }
  }, {
    "fullUrl": "https://madie.cms.gov/MedicationRequest/f9a4069e-aa49-4656-8b17-9dd97d5f072b",
    "resource": {
      "resourceType": "MedicationRequest",
      "id": "f9a4069e-aa49-4656-8b17-9dd97d5f072b",
      "meta": {
        "profile": [ "http://hl7.org/fhir/us/qicore/StructureDefinition/qicore-medicationrequest" ]
      },
      "status": "active",
      "intent": "plan",
      "category": [ {
        "coding": [ {
          "system": "http://terminology.hl7.org/CodeSystem/medicationrequest-category",
          "code": "community",
          "display": "Community"
        } ]
      } ],
      "reportedReference": {
        "reference": "Patient/55b18e1a-c949-4d85-b1c5-caa91fc6ac4b"
      },
      "medicationCodeableConcept": {
        "coding": [ {
          "system": "http://www.nlm.nih.gov/research/umls/rxnorm",
          "code": "1000001"
        } ]
      },
      "subject": {
        "reference": "Patient/55b18e1a-c949-4d85-b1c5-caa91fc6ac4b"
      },
      "authoredOn": "2026-10-15",
      "requester": {
        "reference": "Practitioner/a2c6010b-fb40-48eb-acfb-5b4ad6247a9a"
      },
      "dispenseRequest": {
        "quantity": {
          "value": 14,
          "unit": "tablet",
          "system": "http://unitsofmeasure.org",
          "code": "{tablet}"
        },
        "expectedSupplyDuration": {
          "value": 14,
          "unit": "days",
          "system": "http://unitsofmeasure.org",
          "code": "d"
        }
      }
    },
    "request": {
      "method": "PUT",
      "url": "MedicationRequest/f9a4069e-aa49-4656-8b17-9dd97d5f072b"
    }
  }, {
    "fullUrl": "https://madie.cms.gov/Practitioner/a2c6010b-fb40-48eb-acfb-5b4ad6247a9a",
    "resource": {
      "resourceType": "Practitioner",
      "id": "a2c6010b-fb40-48eb-acfb-5b4ad6247a9a",
      "identifier": [ {
        "system": "http://www.cms.gov/identifiers/pracitioners",
        "value": "P12345"
      } ],
      "name": [ {
        "use": "official",
        "family": "Smith",
        "given": [ "John" ]
      } ],
      "qualification": [ {
        "identifier": [ {
          "system": "http://hl7.org/fhir/sid/us-npi",
          "value": "1234567890"
        } ],
        "code": {
          "coding": [ {
            "system": "http://terminology.hl7.org/CodeSystem/v2-0203",
            "code": "MD",
            "display": "Medical License number"
          } ]
        }
      } ]
    },
    "request": {
      "method": "PUT",
      "url": "Practitioner/a2c6010b-fb40-48eb-acfb-5b4ad6247a9a"
    }
  }, {
    "fullUrl": "https://madie.cms.gov/Coverage/2e2c49aa-d6fc-4ce5-8c87-6fd4f3c14413",
    "resource": {
      "resourceType": "Coverage",
      "id": "2e2c49aa-d6fc-4ce5-8c87-6fd4f3c14413",
      "status": "active",
      "beneficiary": {
        "reference": "Patient/55b18e1a-c949-4d85-b1c5-caa91fc6ac4b"
      },
      "payor": [ {
        "reference": "Organization/05fb05b1-0183-4d64-a0ee-477adfe12d21"
      } ]
    },
    "request": {
      "method": "PUT",
      "url": "Coverage/2e2c49aa-d6fc-4ce5-8c87-6fd4f3c14413"
    }
  }, {
    "fullUrl": "https://madie.cms.gov/Organization/05fb05b1-0183-4d64-a0ee-477adfe12d21",
    "resource": {
      "resourceType": "Organization",
      "id": "05fb05b1-0183-4d64-a0ee-477adfe12d21",
      "identifier": [ {
        "system": "http://cms.gov/insurance-ids",
        "value": "AET12345"
      } ],
      "type": [ {
        "coding": [ {
          "system": "http://terminology.hl7.org/CodeSystem/organization-type",
          "code": "prov",
          "display": "Healthcare Provider"
        } ]
      } ],
      "name": "Aetna Insurance",
      "telecom": [ {
        "system": "phone",
        "value": "+1-800-123-4567"
      } ],
      "address": [ {
        "line": [ "123 Main Street" ],
        "city": "Cityville",
        "state": "CA",
        "postalCode": "12345",
        "country": "USA"
      } ]
    },
    "request": {
      "method": "PUT",
      "url": "Organization/05fb05b1-0183-4d64-a0ee-477adfe12d21"
    }
  }, {
    "fullUrl": "https://madie.cms.gov/MeasureReport/a02d7a51-5000-46ce-992a-344f91edf5d0",
    "resource": {
      "resourceType": "MeasureReport",
      "id": "a02d7a51-5000-46ce-992a-344f91edf5d0",
      "meta": {
        "profile": [ "http://hl7.org/fhir/us/cqfmeasures/StructureDefinition/test-case-cqfm" ]
      },
      "contained": [ {
        "resourceType": "Parameters",
        "id": "23ab804f-0f39-46be-b080-b822838e97d7-parameters",
        "parameter": [ {
          "name": "subject",
          "valueString": "55b18e1a-c949-4d85-b1c5-caa91fc6ac4b"
        } ]
      } ],
      "extension": [ {
        "url": "http://hl7.org/fhir/StructureDefinition/cqf-inputParameters",
        "valueReference": {
          "reference": "#23ab804f-0f39-46be-b080-b822838e97d7-parameters"
        }
      }, {
        "url": "http://hl7.org/fhir/us/cqfmeasures/StructureDefinition/cqfm-testCaseDescription",
        "valueMarkdown": "RVariable Encounter With Antihypertensive Plan At Admission"
      } ],
      "modifierExtension": [ {
        "url": "http://hl7.org/fhir/us/cqfmeasures/StructureDefinition/cqfm-isTestCase",
        "valueBoolean": true
      } ],
      "status": "complete",
      "type": "individual",
      "measure": "https://madie.cms.gov/Measure/CMS1017FHIRHHFI",
      "period": {
        "start": "2026-01-01",
        "end": "2026-12-31"
      },
      "group": [ {
        "id": "Group_1",
        "population": [ {
          "id": "InitialPopulation_1",
          "code": {
            "coding": [ {
              "system": "http://terminology.hl7.org/CodeSystem/measure-population",
              "code": "initial-population",
              "display": "Initial Population"
            } ]
          },
          "count": 1
        }, {
          "id": "Denominator_1",
          "code": {
            "coding": [ {
              "system": "http://terminology.hl7.org/CodeSystem/measure-population",
              "code": "denominator",
              "display": "Denominator"
            } ]
          },
          "count": 1
        }, {
          "id": "DenominatorExclusion_1",
          "code": {
            "coding": [ {
              "system": "http://terminology.hl7.org/CodeSystem/measure-population",
              "code": "denominator-exclusion",
              "display": "Denominator Exclusion"
            } ]
          },
          "count": 0
        }, {
          "id": "Numerator_1",
          "code": {
            "coding": [ {
              "system": "http://terminology.hl7.org/CodeSystem/measure-population",
              "code": "numerator",
              "display": "Numerator"
            } ]
          },
          "count": 1
        }, {
          "id": "NumeratorExclusion_1",
          "code": {
            "coding": [ {
              "system": "http://terminology.hl7.org/CodeSystem/measure-population",
              "code": "numerator-exclusion",
              "display": "Numerator Exclusion"
            } ]
          },
          "count": 0
        }, {
          "id": "MeasureObservation_1_1_1",
          "code": {
            "coding": [ {
              "system": "http://terminology.hl7.org/CodeSystem/measure-population",
              "code": "measure-observation",
              "display": "Measure Observation"
            } ]
          },
          "count": 2
        }, {
          "id": "MeasureObservation_1_2_1",
          "code": {
            "coding": [ {
              "system": "http://terminology.hl7.org/CodeSystem/measure-population",
              "code": "measure-observation",
              "display": "Measure Observation"
            } ]
          },
          "count": 1
        } ],
        "measureScore": {
          "value": 0.0
        }
      } ],
      "evaluatedResource": [ {
        "reference": "Encounter/0fe6f711-1341-4c0f-8d9e-1f62367a37d3"
      }, {
        "reference": "Encounter/f16e5955-af48-4fe9-8dba-41529cb8c783"
      }, {
        "reference": "Patient/55b18e1a-c949-4d85-b1c5-caa91fc6ac4b"
      }, {
        "reference": "Claim/53593e90-1540-40c2-b8b3-aefb8709eeaf"
      }, {
        "reference": "Claim/a7945580-136e-4808-87bc-f1992ac7439b"
      }, {
        "reference": "MedicationRequest/f9a4069e-aa49-4656-8b17-9dd97d5f072b"
      }, {
        "reference": "Practitioner/a2c6010b-fb40-48eb-acfb-5b4ad6247a9a"
      }, {
        "reference": "Coverage/2e2c49aa-d6fc-4ce5-8c87-6fd4f3c14413"
      }, {
        "reference": "Organization/05fb05b1-0183-4d64-a0ee-477adfe12d21"
      } ]
    },
    "request": {
      "method": "PUT",
      "url": "MeasureReport/a02d7a51-5000-46ce-992a-344f91edf5d0"
    }
  } ]
}