{
  "resourceType": "Bundle",
  "id": "62c880ec0111a60120dc21ee",
  "type": "transaction",
  "entry": [ {
    "fullUrl": "https://madie.cms.gov/Patient/33592e78-771b-4ed2-85e0-67aeb0175fbe",
    "resource": {
      "resourceType": "Patient",
      "id": "33592e78-771b-4ed2-85e0-67aeb0175fbe",
      "meta": {
        "profile": [ "http://hl7.org/fhir/us/qicore/StructureDefinition/qicore-patient" ]
      },
      "text": {
        "status": "generated",
        "div": "<div xmlns=\"http://www.w3.org/1999/xhtml\"><div class=\"hapiHeaderText\">ChemoWithInvalidCode<b>DENOMFailPop1</b></div><table class=\"hapiPropertyTable\"><tbody><tr><td>Identifier</td><td>67ad815355114076cc7c6714ee69f465</td></tr><tr><td>Date of birth</td><td><span>14 June 1937</span></td></tr></tbody></table></div>"
      },
      "extension": [ {
        "url": "http://hl7.org/fhir/us/core/StructureDefinition/us-core-race",
        "extension": [ {
          "url": "ombCategory",
          "valueCoding": {
            "system": "urn:oid:2.16.840.1.113883.6.238",
            "code": "1002-5",
            "display": "American Indian or Alaska Native",
            "userSelected": true
          }
        }, {
          "url": "text",
          "valueString": "American Indian or Alaska Native"
        } ]
      }, {
        "url": "http://hl7.org/fhir/us/core/StructureDefinition/us-core-ethnicity",
        "extension": [ {
          "url": "ombCategory",
          "valueCoding": {
            "system": "urn:oid:2.16.840.1.113883.6.238",
            "code": "2135-2",
            "display": "Hispanic or Latino",
            "userSelected": true
          }
        }, {
          "url": "text",
          "valueString": "Hispanic or Latino"
        } ]
      } ],
      "identifier": [ {
        "type": {
          "coding": [ {
            "system": "http://terminology.hl7.org/CodeSystem/v2-0203",
            "code": "MR"
          } ]
        },
        "system": "https://bonnie-fhir.healthit.gov/",
        "value": "62c880ec0111a60120dc21ee"
      } ],
      "active": true,
      "name": [ {
        "use": "usual",
        "family": "DENOMFailPop1",
        "given": [ "ChemoWithInvalidCode" ]
      } ],
      "gender": "male",
      "birthDate": "1938-06-14"
    },
    "request": {
      "method": "PUT",
      "url": "Patient/33592e78-771b-4ed2-85e0-67aeb0175fbe"
    }
  }, {
    "fullUrl": "https://madie.cms.gov/Observation/774378e3-6d72-4bd1-ab16-b023e768ba8d",
    "resource": {
      "resourceType": "Observation",
      "id": "774378e3-6d72-4bd1-ab16-b023e768ba8d",
      "meta": {
        "profile": [ "http://hl7.org/fhir/us/qicore/StructureDefinition/qicore-observation" ]
      },
      "status": "final",
      "category": [ {
        "coding": [ {
          "system": "http://terminology.hl7.org/CodeSystem/observation-category",
          "code": "survey",
          "display": "Survey"
        } ],
        "text": "Survey"
      } ],
      "code": {
        "coding": [ {
          "system": "http://loinc.org",
          "code": "38208-5",
          "display": "Pain severity - Reported"
        } ],
        "text": "Pain severity - Reported"
      },
      "subject": {
        "reference": "Patient/33592e78-771b-4ed2-85e0-67aeb0175fbe"
      },
      "effectiveDateTime": "2026-06-23T11:15:00.000+00:00",
      "valueInteger": 5
    },
    "request": {
      "method": "PUT",
      "url": "Observation/774378e3-6d72-4bd1-ab16-b023e768ba8d"
    }
  }, {
    "fullUrl": "https://madie.cms.gov/Condition/706e5f1b-c4ee-436c-ae74-6bf28cc35942",
    "resource": {
      "resourceType": "Condition",
      "id": "706e5f1b-c4ee-436c-ae74-6bf28cc35942",
      "meta": {
        "profile": [ "http://hl7.org/fhir/us/qicore/StructureDefinition/qicore-condition" ]
      },
      "clinicalStatus": {
        "coding": [ {
          "system": "http://terminology.hl7.org/CodeSystem/condition-clinical",
          "code": "active",
          "display": "active",
          "userSelected": true
        } ]
      },
      "category": [ {
        "coding": [ {
          "system": "http://terminology.hl7.org/CodeSystem/condition-category",
          "code": "problem-list-item",
          "display": "Problem List Item"
        } ]
      } ],
      "code": {
        "coding": [ {
          "system": "http://hl7.org/fhir/sid/icd-10-cm",
          "code": "C07"
        } ]
      },
      "subject": {
        "reference": "Patient/33592e78-771b-4ed2-85e0-67aeb0175fbe"
      },
      "onsetDateTime": "2009-02-21T13:00:00.000+00:00"
    },
    "request": {
      "method": "PUT",
      "url": "Condition/706e5f1b-c4ee-436c-ae74-6bf28cc35942"
    }
  }, {
    "fullUrl": "https://madie.cms.gov/Condition/c097fa20-dfc3-406d-81f2-3e9383df9d0e",
    "resource": {
      "resourceType": "Condition",
      "id": "c097fa20-dfc3-406d-81f2-3e9383df9d0e",
      "meta": {
        "profile": [ "http://hl7.org/fhir/us/qicore/StructureDefinition/qicore-condition" ]
      },
      "clinicalStatus": {
        "coding": [ {
          "system": "http://terminology.hl7.org/CodeSystem/condition-clinical",
          "code": "active",
          "display": "active",
          "userSelected": true
        } ]
      },
      "category": [ {
        "coding": [ {
          "system": "http://terminology.hl7.org/CodeSystem/condition-category",
          "code": "problem-list-item",
          "display": "Problem List Item"
        } ]
      } ],
      "code": {
        "coding": [ {
          "system": "http://hl7.org/fhir/sid/icd-10-cm",
          "code": "C00.0"
        } ]
      },
      "subject": {
        "reference": "Patient/33592e78-771b-4ed2-85e0-67aeb0175fbe"
      },
      "onsetDateTime": "2009-02-21T13:00:00.000+00:00"
    },
    "request": {
      "method": "PUT",
      "url": "Condition/c097fa20-dfc3-406d-81f2-3e9383df9d0e"
    }
  }, {
    "fullUrl": "https://madie.cms.gov/Encounter/0ef39455-6356-4c7e-9a3b-635a613e8106",
    "resource": {
      "resourceType": "Encounter",
      "id": "0ef39455-6356-4c7e-9a3b-635a613e8106",
      "meta": {
        "profile": [ "http://hl7.org/fhir/us/qicore/StructureDefinition/qicore-encounter" ]
      },
      "status": "finished",
      "class": {
        "system": "http://terminology.hl7.org/CodeSystem/v3-ActCode",
        "code": "AMB",
        "display": "ambulatory",
        "userSelected": true
      },
      "type": [ {
        "coding": [ {
          "system": "http://www.ama-assn.org/go/cpt",
          "code": "99213"
        } ]
      } ],
      "subject": {
        "reference": "Patient/33592e78-771b-4ed2-85e0-67aeb0175fbe"
      },
      "period": {
        "start": "2026-06-23T10:00:00.000+00:00",
        "end": "2026-06-23T12:00:00.000+00:00"
      }
    },
    "request": {
      "method": "PUT",
      "url": "Encounter/0ef39455-6356-4c7e-9a3b-635a613e8106"
    }
  }, {
    "fullUrl": "https://madie.cms.gov/Coverage/3cd98cf8-3a6e-41d4-bfc8-7fb3f46ca0d9",
    "resource": {
      "resourceType": "Coverage",
      "id": "3cd98cf8-3a6e-41d4-bfc8-7fb3f46ca0d9",
      "meta": {
        "profile": [ "http://hl7.org/fhir/us/qicore/StructureDefinition/qicore-coverage" ]
      },
      "status": "active",
      "beneficiary": {
        "reference": "Patient/33592e78-771b-4ed2-85e0-67aeb0175fbe"
      },
      "period": {
        "start": "1938-06-14T08:00:00.000+00:00"
      },
      "payor": [ {
        "reference": "Organization/f3b0c932-7a6e-4ddf-9c33-793af72ed136"
      } ]
    },
    "request": {
      "method": "PUT",
      "url": "Coverage/3cd98cf8-3a6e-41d4-bfc8-7fb3f46ca0d9"
    }
  }, {
    "fullUrl": "https://madie.cms.gov/Procedure/ed0283c7-1c41-4555-99b9-2c6d1562cc48",
    "resource": {
      "resourceType": "Procedure",
      "id": "ed0283c7-1c41-4555-99b9-2c6d1562cc48",
      "meta": {
        "profile": [ "http://hl7.org/fhir/us/qicore/StructureDefinition/qicore-procedure" ]
      },
      "extension": [ {
        "url": "http://hl7.org/fhir/us/qicore/StructureDefinition/qicore-recorded",
        "valueDateTime": "2026-05-29T12:35:00.000+00:00"
      } ],
      "status": "completed",
      "code": {
        "coding": [ {
          "system": "http://www.ama-assn.org/go/cpt",
          "code": "00000"
        } ]
      },
      "subject": {
        "reference": "Patient/33592e78-771b-4ed2-85e0-67aeb0175fbe"
      },
      "performedPeriod": {
        "start": "2026-05-29T13:30:00.000+00:00",
        "end": "2026-05-29T13:30:00.000+00:00"
      }
    },
    "request": {
      "method": "PUT",
      "url": "Procedure/ed0283c7-1c41-4555-99b9-2c6d1562cc48"
    }
  }, {
    "fullUrl": "https://madie.cms.gov/Procedure/2193069e-df3f-49ce-b639-df22df74fa81",
    "resource": {
      "resourceType": "Procedure",
      "id": "2193069e-df3f-49ce-b639-df22df74fa81",
      "meta": {
        "profile": [ "http://hl7.org/fhir/us/qicore/StructureDefinition/qicore-procedure" ]
      },
      "extension": [ {
        "url": "http://hl7.org/fhir/us/qicore/StructureDefinition/qicore-recorded",
        "valueDateTime": "2026-07-08T12:35:00.000+00:00"
      } ],
      "status": "completed",
      "code": {
        "coding": [ {
          "system": "http://www.ama-assn.org/go/cpt",
          "code": "11111"
        } ]
      },
      "subject": {
        "reference": "Patient/33592e78-771b-4ed2-85e0-67aeb0175fbe"
      },
      "performedPeriod": {
        "start": "2026-07-08T10:45:00.000+00:00",
        "end": "2026-07-08T10:45:00.000+00:00"
      }
    },
    "request": {
      "method": "PUT",
      "url": "Procedure/2193069e-df3f-49ce-b639-df22df74fa81"
    }
  }, {
    "fullUrl": "https://madie.cms.gov/Organization/f3b0c932-7a6e-4ddf-9c33-793af72ed136",
    "resource": {
      "resourceType": "Organization",
      "id": "f3b0c932-7a6e-4ddf-9c33-793af72ed136",
      "meta": {
        "profile": [ "http://hl7.org/fhir/us/qicore/StructureDefinition/qicore-organization" ]
      },
      "identifier": [ {
        "use": "temp",
        "system": "urn:oid:2.16.840.1.113883.4.4",
        "value": "21-3259825"
      } ],
      "active": true,
      "type": [ {
        "coding": [ {
          "system": "http://terminology.hl7.org/CodeSystem/organization-type",
          "code": "pay",
          "display": "Payer"
        } ]
      } ],
      "name": "Blue Cross Blue Shield of Texas",
      "telecom": [ {
        "system": "phone",
        "value": "(+1) 972-766-6900"
      } ],
      "address": [ {
        "use": "billing",
        "type": "postal",
        "line": [ "P.O. Box 660044" ],
        "city": "Dallas",
        "state": "TX",
        "postalCode": "75266-0044",
        "country": "USA"
      } ]
    },
    "request": {
      "method": "PUT",
      "url": "Organization/f3b0c932-7a6e-4ddf-9c33-793af72ed136"
    }
  }, {
    "fullUrl": "https://madie.cms.gov/Practitioner/2fc4ac97-a3fe-4ae2-80c5-61dce0bfb8eb",
    "resource": {
      "resourceType": "Practitioner",
      "id": "2fc4ac97-a3fe-4ae2-80c5-61dce0bfb8eb",
      "meta": {
        "profile": [ "http://hl7.org/fhir/us/qicore/StructureDefinition/qicore-practitioner" ]
      },
      "identifier": [ {
        "system": "http://hl7.org/fhir/sid/us-npi",
        "value": "123456"
      } ],
      "name": [ {
        "family": "Evil",
        "prefix": [ "Dr" ]
      } ]
    },
    "request": {
      "method": "PUT",
      "url": "Practitioner/2fc4ac97-a3fe-4ae2-80c5-61dce0bfb8eb"
    }
  }, {
    "fullUrl": "https://madie.cms.gov/MeasureReport/80e4c4ac-cee5-49e0-b54d-dc68f189ce14",
    "resource": {
      "resourceType": "MeasureReport",
      "id": "80e4c4ac-cee5-49e0-b54d-dc68f189ce14",
      "meta": {
        "profile": [ "http://hl7.org/fhir/us/cqfmeasures/StructureDefinition/test-case-cqfm" ]
      },
      "contained": [ {
        "resourceType": "Parameters",
        "id": "851801c2-c312-4ef1-ab8a-c7ba817a29cf-parameters",
        "parameter": [ {
          "name": "subject",
          "valueString": "33592e78-771b-4ed2-85e0-67aeb0175fbe"
        } ]
      } ],
      "extension": [ {
        "url": "http://hl7.org/fhir/StructureDefinition/cqf-inputParameters",
        "valueReference": {
          "reference": "#851801c2-c312-4ef1-ab8a-c7ba817a29cf-parameters"
        }
      }, {
        "url": "http://hl7.org/fhir/us/cqfmeasures/StructureDefinition/cqfm-testCaseDescription",
        "valueMarkdown": "Patient with cancer diagnosis that overlaps the office visit during measurement period, but chemotherapy administration with invalid code. \n"
      } ],
      "modifierExtension": [ {
        "url": "http://hl7.org/fhir/us/cqfmeasures/StructureDefinition/cqfm-isTestCase",
        "valueBoolean": true
      } ],
      "status": "complete",
      "type": "individual",
      "measure": "https://madie.cms.gov/Measure/CMS157FHIRPainIntensityQuantified",
      "period": {
        "start": "2026-01-01",
        "end": "2026-12-31"
      },
      "group": [ {
        "id": "Group_1",
        "population": [ {
          "id": "InitialPopulation_1",
          "code": {
            "coding": [ {
              "system": "http://terminology.hl7.org/CodeSystem/measure-population",
              "code": "initial-population",
              "display": "Initial Population"
            } ]
          },
          "count": 0
        }, {
          "id": "Denominator_1",
          "code": {
            "coding": [ {
              "system": "http://terminology.hl7.org/CodeSystem/measure-population",
              "code": "denominator",
              "display": "Denominator"
            } ]
          },
          "count": 0
        }, {
          "id": "Numerator_1",
          "code": {
            "coding": [ {
              "system": "http://terminology.hl7.org/CodeSystem/measure-population",
              "code": "numerator",
              "display": "Numerator"
            } ]
          },
          "count": 0
        } ],
        "measureScore": {
          "value": 0.0
        }
      }, {
        "id": "Group_2",
        "population": [ {
          "id": "InitialPopulation_2",
          "code": {
            "coding": [ {
              "system": "http://terminology.hl7.org/CodeSystem/measure-population",
              "code": "initial-population",
              "display": "Initial Population"
            } ]
          },
          "count": 0
        }, {
          "id": "Denominator_2",
          "code": {
            "coding": [ {
              "system": "http://terminology.hl7.org/CodeSystem/measure-population",
              "code": "denominator",
              "display": "Denominator"
            } ]
          },
          "count": 0
        }, {
          "id": "Numerator_2",
          "code": {
            "coding": [ {
              "system": "http://terminology.hl7.org/CodeSystem/measure-population",
              "code": "numerator",
              "display": "Numerator"
            } ]
          },
          "count": 0
        } ],
        "measureScore": {
          "value": 0.0
        }
      } ],
      "evaluatedResource": [ {
        "reference": "Patient/33592e78-771b-4ed2-85e0-67aeb0175fbe"
      }, {
        "reference": "Observation/774378e3-6d72-4bd1-ab16-b023e768ba8d"
      }, {
        "reference": "Condition/706e5f1b-c4ee-436c-ae74-6bf28cc35942"
      }, {
        "reference": "Condition/c097fa20-dfc3-406d-81f2-3e9383df9d0e"
      }, {
        "reference": "Encounter/0ef39455-6356-4c7e-9a3b-635a613e8106"
      }, {
        "reference": "Coverage/3cd98cf8-3a6e-41d4-bfc8-7fb3f46ca0d9"
      }, {
        "reference": "Procedure/ed0283c7-1c41-4555-99b9-2c6d1562cc48"
      }, {
        "reference": "Procedure/2193069e-df3f-49ce-b639-df22df74fa81"
      }, {
        "reference": "Organization/f3b0c932-7a6e-4ddf-9c33-793af72ed136"
      }, {
        "reference": "Practitioner/2fc4ac97-a3fe-4ae2-80c5-61dce0bfb8eb"
      } ]
    },
    "request": {
      "method": "PUT",
      "url": "MeasureReport/80e4c4ac-cee5-49e0-b54d-dc68f189ce14"
    }
  } ]
}