{
  "resourceType": "Bundle",
  "id": "612e6b2e02c62a011f2ecc92",
  "type": "transaction",
  "entry": [ {
    "fullUrl": "https://madie.cms.gov/Patient/42ff0799-cc97-4a96-bbb7-1600e1701485",
    "resource": {
      "resourceType": "Patient",
      "id": "42ff0799-cc97-4a96-bbb7-1600e1701485",
      "meta": {
        "profile": [ "http://hl7.org/fhir/us/qicore/StructureDefinition/qicore-patient" ]
      },
      "text": {
        "status": "generated",
        "div": "<div xmlns=\"http://www.w3.org/1999/xhtml\"><div class=\"hapiHeaderText\">PtRefMOLMWHDayAfterICU<b>NUMERPASS </b></div><table class=\"hapiPropertyTable\"><tbody><tr><td>Identifier</td><td>bec2580a47ed4bf7691b191e0654b2de</td></tr><tr><td>Date of birth</td><td><span>02 January 1974</span></td></tr></tbody></table></div>"
      },
      "extension": [ {
        "url": "http://hl7.org/fhir/us/core/StructureDefinition/us-core-race",
        "extension": [ {
          "url": "ombCategory",
          "valueCoding": {
            "system": "urn:oid:2.16.840.1.113883.6.238",
            "code": "1002-5",
            "display": "American Indian or Alaska Native",
            "userSelected": true
          }
        }, {
          "url": "text",
          "valueString": "American Indian or Alaska Native"
        } ]
      }, {
        "url": "http://hl7.org/fhir/us/core/StructureDefinition/us-core-ethnicity",
        "extension": [ {
          "url": "ombCategory",
          "valueCoding": {
            "system": "urn:oid:2.16.840.1.113883.6.238",
            "code": "2135-2",
            "display": "Hispanic or Latino",
            "userSelected": true
          }
        }, {
          "url": "text",
          "valueString": "Hispanic or Latino"
        } ]
      } ],
      "identifier": [ {
        "type": {
          "coding": [ {
            "system": "http://terminology.hl7.org/CodeSystem/v2-0203",
            "code": "MR"
          } ]
        },
        "system": "https://bonnie-fhir.healthit.gov/",
        "value": "612e6b2e02c62a011f2ecc92"
      } ],
      "active": true,
      "name": [ {
        "use": "usual",
        "family": "NUMERPass",
        "given": [ "PtRefMOLMWHDayAfterICU" ]
      } ],
      "gender": "male",
      "birthDate": "1975-01-02"
    },
    "request": {
      "method": "PUT",
      "url": "Patient/42ff0799-cc97-4a96-bbb7-1600e1701485"
    }
  }, {
    "fullUrl": "https://madie.cms.gov/Encounter/e5fba047-c59e-4aea-8bb2-76063901e23a",
    "resource": {
      "resourceType": "Encounter",
      "id": "e5fba047-c59e-4aea-8bb2-76063901e23a",
      "meta": {
        "profile": [ "http://hl7.org/fhir/us/qicore/StructureDefinition/qicore-encounter" ]
      },
      "status": "finished",
      "class": {
        "system": "http://terminology.hl7.org/CodeSystem/v3-ActCode",
        "code": "IMP",
        "display": "inpatient encounter"
      },
      "type": [ {
        "coding": [ {
          "system": "http://snomed.info/sct",
          "code": "8715000"
        } ]
      } ],
      "subject": {
        "reference": "Patient/42ff0799-cc97-4a96-bbb7-1600e1701485"
      },
      "period": {
        "start": "2026-11-01T08:00:00.000+00:00",
        "end": "2026-11-26T08:15:00.000+00:00"
      },
      "length": {
        "value": 25,
        "unit": "days"
      },
      "location": [ {
        "location": {
          "reference": "Location/61805390-9c8a-4ee9-955b-7f4fe422e7fa"
        },
        "period": {
          "start": "2026-11-04T09:00:00.000+00:00",
          "end": "2026-11-06T08:15:00.000+00:00"
        }
      } ]
    },
    "request": {
      "method": "PUT",
      "url": "Encounter/e5fba047-c59e-4aea-8bb2-76063901e23a"
    }
  }, {
    "fullUrl": "https://madie.cms.gov/Coverage/02975745-4175-4bf3-939b-37dfaa904201",
    "resource": {
      "resourceType": "Coverage",
      "id": "02975745-4175-4bf3-939b-37dfaa904201",
      "status": "active",
      "beneficiary": {
        "reference": "Patient/42ff0799-cc97-4a96-bbb7-1600e1701485"
      },
      "period": {
        "start": "1975-01-02T08:00:00.000+00:00"
      },
      "payor": [ {
        "reference": "Organization/caa62b87-47b9-4906-87fc-b40a4016deb3"
      } ]
    },
    "request": {
      "method": "PUT",
      "url": "Coverage/02975745-4175-4bf3-939b-37dfaa904201"
    }
  }, {
    "fullUrl": "https://madie.cms.gov/MedicationRequest/c87c6e7d-5791-4691-bb7f-606a4f080983",
    "resource": {
      "resourceType": "MedicationRequest",
      "id": "c87c6e7d-5791-4691-bb7f-606a4f080983",
      "meta": {
        "profile": [ "http://hl7.org/fhir/us/qicore/StructureDefinition/qicore-medicationnotrequested" ]
      },
      "status": "completed",
      "intent": "order",
      "category": [ {
        "coding": [ {
          "system": "http://terminology.hl7.org/CodeSystem/medicationrequest-category",
          "code": "community"
        } ]
      } ],
      "doNotPerform": true,
      "medicationCodeableConcept": {
        "coding": [ {
          "system": "http://www.nlm.nih.gov/research/umls/rxnorm",
          "code": "854255"
        } ]
      },
      "subject": {
        "reference": "Patient/42ff0799-cc97-4a96-bbb7-1600e1701485"
      },
      "authoredOn": "2026-11-05T07:00:00.000+00:00",
      "requester": {
        "reference": "Practitioner/123456"
      },
      "reasonCode": [ {
        "coding": [ {
          "system": "http://snomed.info/sct",
          "code": "443390004",
          "display": "Refusal of treatment by patient (situation)",
          "userSelected": true
        } ]
      } ]
    },
    "request": {
      "method": "PUT",
      "url": "MedicationRequest/c87c6e7d-5791-4691-bb7f-606a4f080983"
    }
  }, {
    "fullUrl": "https://madie.cms.gov/Location/61805390-9c8a-4ee9-955b-7f4fe422e7fa",
    "resource": {
      "resourceType": "Location",
      "id": "61805390-9c8a-4ee9-955b-7f4fe422e7fa",
      "meta": {
        "profile": [ "http://hl7.org/fhir/us/qicore/StructureDefinition/qicore-location" ]
      },
      "identifier": [ {
        "use": "usual",
        "system": "http://exampleoflocation.com",
        "value": "B1-S.F2"
      } ],
      "name": "Medical Surgical East, first floor",
      "type": [ {
        "coding": [ {
          "system": "https://www.cdc.gov/nhsn/cdaportal/terminology/codesystem/hsloc.html",
          "code": "1025-6",
          "display": "Trauma Critical Care",
          "userSelected": true
        } ]
      } ]
    },
    "request": {
      "method": "PUT",
      "url": "Location/61805390-9c8a-4ee9-955b-7f4fe422e7fa"
    }
  }, {
    "fullUrl": "https://madie.cms.gov/Organization/caa62b87-47b9-4906-87fc-b40a4016deb3",
    "resource": {
      "resourceType": "Organization",
      "id": "caa62b87-47b9-4906-87fc-b40a4016deb3",
      "meta": {
        "profile": [ "http://hl7.org/fhir/us/qicore/StructureDefinition/qicore-organization" ]
      },
      "identifier": [ {
        "use": "temp",
        "system": "urn:oid:2.16.840.1.113883.4.4",
        "value": "21-3259825"
      } ],
      "active": true,
      "type": [ {
        "coding": [ {
          "system": "http://terminology.hl7.org/CodeSystem/organization-type",
          "code": "pay",
          "display": "Payer"
        } ]
      } ],
      "name": "Blue Cross Blue Shield of Texas",
      "telecom": [ {
        "system": "phone",
        "value": "(+1) 972-766-6900"
      } ],
      "address": [ {
        "use": "billing",
        "type": "postal",
        "line": [ "P.O. Box 660044" ],
        "city": "Dallas",
        "state": "TX",
        "postalCode": "75266-0044",
        "country": "USA"
      } ]
    },
    "request": {
      "method": "PUT",
      "url": "Organization/caa62b87-47b9-4906-87fc-b40a4016deb3"
    }
  }, {
    "fullUrl": "https://madie.cms.gov/Practitioner/905948b7-148c-4174-afea-a7a66a34732d",
    "resource": {
      "resourceType": "Practitioner",
      "id": "905948b7-148c-4174-afea-a7a66a34732d",
      "identifier": [ {
        "system": "http://hl7.org/fhir/sid/us-npi",
        "value": "123456"
      } ],
      "name": [ {
        "family": "Evil",
        "prefix": [ "Dr" ]
      } ]
    },
    "request": {
      "method": "PUT",
      "url": "Practitioner/905948b7-148c-4174-afea-a7a66a34732d"
    }
  }, {
    "fullUrl": "https://madie.cms.gov/MeasureReport/5e1daa8b-76dd-43bf-856f-cf6cd9476d66",
    "resource": {
      "resourceType": "MeasureReport",
      "id": "5e1daa8b-76dd-43bf-856f-cf6cd9476d66",
      "meta": {
        "profile": [ "http://hl7.org/fhir/us/cqfmeasures/StructureDefinition/test-case-cqfm" ]
      },
      "contained": [ {
        "resourceType": "Parameters",
        "id": "179067bf-0bb4-4b20-8c8b-272d3d186161-parameters",
        "parameter": [ {
          "name": "subject",
          "valueString": "42ff0799-cc97-4a96-bbb7-1600e1701485"
        } ]
      } ],
      "extension": [ {
        "url": "http://hl7.org/fhir/StructureDefinition/cqf-inputParameters",
        "valueReference": {
          "reference": "#179067bf-0bb4-4b20-8c8b-272d3d186161-parameters"
        }
      }, {
        "url": "http://hl7.org/fhir/us/cqfmeasures/StructureDefinition/cqfm-testCaseDescription",
        "valueMarkdown": "Patient refusal for LMWH documented on the day after ICU"
      } ],
      "modifierExtension": [ {
        "url": "http://hl7.org/fhir/us/cqfmeasures/StructureDefinition/cqfm-isTestCase",
        "valueBoolean": true
      } ],
      "status": "complete",
      "type": "individual",
      "measure": "https://madie.cms.gov/Measure/CMS190FHIRVTEProphylaxisICU",
      "period": {
        "start": "2026-01-01",
        "end": "2026-12-31"
      },
      "group": [ {
        "id": "Group_1",
        "population": [ {
          "id": "InitialPopulation_1",
          "code": {
            "coding": [ {
              "system": "http://terminology.hl7.org/CodeSystem/measure-population",
              "code": "initial-population",
              "display": "Initial Population"
            } ]
          },
          "count": 1
        }, {
          "id": "Denominator_1",
          "code": {
            "coding": [ {
              "system": "http://terminology.hl7.org/CodeSystem/measure-population",
              "code": "denominator",
              "display": "Denominator"
            } ]
          },
          "count": 1
        }, {
          "id": "DenominatorExclusion_1",
          "code": {
            "coding": [ {
              "system": "http://terminology.hl7.org/CodeSystem/measure-population",
              "code": "denominator-exclusion",
              "display": "Denominator Exclusion"
            } ]
          },
          "count": 0
        }, {
          "id": "Numerator_1",
          "code": {
            "coding": [ {
              "system": "http://terminology.hl7.org/CodeSystem/measure-population",
              "code": "numerator",
              "display": "Numerator"
            } ]
          },
          "count": 1
        }, {
          "id": "DenominatorException_1",
          "code": {
            "coding": [ {
              "system": "http://terminology.hl7.org/CodeSystem/measure-population",
              "code": "denominator-exception",
              "display": "Denominator Exception"
            } ]
          },
          "count": 0
        } ],
        "measureScore": {
          "value": 0.0
        }
      } ],
      "evaluatedResource": [ {
        "reference": "Patient/42ff0799-cc97-4a96-bbb7-1600e1701485"
      }, {
        "reference": "Encounter/e5fba047-c59e-4aea-8bb2-76063901e23a"
      }, {
        "reference": "Coverage/02975745-4175-4bf3-939b-37dfaa904201"
      }, {
        "reference": "MedicationRequest/c87c6e7d-5791-4691-bb7f-606a4f080983"
      }, {
        "reference": "Location/61805390-9c8a-4ee9-955b-7f4fe422e7fa"
      }, {
        "reference": "Organization/caa62b87-47b9-4906-87fc-b40a4016deb3"
      }, {
        "reference": "Practitioner/905948b7-148c-4174-afea-a7a66a34732d"
      } ]
    },
    "request": {
      "method": "PUT",
      "url": "MeasureReport/5e1daa8b-76dd-43bf-856f-cf6cd9476d66"
    }
  } ]
}