{
  "resourceType": "Bundle",
  "id": "6356dca654e383debade75aa",
  "type": "transaction",
  "entry": [ {
    "fullUrl": "https://madie.cms.gov/Patient/84272be6-42eb-4320-8924-d718c9bd2754",
    "resource": {
      "resourceType": "Patient",
      "id": "84272be6-42eb-4320-8924-d718c9bd2754",
      "meta": {
        "profile": [ "http://hl7.org/fhir/us/qicore/StructureDefinition/qicore-patient" ]
      },
      "text": {
        "status": "generated",
        "div": "<div xmlns=\"http://www.w3.org/1999/xhtml\"><div class=\"hapiHeaderText\">EncDxEQICD10SepsisPOAisYes<b>NUMERFail</b></div><table class=\"hapiPropertyTable\"><tbody><tr><td>Date of birth</td><td><span>01 February 2004</span></td></tr></tbody></table></div>"
      },
      "extension": [ {
        "url": "http://hl7.org/fhir/us/core/StructureDefinition/us-core-race",
        "extension": [ {
          "url": "ombCategory",
          "valueCoding": {
            "system": "urn:oid:2.16.840.1.113883.6.238",
            "code": "1002-5",
            "display": "American Indian or Alaska Native",
            "userSelected": true
          }
        }, {
          "url": "text",
          "valueString": "American Indian or Alaska Native"
        } ]
      }, {
        "url": "http://hl7.org/fhir/us/core/StructureDefinition/us-core-ethnicity",
        "extension": [ {
          "url": "ombCategory",
          "valueCoding": {
            "system": "urn:oid:2.16.840.1.113883.6.238",
            "code": "2135-2",
            "display": "Hispanic or Latino",
            "userSelected": true
          }
        }, {
          "url": "text",
          "valueString": "Hispanic or Latino"
        } ]
      } ],
      "identifier": [ {
        "type": {
          "coding": [ {
            "system": "http://terminology.hl7.org/CodeSystem/v2-0203",
            "code": "MR"
          } ]
        },
        "system": "https://bonnie-fhir.healthit.gov/",
        "value": "6356dca654e383debade75aa"
      } ],
      "active": true,
      "name": [ {
        "use": "usual",
        "family": "NUMERFail",
        "given": [ "EncDxEQICD10SepsisPOAisYes" ]
      } ],
      "gender": "female",
      "birthDate": "2005-02-01"
    },
    "request": {
      "method": "PUT",
      "url": "Patient/84272be6-42eb-4320-8924-d718c9bd2754"
    }
  }, {
    "fullUrl": "https://madie.cms.gov/Observation/ff1a7619-304d-4841-b60e-94b1fb005101",
    "resource": {
      "resourceType": "Observation",
      "id": "ff1a7619-304d-4841-b60e-94b1fb005101",
      "meta": {
        "profile": [ "http://hl7.org/fhir/us/qicore/StructureDefinition/qicore-simple-observation" ]
      },
      "status": "final",
      "category": [ {
        "coding": [ {
          "system": "http://terminology.hl7.org/CodeSystem/observation-category",
          "code": "exam",
          "display": "exam",
          "userSelected": true
        } ]
      } ],
      "code": {
        "coding": [ {
          "system": "http://loinc.org",
          "code": "93857-1"
        } ]
      },
      "subject": {
        "reference": "Patient/84272be6-42eb-4320-8924-d718c9bd2754"
      },
      "effectiveDateTime": "2026-02-01T08:00:00.000+00:00",
      "performer": [ {
        "reference": "Organization/example1",
        "display": "Hendricks Country Hospital"
      } ],
      "valueDateTime": "2026-02-01T08:00:00.000+00:00"
    },
    "request": {
      "method": "PUT",
      "url": "Observation/ff1a7619-304d-4841-b60e-94b1fb005101"
    }
  }, {
    "fullUrl": "https://madie.cms.gov/Observation/60da838f-0131-436b-90c4-47d5cdbe0205",
    "resource": {
      "resourceType": "Observation",
      "id": "60da838f-0131-436b-90c4-47d5cdbe0205",
      "meta": {
        "profile": [ "http://hl7.org/fhir/us/qicore/StructureDefinition/qicore-simple-observation" ]
      },
      "status": "final",
      "category": [ {
        "coding": [ {
          "system": "http://terminology.hl7.org/CodeSystem/observation-category",
          "code": "exam",
          "display": "exam",
          "userSelected": true
        } ]
      } ],
      "code": {
        "coding": [ {
          "system": "http://loinc.org",
          "code": "11884-4"
        } ]
      },
      "subject": {
        "reference": "Patient/84272be6-42eb-4320-8924-d718c9bd2754"
      },
      "effectiveDateTime": "2026-02-01T08:00:00.000+00:00",
      "performer": [ {
        "reference": "Organization/example1",
        "display": "Hendricks Country Hospital"
      } ],
      "valueQuantity": {
        "value": 21,
        "system": "http://unitsofmeasure.org",
        "code": "wk"
      }
    },
    "request": {
      "method": "PUT",
      "url": "Observation/60da838f-0131-436b-90c4-47d5cdbe0205"
    }
  }, {
    "fullUrl": "https://madie.cms.gov/Condition/87d4d335-3d31-4af7-88ad-c0707f999a78",
    "resource": {
      "resourceType": "Condition",
      "id": "87d4d335-3d31-4af7-88ad-c0707f999a78",
      "meta": {
        "profile": [ "http://hl7.org/fhir/us/qicore/StructureDefinition/qicore-condition-encounter-diagnosis" ]
      },
      "category": [ {
        "coding": [ {
          "system": "http://terminology.hl7.org/CodeSystem/condition-category",
          "code": "encounter-diagnosis",
          "display": "Encounter Diagnosis"
        } ]
      } ],
      "code": {
        "coding": [ {
          "system": "http://hl7.org/fhir/sid/icd-10-cm",
          "version": "2023",
          "code": "Z3A.21",
          "display": "21 weeks gestation",
          "userSelected": true
        } ]
      },
      "subject": {
        "reference": "Patient/84272be6-42eb-4320-8924-d718c9bd2754"
      },
      "recordedDate": "2026-10-26T08:00:00.000+00:00"
    },
    "request": {
      "method": "PUT",
      "url": "Condition/87d4d335-3d31-4af7-88ad-c0707f999a78"
    }
  }, {
    "fullUrl": "https://madie.cms.gov/Encounter/ab28a9e0-1396-46a4-b345-61b1f3f27805",
    "resource": {
      "resourceType": "Encounter",
      "id": "ab28a9e0-1396-46a4-b345-61b1f3f27805",
      "meta": {
        "profile": [ "http://hl7.org/fhir/us/qicore/StructureDefinition/qicore-encounter" ]
      },
      "status": "finished",
      "class": {
        "system": "http://terminology.hl7.org/CodeSystem/v3-ActCode",
        "code": "IMP",
        "display": "inpatient encounter"
      },
      "type": [ {
        "coding": [ {
          "system": "http://snomed.info/sct",
          "code": "183452005"
        } ]
      } ],
      "subject": {
        "reference": "Patient/84272be6-42eb-4320-8924-d718c9bd2754"
      },
      "period": {
        "start": "2026-02-01T08:00:00.000+00:00",
        "end": "2026-02-05T08:15:00.000+00:00"
      },
      "reasonReference": [ {
        "reference": "Condition/87d4d335-3d31-4af7-88ad-c0707f999a78"
      } ]
    },
    "request": {
      "method": "PUT",
      "url": "Encounter/ab28a9e0-1396-46a4-b345-61b1f3f27805"
    }
  }, {
    "fullUrl": "https://madie.cms.gov/Procedure/094a859b-94f2-425b-9907-3d38bf6ba1b8",
    "resource": {
      "resourceType": "Procedure",
      "id": "094a859b-94f2-425b-9907-3d38bf6ba1b8",
      "meta": {
        "profile": [ "http://hl7.org/fhir/us/qicore/StructureDefinition/qicore-procedure" ]
      },
      "extension": [ {
        "url": "http://hl7.org/fhir/us/qicore/StructureDefinition/qicore-recorded",
        "valueDateTime": "2014-04-05T13:35:00.000+00:00"
      } ],
      "status": "completed",
      "code": {
        "coding": [ {
          "system": "http://snomed.info/sct",
          "code": "10745001"
        } ]
      },
      "subject": {
        "reference": "Patient/84272be6-42eb-4320-8924-d718c9bd2754"
      },
      "performedPeriod": {
        "start": "2026-02-01T08:00:00.000+00:00",
        "end": "2026-02-05T08:15:00.000+00:00"
      }
    },
    "request": {
      "method": "PUT",
      "url": "Procedure/094a859b-94f2-425b-9907-3d38bf6ba1b8"
    }
  }, {
    "fullUrl": "https://madie.cms.gov/Condition/4d301708-0126-4a43-8aa0-282ca3e8871c",
    "resource": {
      "resourceType": "Condition",
      "id": "4d301708-0126-4a43-8aa0-282ca3e8871c",
      "meta": {
        "profile": [ "http://hl7.org/fhir/us/qicore/StructureDefinition/qicore-condition" ]
      },
      "category": [ {
        "coding": [ {
          "system": "http://terminology.hl7.org/CodeSystem/condition-category",
          "code": "encounter-diagnosis",
          "display": "Encounter Diagnosis"
        } ]
      } ],
      "code": {
        "coding": [ {
          "system": "http://hl7.org/fhir/sid/icd-10-cm",
          "version": "2023",
          "code": "A32.7",
          "display": "Listerial sepsis",
          "userSelected": true
        } ]
      },
      "subject": {
        "reference": "Patient/84272be6-42eb-4320-8924-d718c9bd2754"
      },
      "recordedDate": "2026-10-26T08:00:00.000+00:00"
    },
    "request": {
      "method": "PUT",
      "url": "Condition/4d301708-0126-4a43-8aa0-282ca3e8871c"
    }
  }, {
    "fullUrl": "https://madie.cms.gov/Claim/ca5e2f92-91ea-4d1f-a867-12b107ba206b",
    "resource": {
      "resourceType": "Claim",
      "id": "ca5e2f92-91ea-4d1f-a867-12b107ba206b",
      "meta": {
        "profile": [ "http://hl7.org/fhir/us/qicore/StructureDefinition/qicore-claim" ]
      },
      "status": "active",
      "type": {
        "coding": [ {
          "system": "http://terminology.hl7.org/CodeSystem/claim-type",
          "code": "institutional",
          "display": "Institutional"
        } ]
      },
      "use": "claim",
      "patient": {
        "reference": "Patient/84272be6-42eb-4320-8924-d718c9bd2754"
      },
      "created": "2026-11-08",
      "provider": {
        "reference": "Practitioner/55776783-7e91-45e3-a1e0-fa78922ead49"
      },
      "priority": {
        "coding": [ {
          "system": "http://terminology.hl7.org/CodeSystem/processpriority",
          "code": "normal"
        } ]
      },
      "diagnosis": [ {
        "sequence": 1,
        "diagnosisCodeableConcept": {
          "coding": [ {
            "system": "http://hl7.org/fhir/sid/icd-10-cm",
            "code": "J45.21",
            "display": "Mild intermittent asthma with (acute) exacerbation"
          } ]
        },
        "type": [ {
          "coding": [ {
            "system": "http://terminology.hl7.org/CodeSystem/ex-diagnosistype",
            "code": "discharge",
            "display": "Discharge Diagnosis"
          } ]
        } ],
        "onAdmission": {
          "coding": [ {
            "system": "https://www.cms.gov/Medicare/Medicare-Fee-for-Service-Payment/HospitalAcqCond/Coding",
            "code": "Y"
          } ]
        }
      }, {
        "sequence": 2,
        "diagnosisCodeableConcept": {
          "coding": [ {
            "system": "http://hl7.org/fhir/sid/icd-10-cm",
            "code": "A32.7",
            "display": "Listerial sepsis"
          } ]
        },
        "type": [ {
          "coding": [ {
            "system": "http://terminology.hl7.org/CodeSystem/ex-diagnosistype",
            "code": "discharge",
            "display": "Discharge Diagnosis"
          } ]
        } ],
        "onAdmission": {
          "coding": [ {
            "system": "https://www.cms.gov/Medicare/Medicare-Fee-for-Service-Payment/HospitalAcqCond/Coding",
            "code": "Y"
          } ]
        }
      } ],
      "insurance": [ {
        "sequence": 1,
        "focal": true,
        "coverage": {
          "reference": "Coverage/Coverage-1"
        }
      } ],
      "item": [ {
        "sequence": 1,
        "careTeamSequence": [ 1 ],
        "diagnosisSequence": [ 1 ],
        "productOrService": {
          "coding": [ {
            "system": "http://www.ama-assn.org/go/cpt",
            "code": "99232"
          } ]
        },
        "encounter": [ {
          "reference": "Encounter/ab28a9e0-1396-46a4-b345-61b1f3f27805"
        } ]
      }, {
        "sequence": 2,
        "careTeamSequence": [ 1 ],
        "diagnosisSequence": [ 2 ],
        "productOrService": {
          "coding": [ {
            "system": "http://www.ama-assn.org/go/cpt",
            "code": "99233"
          } ]
        },
        "encounter": [ {
          "reference": "Encounter/ab28a9e0-1396-46a4-b345-61b1f3f27805"
        } ]
      } ],
      "total": {
        "value": 3800,
        "currency": "USD"
      }
    },
    "request": {
      "method": "PUT",
      "url": "Claim/ca5e2f92-91ea-4d1f-a867-12b107ba206b"
    }
  }, {
    "fullUrl": "https://madie.cms.gov/Coverage/fc204b7c-95f2-4b2c-a6a0-8c26a0201604",
    "resource": {
      "resourceType": "Coverage",
      "id": "fc204b7c-95f2-4b2c-a6a0-8c26a0201604",
      "meta": {
        "profile": [ "http://hl7.org/fhir/us/qicore/StructureDefinition/qicore-coverage" ]
      },
      "status": "active",
      "subscriberId": "523435",
      "beneficiary": {
        "reference": "Patient/84272be6-42eb-4320-8924-d718c9bd2754"
      },
      "relationship": {
        "coding": [ {
          "system": "http://terminology.hl7.org/CodeSystem/subscriber-relationship",
          "code": "self"
        } ]
      },
      "payor": [ {
        "reference": "Organization/49353979-6b4b-44ce-91c6-a96614e56b02"
      } ]
    },
    "request": {
      "method": "PUT",
      "url": "Coverage/fc204b7c-95f2-4b2c-a6a0-8c26a0201604"
    }
  }, {
    "fullUrl": "https://madie.cms.gov/Organization/49353979-6b4b-44ce-91c6-a96614e56b02",
    "resource": {
      "resourceType": "Organization",
      "id": "49353979-6b4b-44ce-91c6-a96614e56b02",
      "meta": {
        "profile": [ "http://hl7.org/fhir/us/qicore/StructureDefinition/qicore-organization" ]
      },
      "identifier": [ {
        "use": "temp",
        "system": "urn:oid:2.16.840.1.113883.4.4",
        "value": "21-3259825"
      } ],
      "active": true,
      "type": [ {
        "coding": [ {
          "system": "http://terminology.hl7.org/CodeSystem/organization-type",
          "code": "pay",
          "display": "Payer"
        } ]
      } ],
      "name": "Blue Cross Blue Shield of Texas",
      "telecom": [ {
        "system": "phone",
        "value": "(+1) 972-766-6900"
      } ],
      "address": [ {
        "use": "billing",
        "type": "postal",
        "line": [ "P.O. Box 660044" ],
        "city": "Dallas",
        "state": "TX",
        "postalCode": "75266-0044",
        "country": "USA"
      } ]
    },
    "request": {
      "method": "PUT",
      "url": "Organization/49353979-6b4b-44ce-91c6-a96614e56b02"
    }
  }, {
    "fullUrl": "https://madie.cms.gov/Practitioner/55776783-7e91-45e3-a1e0-fa78922ead49",
    "resource": {
      "resourceType": "Practitioner",
      "id": "55776783-7e91-45e3-a1e0-fa78922ead49",
      "meta": {
        "profile": [ "http://hl7.org/fhir/us/qicore/StructureDefinition/qicore-practitioner" ]
      },
      "identifier": [ {
        "system": "http://hl7.org/fhir/sid/us-npi",
        "value": "9999999896"
      } ],
      "name": [ {
        "family": "Evil",
        "prefix": [ "Dr" ]
      } ]
    },
    "request": {
      "method": "PUT",
      "url": "Practitioner/55776783-7e91-45e3-a1e0-fa78922ead49"
    }
  }, {
    "fullUrl": "https://madie.cms.gov/MeasureReport/700e9c11-a405-4cfe-a05d-a4eabe911997",
    "resource": {
      "resourceType": "MeasureReport",
      "id": "700e9c11-a405-4cfe-a05d-a4eabe911997",
      "meta": {
        "profile": [ "http://hl7.org/fhir/us/cqfmeasures/StructureDefinition/test-case-cqfm" ]
      },
      "contained": [ {
        "resourceType": "Parameters",
        "id": "d6bc0590-0347-4e2c-96c4-ea861ac22c17-parameters",
        "parameter": [ {
          "name": "subject",
          "valueString": "84272be6-42eb-4320-8924-d718c9bd2754"
        } ]
      } ],
      "extension": [ {
        "url": "http://hl7.org/fhir/StructureDefinition/cqf-inputParameters",
        "valueReference": {
          "reference": "#d6bc0590-0347-4e2c-96c4-ea861ac22c17-parameters"
        }
      }, {
        "url": "http://hl7.org/fhir/us/cqfmeasures/StructureDefinition/cqfm-testCaseDescription",
        "valueMarkdown": "EncDx= sepsis (ICD10 coded).  POA is Yes.  \n"
      } ],
      "modifierExtension": [ {
        "url": "http://hl7.org/fhir/us/cqfmeasures/StructureDefinition/cqfm-isTestCase",
        "valueBoolean": true
      } ],
      "status": "complete",
      "type": "individual",
      "measure": "https://madie.cms.gov/Measure/CMS1028FHIRPCSevereOBComps",
      "period": {
        "start": "2026-01-01",
        "end": "2026-12-31"
      },
      "group": [ {
        "id": "Group_1",
        "population": [ {
          "id": "InitialPopulation_1",
          "code": {
            "coding": [ {
              "system": "http://terminology.hl7.org/CodeSystem/measure-population",
              "code": "initial-population",
              "display": "Initial Population"
            } ]
          },
          "count": 1
        }, {
          "id": "Denominator_1",
          "code": {
            "coding": [ {
              "system": "http://terminology.hl7.org/CodeSystem/measure-population",
              "code": "denominator",
              "display": "Denominator"
            } ]
          },
          "count": 1
        }, {
          "id": "Numerator_1",
          "code": {
            "coding": [ {
              "system": "http://terminology.hl7.org/CodeSystem/measure-population",
              "code": "numerator",
              "display": "Numerator"
            } ]
          },
          "count": 0
        }, {
          "id": "NumeratorExclusion_1",
          "code": {
            "coding": [ {
              "system": "http://terminology.hl7.org/CodeSystem/measure-population",
              "code": "numerator-exclusion",
              "display": "Numerator Exclusion"
            } ]
          },
          "count": 0
        } ],
        "measureScore": {
          "value": 0.0
        }
      }, {
        "id": "Group_2",
        "population": [ {
          "id": "InitialPopulation_2",
          "code": {
            "coding": [ {
              "system": "http://terminology.hl7.org/CodeSystem/measure-population",
              "code": "initial-population",
              "display": "Initial Population"
            } ]
          },
          "count": 1
        }, {
          "id": "Denominator_2",
          "code": {
            "coding": [ {
              "system": "http://terminology.hl7.org/CodeSystem/measure-population",
              "code": "denominator",
              "display": "Denominator"
            } ]
          },
          "count": 1
        }, {
          "id": "Numerator_2",
          "code": {
            "coding": [ {
              "system": "http://terminology.hl7.org/CodeSystem/measure-population",
              "code": "numerator",
              "display": "Numerator"
            } ]
          },
          "count": 0
        }, {
          "id": "NumeratorExclusion_2",
          "code": {
            "coding": [ {
              "system": "http://terminology.hl7.org/CodeSystem/measure-population",
              "code": "numerator-exclusion",
              "display": "Numerator Exclusion"
            } ]
          },
          "count": 0
        } ],
        "measureScore": {
          "value": 0.0
        }
      } ],
      "evaluatedResource": [ {
        "reference": "Patient/84272be6-42eb-4320-8924-d718c9bd2754"
      }, {
        "reference": "Observation/ff1a7619-304d-4841-b60e-94b1fb005101"
      }, {
        "reference": "Observation/60da838f-0131-436b-90c4-47d5cdbe0205"
      }, {
        "reference": "Condition/87d4d335-3d31-4af7-88ad-c0707f999a78"
      }, {
        "reference": "Encounter/ab28a9e0-1396-46a4-b345-61b1f3f27805"
      }, {
        "reference": "Procedure/094a859b-94f2-425b-9907-3d38bf6ba1b8"
      }, {
        "reference": "Condition/4d301708-0126-4a43-8aa0-282ca3e8871c"
      }, {
        "reference": "Claim/ca5e2f92-91ea-4d1f-a867-12b107ba206b"
      }, {
        "reference": "Coverage/fc204b7c-95f2-4b2c-a6a0-8c26a0201604"
      }, {
        "reference": "Organization/49353979-6b4b-44ce-91c6-a96614e56b02"
      }, {
        "reference": "Practitioner/55776783-7e91-45e3-a1e0-fa78922ead49"
      } ]
    },
    "request": {
      "method": "PUT",
      "url": "MeasureReport/700e9c11-a405-4cfe-a05d-a4eabe911997"
    }
  } ]
}