{
  "resourceType": "Bundle",
  "id": "612e6eac02c62a011f2ef380",
  "type": "transaction",
  "entry": [ {
    "fullUrl": "https://madie.cms.gov/Patient/48c37537-acc1-41a7-865e-254194f4cffa",
    "resource": {
      "resourceType": "Patient",
      "id": "48c37537-acc1-41a7-865e-254194f4cffa",
      "meta": {
        "profile": [ "http://hl7.org/fhir/us/qicore/StructureDefinition/qicore-patient" ]
      },
      "text": {
        "status": "generated",
        "div": "<div xmlns=\"http://www.w3.org/1999/xhtml\"><div class=\"hapiHeaderText\">EncB4MP <b>IPFAIL </b></div><table class=\"hapiPropertyTable\"><tbody><tr><td>Identifier</td><td>1971749ced0366ba55946d4deb756887</td></tr><tr><td>Date of birth</td><td><span>03 March 1974</span></td></tr></tbody></table></div>"
      },
      "extension": [ {
        "url": "http://hl7.org/fhir/us/core/StructureDefinition/us-core-race",
        "extension": [ {
          "url": "ombCategory",
          "valueCoding": {
            "system": "urn:oid:2.16.840.1.113883.6.238",
            "code": "1002-5",
            "display": "American Indian or Alaska Native",
            "userSelected": true
          }
        }, {
          "url": "text",
          "valueString": "American Indian or Alaska Native"
        } ]
      }, {
        "url": "http://hl7.org/fhir/us/core/StructureDefinition/us-core-ethnicity",
        "extension": [ {
          "url": "ombCategory",
          "valueCoding": {
            "system": "urn:oid:2.16.840.1.113883.6.238",
            "code": "2186-5",
            "display": "Not Hispanic or Latino",
            "userSelected": true
          }
        }, {
          "url": "text",
          "valueString": "Not Hispanic or Latino"
        } ]
      } ],
      "identifier": [ {
        "type": {
          "coding": [ {
            "system": "http://terminology.hl7.org/CodeSystem/v2-0203",
            "code": "MR"
          } ]
        },
        "system": "https://bonnie-fhir.healthit.gov/",
        "value": "612e6eac02c62a011f2ef380"
      } ],
      "active": true,
      "name": [ {
        "use": "usual",
        "family": "IPFail",
        "given": [ "EncB4MP" ]
      } ],
      "gender": "female",
      "birthDate": "1975-03-03"
    },
    "request": {
      "method": "PUT",
      "url": "Patient/48c37537-acc1-41a7-865e-254194f4cffa"
    }
  }, {
    "fullUrl": "https://madie.cms.gov/Encounter/8e441dd0-fd0f-475e-a98a-b07d075a1ee6",
    "resource": {
      "resourceType": "Encounter",
      "id": "8e441dd0-fd0f-475e-a98a-b07d075a1ee6",
      "meta": {
        "profile": [ "http://hl7.org/fhir/us/qicore/StructureDefinition/qicore-encounter" ]
      },
      "status": "finished",
      "class": {
        "system": "http://terminology.hl7.org/CodeSystem/v3-ActCode",
        "code": "IMP",
        "display": "inpatient encounter"
      },
      "type": [ {
        "coding": [ {
          "system": "http://snomed.info/sct",
          "code": "8715000"
        } ]
      } ],
      "subject": {
        "reference": "Patient/48c37537-acc1-41a7-865e-254194f4cffa"
      },
      "period": {
        "start": "2021-12-04T08:00:00.000+00:00",
        "end": "2021-12-30T08:15:00.000+00:00"
      },
      "length": {
        "value": 26.0,
        "unit": "days"
      }
    },
    "request": {
      "method": "PUT",
      "url": "Encounter/8e441dd0-fd0f-475e-a98a-b07d075a1ee6"
    }
  }, {
    "fullUrl": "https://madie.cms.gov/Coverage/d59a53a0-532e-4fe0-9306-6b907eba9680",
    "resource": {
      "resourceType": "Coverage",
      "id": "d59a53a0-532e-4fe0-9306-6b907eba9680",
      "status": "active",
      "beneficiary": {
        "reference": "Patient/48c37537-acc1-41a7-865e-254194f4cffa"
      },
      "period": {
        "start": "1975-03-03T08:00:00.000+00:00"
      },
      "payor": [ {
        "reference": "Organization/fc8660d4-c6d7-45e9-954e-71b1d84f48a0"
      } ]
    },
    "request": {
      "method": "PUT",
      "url": "Coverage/d59a53a0-532e-4fe0-9306-6b907eba9680"
    }
  }, {
    "fullUrl": "https://madie.cms.gov/Condition/1b08312e-aa5b-4253-bf89-716bdc4fcf8b",
    "resource": {
      "resourceType": "Condition",
      "id": "1b08312e-aa5b-4253-bf89-716bdc4fcf8b",
      "category": [ {
        "coding": [ {
          "system": "http://terminology.hl7.org/CodeSystem/condition-category",
          "code": "problem-list-item",
          "display": "Problem List Item"
        } ]
      } ],
      "code": {
        "coding": [ {
          "system": "http://hl7.org/fhir/sid/icd-10-cm",
          "code": "I26.09"
        }, {
          "system": "http://hl7.org/fhir/sid/icd-9-cm",
          "code": "415.11"
        }, {
          "system": "http://snomed.info/sct",
          "code": "132251000119101"
        } ]
      },
      "subject": {
        "reference": "Patient/48c37537-acc1-41a7-865e-254194f4cffa"
      },
      "onsetPeriod": {
        "start": "2026-10-04T08:00:00.000+00:00",
        "end": "2026-10-05T08:15:00.000+00:00"
      }
    },
    "request": {
      "method": "PUT",
      "url": "Condition/1b08312e-aa5b-4253-bf89-716bdc4fcf8b"
    }
  }, {
    "fullUrl": "https://madie.cms.gov/Organization/fc8660d4-c6d7-45e9-954e-71b1d84f48a0",
    "resource": {
      "resourceType": "Organization",
      "id": "fc8660d4-c6d7-45e9-954e-71b1d84f48a0",
      "meta": {
        "profile": [ "http://hl7.org/fhir/us/qicore/StructureDefinition/qicore-organization" ]
      },
      "identifier": [ {
        "use": "temp",
        "system": "urn:oid:2.16.840.1.113883.4.4",
        "value": "21-3259825"
      } ],
      "active": true,
      "type": [ {
        "coding": [ {
          "system": "http://terminology.hl7.org/CodeSystem/organization-type",
          "code": "pay",
          "display": "Payer"
        } ]
      } ],
      "name": "Blue Cross Blue Shield of Texas",
      "telecom": [ {
        "system": "phone",
        "value": "(+1) 972-766-6900"
      } ],
      "address": [ {
        "use": "billing",
        "type": "postal",
        "line": [ "P.O. Box 660044" ],
        "city": "Dallas",
        "state": "TX",
        "postalCode": "75266-0044",
        "country": "USA"
      } ]
    },
    "request": {
      "method": "PUT",
      "url": "Organization/fc8660d4-c6d7-45e9-954e-71b1d84f48a0"
    }
  }, {
    "fullUrl": "https://madie.cms.gov/Practitioner/8a174990-d243-43dc-9f99-af2818d568a4",
    "resource": {
      "resourceType": "Practitioner",
      "id": "8a174990-d243-43dc-9f99-af2818d568a4",
      "identifier": [ {
        "system": "http://hl7.org/fhir/sid/us-npi",
        "value": "123456"
      } ],
      "name": [ {
        "family": "Evil",
        "prefix": [ "Dr" ]
      } ]
    },
    "request": {
      "method": "PUT",
      "url": "Practitioner/8a174990-d243-43dc-9f99-af2818d568a4"
    }
  }, {
    "fullUrl": "https://madie.cms.gov/MeasureReport/7725857f-3e7f-40f9-a2b9-3f8f56d400ab",
    "resource": {
      "resourceType": "MeasureReport",
      "id": "7725857f-3e7f-40f9-a2b9-3f8f56d400ab",
      "meta": {
        "profile": [ "http://hl7.org/fhir/us/cqfmeasures/StructureDefinition/test-case-cqfm" ]
      },
      "contained": [ {
        "resourceType": "Parameters",
        "id": "5db916a9-86fb-4663-9fa4-eb7b0ce8fe04-parameters",
        "parameter": [ {
          "name": "subject",
          "valueString": "48c37537-acc1-41a7-865e-254194f4cffa"
        } ]
      } ],
      "extension": [ {
        "url": "http://hl7.org/fhir/StructureDefinition/cqf-inputParameters",
        "valueReference": {
          "reference": "#5db916a9-86fb-4663-9fa4-eb7b0ce8fe04-parameters"
        }
      }, {
        "url": "http://hl7.org/fhir/us/cqfmeasures/StructureDefinition/cqfm-testCaseDescription",
        "valueMarkdown": "encounter before MP\n"
      } ],
      "modifierExtension": [ {
        "url": "http://hl7.org/fhir/us/cqfmeasures/StructureDefinition/cqfm-isTestCase",
        "valueBoolean": true
      } ],
      "status": "complete",
      "type": "individual",
      "measure": "https://madie.cms.gov/Measure/CMS190FHIRVTEProphylaxisICU",
      "period": {
        "start": "2026-01-01",
        "end": "2026-12-31"
      },
      "group": [ {
        "id": "Group_1",
        "population": [ {
          "id": "InitialPopulation_1",
          "code": {
            "coding": [ {
              "system": "http://terminology.hl7.org/CodeSystem/measure-population",
              "code": "initial-population",
              "display": "Initial Population"
            } ]
          },
          "count": 0
        }, {
          "id": "Denominator_1",
          "code": {
            "coding": [ {
              "system": "http://terminology.hl7.org/CodeSystem/measure-population",
              "code": "denominator",
              "display": "Denominator"
            } ]
          },
          "count": 0
        }, {
          "id": "DenominatorExclusion_1",
          "code": {
            "coding": [ {
              "system": "http://terminology.hl7.org/CodeSystem/measure-population",
              "code": "denominator-exclusion",
              "display": "Denominator Exclusion"
            } ]
          },
          "count": 0
        }, {
          "id": "Numerator_1",
          "code": {
            "coding": [ {
              "system": "http://terminology.hl7.org/CodeSystem/measure-population",
              "code": "numerator",
              "display": "Numerator"
            } ]
          },
          "count": 0
        }, {
          "id": "DenominatorException_1",
          "code": {
            "coding": [ {
              "system": "http://terminology.hl7.org/CodeSystem/measure-population",
              "code": "denominator-exception",
              "display": "Denominator Exception"
            } ]
          },
          "count": 0
        } ],
        "measureScore": {
          "value": 0.0
        }
      } ],
      "evaluatedResource": [ {
        "reference": "Patient/48c37537-acc1-41a7-865e-254194f4cffa"
      }, {
        "reference": "Encounter/8e441dd0-fd0f-475e-a98a-b07d075a1ee6"
      }, {
        "reference": "Coverage/d59a53a0-532e-4fe0-9306-6b907eba9680"
      }, {
        "reference": "Condition/1b08312e-aa5b-4253-bf89-716bdc4fcf8b"
      }, {
        "reference": "Organization/fc8660d4-c6d7-45e9-954e-71b1d84f48a0"
      }, {
        "reference": "Practitioner/8a174990-d243-43dc-9f99-af2818d568a4"
      } ]
    },
    "request": {
      "method": "PUT",
      "url": "MeasureReport/7725857f-3e7f-40f9-a2b9-3f8f56d400ab"
    }
  } ]
}