{
  "resourceType": "Bundle",
  "id": "612e6f2202c62a011f2f0cb3",
  "type": "transaction",
  "entry": [ {
    "fullUrl": "https://madie.cms.gov/Patient/2ccdf3cd-9f94-4d9c-ab2a-e78a4dd46876",
    "resource": {
      "resourceType": "Patient",
      "id": "2ccdf3cd-9f94-4d9c-ab2a-e78a4dd46876",
      "meta": {
        "profile": [ "http://hl7.org/fhir/us/qicore/StructureDefinition/qicore-patient" ]
      },
      "text": {
        "status": "generated",
        "div": "<div xmlns=\"http://www.w3.org/1999/xhtml\"><div class=\"hapiHeaderText\">MedReasonMARix2DaysAfterStartICU <b>NUMERFAIL </b></div><table class=\"hapiPropertyTable\"><tbody><tr><td>Identifier</td><td>9171ed8e3c126b0a718e996cdf49d57a</td></tr><tr><td>Date of birth</td><td><span>03 March 1974</span></td></tr></tbody></table></div>"
      },
      "extension": [ {
        "url": "http://hl7.org/fhir/us/core/StructureDefinition/us-core-race",
        "extension": [ {
          "url": "ombCategory",
          "valueCoding": {
            "system": "urn:oid:2.16.840.1.113883.6.238",
            "code": "1002-5",
            "display": "American Indian or Alaska Native",
            "userSelected": true
          }
        }, {
          "url": "text",
          "valueString": "American Indian or Alaska Native"
        } ]
      }, {
        "url": "http://hl7.org/fhir/us/core/StructureDefinition/us-core-ethnicity",
        "extension": [ {
          "url": "ombCategory",
          "valueCoding": {
            "system": "urn:oid:2.16.840.1.113883.6.238",
            "code": "2135-2",
            "display": "Hispanic or Latino",
            "userSelected": true
          }
        }, {
          "url": "text",
          "valueString": "Hispanic or Latino"
        } ]
      } ],
      "identifier": [ {
        "type": {
          "coding": [ {
            "system": "http://terminology.hl7.org/CodeSystem/v2-0203",
            "code": "MR"
          } ]
        },
        "system": "https://bonnie-fhir.healthit.gov/",
        "value": "612e6f2202c62a011f2f0cb3"
      } ],
      "active": true,
      "name": [ {
        "use": "usual",
        "family": "NUMERFail",
        "given": [ "MedReasonMARix2DaysAfterStartICU" ]
      } ],
      "gender": "female",
      "birthDate": "1975-03-03"
    },
    "request": {
      "method": "PUT",
      "url": "Patient/2ccdf3cd-9f94-4d9c-ab2a-e78a4dd46876"
    }
  }, {
    "fullUrl": "https://madie.cms.gov/Encounter/ef7cef01-4140-419a-864d-bc5be9b01021",
    "resource": {
      "resourceType": "Encounter",
      "id": "ef7cef01-4140-419a-864d-bc5be9b01021",
      "meta": {
        "profile": [ "http://hl7.org/fhir/us/qicore/StructureDefinition/qicore-encounter" ]
      },
      "status": "finished",
      "class": {
        "system": "http://terminology.hl7.org/CodeSystem/v3-ActCode",
        "code": "IMP",
        "display": "inpatient encounter"
      },
      "type": [ {
        "coding": [ {
          "system": "http://snomed.info/sct",
          "code": "8715000"
        } ]
      } ],
      "subject": {
        "reference": "Patient/2ccdf3cd-9f94-4d9c-ab2a-e78a4dd46876"
      },
      "period": {
        "start": "2026-12-01T00:00:00.000+00:00",
        "end": "2026-12-31T23:59:00.000+00:00"
      },
      "length": {
        "value": 30,
        "unit": "days"
      },
      "location": [ {
        "location": {
          "reference": "Location/3a065da4-7931-4793-af13-96dd8455d515"
        },
        "period": {
          "start": "2026-12-01T00:01:00.000+00:00",
          "end": "2026-12-15T23:59:00.000+00:00"
        }
      } ]
    },
    "request": {
      "method": "PUT",
      "url": "Encounter/ef7cef01-4140-419a-864d-bc5be9b01021"
    }
  }, {
    "fullUrl": "https://madie.cms.gov/Encounter/d846d55c-53a7-47ed-8ab3-5ad78e722cc3",
    "resource": {
      "resourceType": "Encounter",
      "id": "d846d55c-53a7-47ed-8ab3-5ad78e722cc3",
      "meta": {
        "profile": [ "http://hl7.org/fhir/us/qicore/StructureDefinition/qicore-encounter" ]
      },
      "status": "finished",
      "class": {
        "system": "http://terminology.hl7.org/CodeSystem/v3-ActCode",
        "code": "IMP",
        "display": "inpatient encounter"
      },
      "type": [ {
        "coding": [ {
          "system": "http://snomed.info/sct",
          "code": "183446009"
        } ]
      } ],
      "subject": {
        "reference": "Patient/2ccdf3cd-9f94-4d9c-ab2a-e78a4dd46876"
      },
      "period": {
        "start": "2026-12-22T00:00:00.000+00:00",
        "end": "2026-12-31T23:59:00.000+00:00"
      },
      "length": {
        "value": 9,
        "unit": "days"
      }
    },
    "request": {
      "method": "PUT",
      "url": "Encounter/d846d55c-53a7-47ed-8ab3-5ad78e722cc3"
    }
  }, {
    "fullUrl": "https://madie.cms.gov/Coverage/d0754f1a-b215-457d-8c10-f3c2e158ada3",
    "resource": {
      "resourceType": "Coverage",
      "id": "d0754f1a-b215-457d-8c10-f3c2e158ada3",
      "status": "active",
      "beneficiary": {
        "reference": "Patient/2ccdf3cd-9f94-4d9c-ab2a-e78a4dd46876"
      },
      "period": {
        "start": "1975-03-03T08:00:00.000+00:00"
      },
      "payor": [ {
        "reference": "Organization/10eaae8d-308c-4280-8274-cd90b217c27b"
      } ]
    },
    "request": {
      "method": "PUT",
      "url": "Coverage/d0754f1a-b215-457d-8c10-f3c2e158ada3"
    }
  }, {
    "fullUrl": "https://madie.cms.gov/MedicationAdministration/b61eac0f-51c7-415c-a5a0-6b7edf18fbc6",
    "resource": {
      "resourceType": "MedicationAdministration",
      "id": "b61eac0f-51c7-415c-a5a0-6b7edf18fbc6",
      "meta": {
        "profile": [ "http://hl7.org/fhir/us/qicore/StructureDefinition/qicore-medicationadministrationnotdone" ]
      },
      "extension": [ {
        "url": "http://hl7.org/fhir/us/qicore/StructureDefinition/qicore-recorded",
        "valueDateTime": "2026-12-03T07:00:00.000+00:00"
      } ],
      "status": "not-done",
      "statusReason": [ {
        "coding": [ {
          "system": "http://snomed.info/sct",
          "code": "183932001",
          "display": "Procedure contraindicated (situation)",
          "userSelected": true
        } ]
      } ],
      "medicationCodeableConcept": {
        "coding": [ {
          "system": "http://www.nlm.nih.gov/research/umls/rxnorm",
          "code": "2588062",
          "display": "rivaroxaban 1 MG/ML Oral Suspension"
        } ]
      },
      "subject": {
        "reference": "Patient/2ccdf3cd-9f94-4d9c-ab2a-e78a4dd46876"
      },
      "effectivePeriod": {
        "start": "2026-12-03T00:00:00.000+00:00"
      }
    },
    "request": {
      "method": "PUT",
      "url": "MedicationAdministration/b61eac0f-51c7-415c-a5a0-6b7edf18fbc6"
    }
  }, {
    "fullUrl": "https://madie.cms.gov/Location/3a065da4-7931-4793-af13-96dd8455d515",
    "resource": {
      "resourceType": "Location",
      "id": "3a065da4-7931-4793-af13-96dd8455d515",
      "meta": {
        "profile": [ "http://hl7.org/fhir/us/qicore/StructureDefinition/qicore-location" ]
      },
      "identifier": [ {
        "use": "usual",
        "system": "http://exampleoflocation.com",
        "value": "B1-S.F2"
      } ],
      "name": "Medical Surgical East, first floor",
      "type": [ {
        "coding": [ {
          "system": "https://www.cdc.gov/nhsn/cdaportal/terminology/codesystem/hsloc.html",
          "code": "1025-6",
          "display": "Trauma Critical Care",
          "userSelected": true
        } ]
      } ]
    },
    "request": {
      "method": "PUT",
      "url": "Location/3a065da4-7931-4793-af13-96dd8455d515"
    }
  }, {
    "fullUrl": "https://madie.cms.gov/Organization/10eaae8d-308c-4280-8274-cd90b217c27b",
    "resource": {
      "resourceType": "Organization",
      "id": "10eaae8d-308c-4280-8274-cd90b217c27b",
      "meta": {
        "profile": [ "http://hl7.org/fhir/us/qicore/StructureDefinition/qicore-organization" ]
      },
      "identifier": [ {
        "use": "temp",
        "system": "urn:oid:2.16.840.1.113883.4.4",
        "value": "21-3259825"
      } ],
      "active": true,
      "type": [ {
        "coding": [ {
          "system": "http://terminology.hl7.org/CodeSystem/organization-type",
          "code": "pay",
          "display": "Payer"
        } ]
      } ],
      "name": "Blue Cross Blue Shield of Texas",
      "telecom": [ {
        "system": "phone",
        "value": "(+1) 972-766-6900"
      } ],
      "address": [ {
        "use": "billing",
        "type": "postal",
        "line": [ "P.O. Box 660044" ],
        "city": "Dallas",
        "state": "TX",
        "postalCode": "75266-0044",
        "country": "USA"
      } ]
    },
    "request": {
      "method": "PUT",
      "url": "Organization/10eaae8d-308c-4280-8274-cd90b217c27b"
    }
  }, {
    "fullUrl": "https://madie.cms.gov/Practitioner/3cc07040-2c8d-4f5b-b754-30becadbde6f",
    "resource": {
      "resourceType": "Practitioner",
      "id": "3cc07040-2c8d-4f5b-b754-30becadbde6f",
      "identifier": [ {
        "system": "http://hl7.org/fhir/sid/us-npi",
        "value": "123456"
      } ],
      "name": [ {
        "family": "Evil",
        "prefix": [ "Dr" ]
      } ]
    },
    "request": {
      "method": "PUT",
      "url": "Practitioner/3cc07040-2c8d-4f5b-b754-30becadbde6f"
    }
  }, {
    "fullUrl": "https://madie.cms.gov/MeasureReport/bff45ea1-0c86-4a83-ba9c-a92e62658919",
    "resource": {
      "resourceType": "MeasureReport",
      "id": "bff45ea1-0c86-4a83-ba9c-a92e62658919",
      "meta": {
        "profile": [ "http://hl7.org/fhir/us/cqfmeasures/StructureDefinition/test-case-cqfm" ]
      },
      "contained": [ {
        "resourceType": "Parameters",
        "id": "501d9acd-2f2d-42c6-912c-4f31381c43ff-parameters",
        "parameter": [ {
          "name": "subject",
          "valueString": "2ccdf3cd-9f94-4d9c-ab2a-e78a4dd46876"
        } ]
      } ],
      "extension": [ {
        "url": "http://hl7.org/fhir/StructureDefinition/cqf-inputParameters",
        "valueReference": {
          "reference": "#501d9acd-2f2d-42c6-912c-4f31381c43ff-parameters"
        }
      }, {
        "url": "http://hl7.org/fhir/us/cqfmeasures/StructureDefinition/cqfm-testCaseDescription",
        "valueMarkdown": "Rivaroxaban  for VTE Prophylaxis was administered \n 2 days after ICU admission, no anesthesia.\n"
      } ],
      "modifierExtension": [ {
        "url": "http://hl7.org/fhir/us/cqfmeasures/StructureDefinition/cqfm-isTestCase",
        "valueBoolean": true
      } ],
      "status": "complete",
      "type": "individual",
      "measure": "https://madie.cms.gov/Measure/CMS190FHIRVTEProphylaxisICU",
      "period": {
        "start": "2026-01-01",
        "end": "2026-12-31"
      },
      "group": [ {
        "id": "Group_1",
        "population": [ {
          "id": "InitialPopulation_1",
          "code": {
            "coding": [ {
              "system": "http://terminology.hl7.org/CodeSystem/measure-population",
              "code": "initial-population",
              "display": "Initial Population"
            } ]
          },
          "count": 1
        }, {
          "id": "Denominator_1",
          "code": {
            "coding": [ {
              "system": "http://terminology.hl7.org/CodeSystem/measure-population",
              "code": "denominator",
              "display": "Denominator"
            } ]
          },
          "count": 1
        }, {
          "id": "DenominatorExclusion_1",
          "code": {
            "coding": [ {
              "system": "http://terminology.hl7.org/CodeSystem/measure-population",
              "code": "denominator-exclusion",
              "display": "Denominator Exclusion"
            } ]
          },
          "count": 0
        }, {
          "id": "Numerator_1",
          "code": {
            "coding": [ {
              "system": "http://terminology.hl7.org/CodeSystem/measure-population",
              "code": "numerator",
              "display": "Numerator"
            } ]
          },
          "count": 0
        }, {
          "id": "DenominatorException_1",
          "code": {
            "coding": [ {
              "system": "http://terminology.hl7.org/CodeSystem/measure-population",
              "code": "denominator-exception",
              "display": "Denominator Exception"
            } ]
          },
          "count": 0
        } ],
        "measureScore": {
          "value": 0.0
        }
      } ],
      "evaluatedResource": [ {
        "reference": "Patient/2ccdf3cd-9f94-4d9c-ab2a-e78a4dd46876"
      }, {
        "reference": "Encounter/ef7cef01-4140-419a-864d-bc5be9b01021"
      }, {
        "reference": "Encounter/d846d55c-53a7-47ed-8ab3-5ad78e722cc3"
      }, {
        "reference": "Coverage/d0754f1a-b215-457d-8c10-f3c2e158ada3"
      }, {
        "reference": "MedicationAdministration/b61eac0f-51c7-415c-a5a0-6b7edf18fbc6"
      }, {
        "reference": "Location/3a065da4-7931-4793-af13-96dd8455d515"
      }, {
        "reference": "Organization/10eaae8d-308c-4280-8274-cd90b217c27b"
      }, {
        "reference": "Practitioner/3cc07040-2c8d-4f5b-b754-30becadbde6f"
      } ]
    },
    "request": {
      "method": "PUT",
      "url": "MeasureReport/bff45ea1-0c86-4a83-ba9c-a92e62658919"
    }
  } ]
}