{
  "resourceType": "Bundle",
  "id": "6356dca654e383debade75aa",
  "type": "transaction",
  "entry": [ {
    "fullUrl": "https://madie.cms.gov/Patient/e3df2e40-9fb8-4400-805e-7c504c8f88c2",
    "resource": {
      "resourceType": "Patient",
      "id": "e3df2e40-9fb8-4400-805e-7c504c8f88c2",
      "meta": {
        "profile": [ "http://hl7.org/fhir/us/qicore/StructureDefinition/qicore-patient" ]
      },
      "text": {
        "status": "generated",
        "div": "<div xmlns=\"http://www.w3.org/1999/xhtml\"><div class=\"hapiHeaderText\">1ENCMeets1EncDoesNotMeet <b>NUMERPass</b></div><table class=\"hapiPropertyTable\"><tbody><tr><td>Date of birth</td><td><span>01 February 2004</span></td></tr></tbody></table></div>"
      },
      "extension": [ {
        "url": "http://hl7.org/fhir/us/core/StructureDefinition/us-core-race",
        "extension": [ {
          "url": "ombCategory",
          "valueCoding": {
            "system": "urn:oid:2.16.840.1.113883.6.238",
            "code": "1002-5",
            "display": "American Indian or Alaska Native",
            "userSelected": true
          }
        }, {
          "url": "text",
          "valueString": "American Indian or Alaska Native"
        } ]
      }, {
        "url": "http://hl7.org/fhir/us/core/StructureDefinition/us-core-ethnicity",
        "extension": [ {
          "url": "ombCategory",
          "valueCoding": {
            "system": "urn:oid:2.16.840.1.113883.6.238",
            "code": "2135-2",
            "display": "Hispanic or Latino",
            "userSelected": true
          }
        }, {
          "url": "text",
          "valueString": "Hispanic or Latino"
        } ]
      } ],
      "identifier": [ {
        "type": {
          "coding": [ {
            "system": "http://terminology.hl7.org/CodeSystem/v2-0203",
            "code": "MR"
          } ]
        },
        "system": "https://bonnie-fhir.healthit.gov/",
        "value": "6356dca654e383debade75aa"
      } ],
      "active": true,
      "name": [ {
        "use": "usual",
        "family": "NUMERPass",
        "given": [ "1ENCMeets1EncDoesNotMeet" ]
      } ],
      "gender": "female",
      "birthDate": "2005-02-01"
    },
    "request": {
      "method": "PUT",
      "url": "Patient/e3df2e40-9fb8-4400-805e-7c504c8f88c2"
    }
  }, {
    "fullUrl": "https://madie.cms.gov/Observation/c1bd543f-c687-4ae5-8252-79dffa979501",
    "resource": {
      "resourceType": "Observation",
      "id": "c1bd543f-c687-4ae5-8252-79dffa979501",
      "meta": {
        "profile": [ "http://hl7.org/fhir/us/qicore/StructureDefinition/qicore-simple-observation" ]
      },
      "status": "final",
      "category": [ {
        "coding": [ {
          "system": "http://terminology.hl7.org/CodeSystem/observation-category",
          "code": "exam",
          "display": "exam",
          "userSelected": true
        } ]
      } ],
      "code": {
        "coding": [ {
          "system": "http://loinc.org",
          "code": "93857-1"
        } ]
      },
      "subject": {
        "reference": "Patient/e3df2e40-9fb8-4400-805e-7c504c8f88c2"
      },
      "effectiveDateTime": "2026-02-01T08:00:00.000+00:00",
      "performer": [ {
        "reference": "Organization/example1",
        "display": "Hendricks Country Hospital"
      } ],
      "valueDateTime": "2026-02-01T08:00:00.000+00:00"
    },
    "request": {
      "method": "PUT",
      "url": "Observation/c1bd543f-c687-4ae5-8252-79dffa979501"
    }
  }, {
    "fullUrl": "https://madie.cms.gov/Observation/57816b73-fa5a-4b9c-a832-a53645bae652",
    "resource": {
      "resourceType": "Observation",
      "id": "57816b73-fa5a-4b9c-a832-a53645bae652",
      "meta": {
        "profile": [ "http://hl7.org/fhir/us/qicore/StructureDefinition/qicore-simple-observation" ]
      },
      "status": "final",
      "category": [ {
        "coding": [ {
          "system": "http://terminology.hl7.org/CodeSystem/observation-category",
          "code": "exam",
          "display": "exam",
          "userSelected": true
        } ]
      } ],
      "code": {
        "coding": [ {
          "system": "http://loinc.org",
          "code": "93857-1"
        } ]
      },
      "subject": {
        "reference": "Patient/e3df2e40-9fb8-4400-805e-7c504c8f88c2"
      },
      "effectiveDateTime": "2026-11-10T08:00:00.000+00:00",
      "performer": [ {
        "reference": "Organization/example1",
        "display": "Hendricks Country Hospital"
      } ],
      "valueDateTime": "2026-11-10T08:00:00.000+00:00"
    },
    "request": {
      "method": "PUT",
      "url": "Observation/57816b73-fa5a-4b9c-a832-a53645bae652"
    }
  }, {
    "fullUrl": "https://madie.cms.gov/Observation/fa8cf93f-095c-4b16-827e-760d6ec397ff",
    "resource": {
      "resourceType": "Observation",
      "id": "fa8cf93f-095c-4b16-827e-760d6ec397ff",
      "meta": {
        "profile": [ "http://hl7.org/fhir/us/qicore/StructureDefinition/qicore-simple-observation" ]
      },
      "status": "final",
      "category": [ {
        "coding": [ {
          "system": "http://terminology.hl7.org/CodeSystem/observation-category",
          "code": "exam",
          "display": "exam",
          "userSelected": true
        } ]
      } ],
      "code": {
        "coding": [ {
          "system": "http://loinc.org",
          "code": "11884-4"
        } ]
      },
      "subject": {
        "reference": "Patient/e3df2e40-9fb8-4400-805e-7c504c8f88c2"
      },
      "effectiveDateTime": "2026-02-01T08:00:00.000+00:00",
      "performer": [ {
        "reference": "Organization/example1",
        "display": "Hendricks Country Hospital"
      } ],
      "valueQuantity": {
        "value": 21,
        "system": "http://unitsofmeasure.org",
        "code": "wk"
      }
    },
    "request": {
      "method": "PUT",
      "url": "Observation/fa8cf93f-095c-4b16-827e-760d6ec397ff"
    }
  }, {
    "fullUrl": "https://madie.cms.gov/Observation/9ab31ab2-e475-46a3-a4ae-8c889acd6b0d",
    "resource": {
      "resourceType": "Observation",
      "id": "9ab31ab2-e475-46a3-a4ae-8c889acd6b0d",
      "meta": {
        "profile": [ "http://hl7.org/fhir/us/qicore/StructureDefinition/qicore-simple-observation" ]
      },
      "status": "final",
      "category": [ {
        "coding": [ {
          "system": "http://terminology.hl7.org/CodeSystem/observation-category",
          "code": "exam",
          "display": "exam",
          "userSelected": true
        } ]
      } ],
      "code": {
        "coding": [ {
          "system": "http://loinc.org",
          "code": "11884-4"
        } ]
      },
      "subject": {
        "reference": "Patient/e3df2e40-9fb8-4400-805e-7c504c8f88c2"
      },
      "effectiveDateTime": "2026-11-10T08:00:00.000+00:00",
      "performer": [ {
        "reference": "Organization/example1",
        "display": "Hendricks Country Hospital"
      } ],
      "valueQuantity": {
        "value": 23,
        "system": "http://unitsofmeasure.org",
        "code": "wk"
      }
    },
    "request": {
      "method": "PUT",
      "url": "Observation/9ab31ab2-e475-46a3-a4ae-8c889acd6b0d"
    }
  }, {
    "fullUrl": "https://madie.cms.gov/Encounter/08fb5554-7cac-4732-9aeb-a86bde0c4a31",
    "resource": {
      "resourceType": "Encounter",
      "id": "08fb5554-7cac-4732-9aeb-a86bde0c4a31",
      "meta": {
        "profile": [ "http://hl7.org/fhir/us/qicore/StructureDefinition/qicore-encounter" ]
      },
      "status": "finished",
      "class": {
        "system": "http://terminology.hl7.org/CodeSystem/v3-ActCode",
        "code": "IMP",
        "display": "inpatient encounter"
      },
      "type": [ {
        "coding": [ {
          "system": "http://snomed.info/sct",
          "code": "183452005"
        } ]
      } ],
      "subject": {
        "reference": "Patient/e3df2e40-9fb8-4400-805e-7c504c8f88c2"
      },
      "period": {
        "start": "2026-02-01T08:00:00.000+00:00",
        "end": "2026-02-05T08:15:00.000+00:00"
      }
    },
    "request": {
      "method": "PUT",
      "url": "Encounter/08fb5554-7cac-4732-9aeb-a86bde0c4a31"
    }
  }, {
    "fullUrl": "https://madie.cms.gov/Encounter/06597766-88e8-4b93-a5aa-1fa5c5e7ebd6",
    "resource": {
      "resourceType": "Encounter",
      "id": "06597766-88e8-4b93-a5aa-1fa5c5e7ebd6",
      "meta": {
        "profile": [ "http://hl7.org/fhir/us/qicore/StructureDefinition/qicore-encounter" ]
      },
      "status": "finished",
      "class": {
        "system": "http://terminology.hl7.org/CodeSystem/v3-ActCode",
        "code": "IMP",
        "display": "inpatient encounter"
      },
      "type": [ {
        "coding": [ {
          "system": "http://snomed.info/sct",
          "code": "183452005"
        } ]
      } ],
      "subject": {
        "reference": "Patient/e3df2e40-9fb8-4400-805e-7c504c8f88c2"
      },
      "period": {
        "start": "2026-11-10T08:00:00.000+00:00",
        "end": "2026-11-15T08:15:00.000+00:00"
      },
      "diagnosis": [ {
        "extension": [ {
          "url": "http://hl7.org/fhir/us/qicore/StructureDefinition/qicore-encounter-diagnosisPresentOnAdmission",
          "valueCodeableConcept": {
            "coding": [ {
              "system": "https://www.cms.gov/Medicare/Medicare-Fee-for-Service-Payment/HospitalAcqCond/Coding",
              "code": "N"
            } ]
          }
        } ],
        "condition": {
          "reference": "Condition/19163fe1-871f-4d21-9f2e-b61db06aae1f"
        }
      } ]
    },
    "request": {
      "method": "PUT",
      "url": "Encounter/06597766-88e8-4b93-a5aa-1fa5c5e7ebd6"
    }
  }, {
    "fullUrl": "https://madie.cms.gov/Procedure/c1c6d62f-21b8-43ab-a9af-bd63c6343f40",
    "resource": {
      "resourceType": "Procedure",
      "id": "c1c6d62f-21b8-43ab-a9af-bd63c6343f40",
      "meta": {
        "profile": [ "http://hl7.org/fhir/us/qicore/StructureDefinition/qicore-procedure" ]
      },
      "extension": [ {
        "url": "http://hl7.org/fhir/us/qicore/StructureDefinition/qicore-recorded",
        "valueDateTime": "2014-04-05T13:35:00.000+00:00"
      } ],
      "status": "completed",
      "code": {
        "coding": [ {
          "system": "http://snomed.info/sct",
          "code": "10745001"
        } ]
      },
      "subject": {
        "reference": "Patient/e3df2e40-9fb8-4400-805e-7c504c8f88c2"
      },
      "performedPeriod": {
        "start": "2026-02-01T08:00:00.000+00:00",
        "end": "2026-02-05T08:15:00.000+00:00"
      }
    },
    "request": {
      "method": "PUT",
      "url": "Procedure/c1c6d62f-21b8-43ab-a9af-bd63c6343f40"
    }
  }, {
    "fullUrl": "https://madie.cms.gov/Procedure/c1c6d62f-21b8-43ab-a9af-bd63c6343f402",
    "resource": {
      "resourceType": "Procedure",
      "id": "c1c6d62f-21b8-43ab-a9af-bd63c6343f402",
      "meta": {
        "profile": [ "http://hl7.org/fhir/us/qicore/StructureDefinition/qicore-procedure" ]
      },
      "extension": [ {
        "url": "http://hl7.org/fhir/us/qicore/StructureDefinition/qicore-recorded",
        "valueDateTime": "2014-04-05T13:35:00.000+00:00"
      } ],
      "status": "completed",
      "code": {
        "coding": [ {
          "system": "http://snomed.info/sct",
          "code": "10745001"
        } ]
      },
      "subject": {
        "reference": "Patient/e3df2e40-9fb8-4400-805e-7c504c8f88c2"
      },
      "performedPeriod": {
        "start": "2026-11-10T08:00:00.000+00:00",
        "end": "2026-11-10T08:15:00.000+00:00"
      }
    },
    "request": {
      "method": "PUT",
      "url": "Procedure/c1c6d62f-21b8-43ab-a9af-bd63c6343f402"
    }
  }, {
    "fullUrl": "https://madie.cms.gov/Condition/19163fe1-871f-4d21-9f2e-b61db06aae1f",
    "resource": {
      "resourceType": "Condition",
      "id": "19163fe1-871f-4d21-9f2e-b61db06aae1f",
      "meta": {
        "profile": [ "http://hl7.org/fhir/us/qicore/StructureDefinition/qicore-condition" ]
      },
      "category": [ {
        "coding": [ {
          "system": "http://terminology.hl7.org/CodeSystem/condition-category",
          "code": "encounter-diagnosis",
          "display": "Encounter Diagnosis"
        } ]
      } ],
      "code": {
        "coding": [ {
          "system": "http://hl7.org/fhir/sid/icd-10-cm",
          "version": "2023",
          "code": "A32.7",
          "display": "Listerial sepsis",
          "userSelected": true
        } ]
      },
      "subject": {
        "reference": "Patient/e3df2e40-9fb8-4400-805e-7c504c8f88c2"
      },
      "recordedDate": "2026-10-26T08:00:00.000+00:00"
    },
    "request": {
      "method": "PUT",
      "url": "Condition/19163fe1-871f-4d21-9f2e-b61db06aae1f"
    }
  }, {
    "fullUrl": "https://madie.cms.gov/Claim/8fc941d1-f321-4619-b02d-abd49d428566",
    "resource": {
      "resourceType": "Claim",
      "id": "8fc941d1-f321-4619-b02d-abd49d428566",
      "meta": {
        "profile": [ "http://hl7.org/fhir/us/qicore/StructureDefinition/qicore-claim" ]
      },
      "status": "active",
      "type": {
        "coding": [ {
          "system": "http://terminology.hl7.org/CodeSystem/claim-type",
          "code": "institutional",
          "display": "Institutional"
        } ]
      },
      "use": "claim",
      "patient": {
        "reference": "Patient/e3df2e40-9fb8-4400-805e-7c504c8f88c2"
      },
      "created": "2026-11-16",
      "provider": {
        "reference": "Practitioner/23c14dc3-3df5-4cb6-9a4e-abcbec2197bb"
      },
      "priority": {
        "coding": [ {
          "system": "http://terminology.hl7.org/CodeSystem/processpriority",
          "code": "normal"
        } ]
      },
      "diagnosis": [ {
        "sequence": 1,
        "diagnosisCodeableConcept": {
          "coding": [ {
            "system": "http://hl7.org/fhir/sid/icd-10-cm",
            "code": "J45.21",
            "display": "Mild intermittent asthma with (acute) exacerbation"
          } ]
        },
        "type": [ {
          "coding": [ {
            "system": "http://terminology.hl7.org/CodeSystem/ex-diagnosistype",
            "code": "discharge",
            "display": "Discharge Diagnosis"
          } ]
        } ],
        "onAdmission": {
          "coding": [ {
            "system": "https://www.cms.gov/Medicare/Medicare-Fee-for-Service-Payment/HospitalAcqCond/Coding",
            "code": "Y"
          } ]
        }
      }, {
        "sequence": 2,
        "diagnosisCodeableConcept": {
          "coding": [ {
            "system": "http://hl7.org/fhir/sid/icd-10-cm",
            "code": "A32.7",
            "display": "Listerial sepsis"
          } ]
        },
        "type": [ {
          "coding": [ {
            "system": "http://terminology.hl7.org/CodeSystem/ex-diagnosistype",
            "code": "discharge",
            "display": "Discharge Diagnosis"
          } ]
        } ],
        "onAdmission": {
          "coding": [ {
            "system": "https://www.cms.gov/Medicare/Medicare-Fee-for-Service-Payment/HospitalAcqCond/Coding",
            "code": "N"
          } ]
        }
      } ],
      "insurance": [ {
        "sequence": 1,
        "focal": true,
        "coverage": {
          "reference": "Coverage/Coverage-1"
        }
      } ],
      "item": [ {
        "sequence": 1,
        "careTeamSequence": [ 1 ],
        "diagnosisSequence": [ 1 ],
        "productOrService": {
          "coding": [ {
            "system": "http://www.ama-assn.org/go/cpt",
            "code": "99232"
          } ]
        },
        "encounter": [ {
          "reference": "Encounter/06597766-88e8-4b93-a5aa-1fa5c5e7ebd6"
        } ]
      }, {
        "sequence": 2,
        "careTeamSequence": [ 1 ],
        "diagnosisSequence": [ 2 ],
        "productOrService": {
          "coding": [ {
            "system": "http://www.ama-assn.org/go/cpt",
            "code": "99233"
          } ]
        },
        "encounter": [ {
          "reference": "Encounter/06597766-88e8-4b93-a5aa-1fa5c5e7ebd6"
        } ]
      } ],
      "total": {
        "value": 3800,
        "currency": "USD"
      }
    },
    "request": {
      "method": "PUT",
      "url": "Claim/8fc941d1-f321-4619-b02d-abd49d428566"
    }
  }, {
    "fullUrl": "https://madie.cms.gov/Coverage/cb398ecf-2abd-44b6-ae16-c621cea2a946",
    "resource": {
      "resourceType": "Coverage",
      "id": "cb398ecf-2abd-44b6-ae16-c621cea2a946",
      "meta": {
        "profile": [ "http://hl7.org/fhir/us/qicore/StructureDefinition/qicore-coverage" ]
      },
      "status": "active",
      "subscriberId": "523435",
      "beneficiary": {
        "reference": "Patient/e3df2e40-9fb8-4400-805e-7c504c8f88c2"
      },
      "relationship": {
        "coding": [ {
          "system": "http://terminology.hl7.org/CodeSystem/subscriber-relationship",
          "code": "self"
        } ]
      },
      "payor": [ {
        "reference": "Organization/5a9a9e9f-2f17-48e8-bb55-5cbcb9b30f68"
      } ]
    },
    "request": {
      "method": "PUT",
      "url": "Coverage/cb398ecf-2abd-44b6-ae16-c621cea2a946"
    }
  }, {
    "fullUrl": "https://madie.cms.gov/Organization/5a9a9e9f-2f17-48e8-bb55-5cbcb9b30f68",
    "resource": {
      "resourceType": "Organization",
      "id": "5a9a9e9f-2f17-48e8-bb55-5cbcb9b30f68",
      "meta": {
        "profile": [ "http://hl7.org/fhir/us/qicore/StructureDefinition/qicore-organization" ]
      },
      "identifier": [ {
        "use": "temp",
        "system": "urn:oid:2.16.840.1.113883.4.4",
        "value": "21-3259825"
      } ],
      "active": true,
      "type": [ {
        "coding": [ {
          "system": "http://terminology.hl7.org/CodeSystem/organization-type",
          "code": "pay",
          "display": "Payer"
        } ]
      } ],
      "name": "Blue Cross Blue Shield of Texas",
      "telecom": [ {
        "system": "phone",
        "value": "(+1) 972-766-6900"
      } ],
      "address": [ {
        "use": "billing",
        "type": "postal",
        "line": [ "P.O. Box 660044" ],
        "city": "Dallas",
        "state": "TX",
        "postalCode": "75266-0044",
        "country": "USA"
      } ]
    },
    "request": {
      "method": "PUT",
      "url": "Organization/5a9a9e9f-2f17-48e8-bb55-5cbcb9b30f68"
    }
  }, {
    "fullUrl": "https://madie.cms.gov/Practitioner/23c14dc3-3df5-4cb6-9a4e-abcbec2197bb",
    "resource": {
      "resourceType": "Practitioner",
      "id": "23c14dc3-3df5-4cb6-9a4e-abcbec2197bb",
      "meta": {
        "profile": [ "http://hl7.org/fhir/us/qicore/StructureDefinition/qicore-practitioner" ]
      },
      "identifier": [ {
        "system": "http://hl7.org/fhir/sid/us-npi",
        "value": "9999999896"
      } ],
      "name": [ {
        "family": "Evil",
        "prefix": [ "Dr" ]
      } ]
    },
    "request": {
      "method": "PUT",
      "url": "Practitioner/23c14dc3-3df5-4cb6-9a4e-abcbec2197bb"
    }
  }, {
    "fullUrl": "https://madie.cms.gov/MeasureReport/e6a5ac07-ae31-4aa0-b8a5-fca1343e4545",
    "resource": {
      "resourceType": "MeasureReport",
      "id": "e6a5ac07-ae31-4aa0-b8a5-fca1343e4545",
      "meta": {
        "profile": [ "http://hl7.org/fhir/us/cqfmeasures/StructureDefinition/test-case-cqfm" ]
      },
      "contained": [ {
        "resourceType": "Parameters",
        "id": "3dae63b1-7188-4aea-86b6-1f2639d11c02-parameters",
        "parameter": [ {
          "name": "subject",
          "valueString": "e3df2e40-9fb8-4400-805e-7c504c8f88c2"
        } ]
      } ],
      "extension": [ {
        "url": "http://hl7.org/fhir/StructureDefinition/cqf-inputParameters",
        "valueReference": {
          "reference": "#3dae63b1-7188-4aea-86b6-1f2639d11c02-parameters"
        }
      }, {
        "url": "http://hl7.org/fhir/us/cqfmeasures/StructureDefinition/cqfm-testCaseDescription",
        "valueMarkdown": "No complications on 1st encounter.\nSepsis on second encounter\n"
      } ],
      "modifierExtension": [ {
        "url": "http://hl7.org/fhir/us/cqfmeasures/StructureDefinition/cqfm-isTestCase",
        "valueBoolean": true
      } ],
      "status": "complete",
      "type": "individual",
      "measure": "https://madie.cms.gov/Measure/CMS1028FHIRPCSevereOBComps",
      "period": {
        "start": "2026-01-01",
        "end": "2026-12-31"
      },
      "group": [ {
        "id": "Group_1",
        "population": [ {
          "id": "InitialPopulation_1",
          "code": {
            "coding": [ {
              "system": "http://terminology.hl7.org/CodeSystem/measure-population",
              "code": "initial-population",
              "display": "Initial Population"
            } ]
          },
          "count": 2
        }, {
          "id": "Denominator_1",
          "code": {
            "coding": [ {
              "system": "http://terminology.hl7.org/CodeSystem/measure-population",
              "code": "denominator",
              "display": "Denominator"
            } ]
          },
          "count": 2
        }, {
          "id": "Numerator_1",
          "code": {
            "coding": [ {
              "system": "http://terminology.hl7.org/CodeSystem/measure-population",
              "code": "numerator",
              "display": "Numerator"
            } ]
          },
          "count": 1
        }, {
          "id": "NumeratorExclusion_1",
          "code": {
            "coding": [ {
              "system": "http://terminology.hl7.org/CodeSystem/measure-population",
              "code": "numerator-exclusion",
              "display": "Numerator Exclusion"
            } ]
          },
          "count": 0
        } ],
        "measureScore": {
          "value": 0.0
        }
      }, {
        "id": "Group_2",
        "population": [ {
          "id": "InitialPopulation_2",
          "code": {
            "coding": [ {
              "system": "http://terminology.hl7.org/CodeSystem/measure-population",
              "code": "initial-population",
              "display": "Initial Population"
            } ]
          },
          "count": 2
        }, {
          "id": "Denominator_2",
          "code": {
            "coding": [ {
              "system": "http://terminology.hl7.org/CodeSystem/measure-population",
              "code": "denominator",
              "display": "Denominator"
            } ]
          },
          "count": 2
        }, {
          "id": "Numerator_2",
          "code": {
            "coding": [ {
              "system": "http://terminology.hl7.org/CodeSystem/measure-population",
              "code": "numerator",
              "display": "Numerator"
            } ]
          },
          "count": 1
        }, {
          "id": "NumeratorExclusion_2",
          "code": {
            "coding": [ {
              "system": "http://terminology.hl7.org/CodeSystem/measure-population",
              "code": "numerator-exclusion",
              "display": "Numerator Exclusion"
            } ]
          },
          "count": 0
        } ],
        "measureScore": {
          "value": 0.0
        }
      } ],
      "evaluatedResource": [ {
        "reference": "Patient/e3df2e40-9fb8-4400-805e-7c504c8f88c2"
      }, {
        "reference": "Observation/c1bd543f-c687-4ae5-8252-79dffa979501"
      }, {
        "reference": "Observation/57816b73-fa5a-4b9c-a832-a53645bae652"
      }, {
        "reference": "Observation/fa8cf93f-095c-4b16-827e-760d6ec397ff"
      }, {
        "reference": "Observation/9ab31ab2-e475-46a3-a4ae-8c889acd6b0d"
      }, {
        "reference": "Encounter/08fb5554-7cac-4732-9aeb-a86bde0c4a31"
      }, {
        "reference": "Encounter/06597766-88e8-4b93-a5aa-1fa5c5e7ebd6"
      }, {
        "reference": "Procedure/c1c6d62f-21b8-43ab-a9af-bd63c6343f40"
      }, {
        "reference": "Procedure/c1c6d62f-21b8-43ab-a9af-bd63c6343f402"
      }, {
        "reference": "Condition/19163fe1-871f-4d21-9f2e-b61db06aae1f"
      }, {
        "reference": "Claim/8fc941d1-f321-4619-b02d-abd49d428566"
      }, {
        "reference": "Coverage/cb398ecf-2abd-44b6-ae16-c621cea2a946"
      }, {
        "reference": "Organization/5a9a9e9f-2f17-48e8-bb55-5cbcb9b30f68"
      }, {
        "reference": "Practitioner/23c14dc3-3df5-4cb6-9a4e-abcbec2197bb"
      } ]
    },
    "request": {
      "method": "PUT",
      "url": "MeasureReport/e6a5ac07-ae31-4aa0-b8a5-fca1343e4545"
    }
  } ]
}