{
  "resourceType": "Bundle",
  "id": "61168b8798086b77ef9c5ebb",
  "type": "collection",
  "entry": [ {
    "fullUrl": "https://madie.cms.gov/Patient/164018dc-af9e-47b8-901f-70d00e101e43",
    "resource": {
      "resourceType": "Patient",
      "id": "164018dc-af9e-47b8-901f-70d00e101e43",
      "meta": {
        "profile": [ "http://hl7.org/fhir/us/qicore/StructureDefinition/qicore-patient" ]
      },
      "extension": [ {
        "url": "http://hl7.org/fhir/us/core/StructureDefinition/us-core-race",
        "extension": [ {
          "url": "ombCategory",
          "valueCoding": {
            "system": "urn:oid:2.16.840.1.113883.6.238",
            "code": "2106-3",
            "display": "White",
            "userSelected": true
          }
        }, {
          "url": "text",
          "valueString": "White"
        } ]
      }, {
        "url": "http://hl7.org/fhir/us/core/StructureDefinition/us-core-ethnicity",
        "extension": [ {
          "url": "ombCategory",
          "valueCoding": {
            "system": "urn:oid:2.16.840.1.113883.6.238",
            "code": "2186-5",
            "display": "Not Hispanic or Latino",
            "userSelected": true
          }
        }, {
          "url": "text",
          "valueString": "Not Hispanic or Latino"
        } ]
      } ],
      "identifier": [ {
        "type": {
          "coding": [ {
            "system": "http://terminology.hl7.org/CodeSystem/v2-0203",
            "code": "MR"
          } ]
        },
        "system": "https://GoodHealthCare.com/",
        "value": "61168b8798086b77ef9c5ebb"
      } ],
      "active": true,
      "name": [ {
        "use": "usual",
        "family": "IPFail",
        "given": [ "NoEncDuringMP" ]
      } ],
      "gender": "male",
      "birthDate": "1995-01-10"
    }
  }, {
    "fullUrl": "https://madie.cms.gov/Condition/89bcfdb9-1a60-46ae-ae22-ad4a9a47593b",
    "resource": {
      "resourceType": "Condition",
      "id": "89bcfdb9-1a60-46ae-ae22-ad4a9a47593b",
      "meta": {
        "profile": [ "http://hl7.org/fhir/us/qicore/StructureDefinition/qicore-condition-problems-health-concerns" ]
      },
      "clinicalStatus": {
        "coding": [ {
          "system": "http://terminology.hl7.org/CodeSystem/condition-clinical",
          "code": "active",
          "display": "active",
          "userSelected": true
        } ]
      },
      "category": [ {
        "coding": [ {
          "system": "http://terminology.hl7.org/CodeSystem/condition-category",
          "code": "problem-list-item",
          "display": "Problem List Item"
        } ]
      } ],
      "code": {
        "coding": [ {
          "system": "http://hl7.org/fhir/sid/icd-10-cm",
          "code": "E08.311"
        }, {
          "system": "http://snomed.info/sct",
          "version": "http://snomed.info/sct/731000124108/version/20250301",
          "code": "4855003"
        } ]
      },
      "subject": {
        "reference": "Patient/164018dc-af9e-47b8-901f-70d00e101e43"
      },
      "onsetDateTime": "2025-12-29T15:00:00.000+00:00"
    }
  }, {
    "fullUrl": "https://madie.cms.gov/Observation/c66cb873-423c-41fa-9767-329ff2ac91ba",
    "resource": {
      "resourceType": "Observation",
      "id": "c66cb873-423c-41fa-9767-329ff2ac91ba",
      "meta": {
        "profile": [ "http://hl7.org/fhir/us/qicore/StructureDefinition/qicore-observation-clinical-result" ]
      },
      "status": "final",
      "category": [ {
        "coding": [ {
          "system": "http://terminology.hl7.org/CodeSystem/observation-category",
          "code": "vital-signs",
          "display": "Vital Signs"
        } ]
      }, {
        "coding": [ {
          "system": "http://terminology.hl7.org/CodeSystem/observation-category",
          "code": "survey"
        } ]
      } ],
      "code": {
        "coding": [ {
          "system": "http://loinc.org",
          "version": "2.73",
          "code": "32451-7"
        } ]
      },
      "subject": {
        "reference": "Patient/164018dc-af9e-47b8-901f-70d00e101e43"
      },
      "effectivePeriod": {
        "start": "2026-01-29T12:00:00.000+00:00",
        "end": "2026-01-29T12:00:00.000+00:00"
      },
      "valueBoolean": true
    }
  }, {
    "fullUrl": "https://madie.cms.gov/Coverage/0896d611-796b-4a52-99e4-c3bf262abf82",
    "resource": {
      "resourceType": "Coverage",
      "id": "0896d611-796b-4a52-99e4-c3bf262abf82",
      "meta": {
        "profile": [ "http://hl7.org/fhir/us/qicore/StructureDefinition/qicore-coverage" ]
      },
      "status": "active",
      "subscriberId": "123456",
      "beneficiary": {
        "reference": "Patient/164018dc-af9e-47b8-901f-70d00e101e43"
      },
      "relationship": {
        "coding": [ {
          "system": "http://terminology.hl7.org/CodeSystem/subscriber-relationship",
          "code": "self",
          "display": "Self"
        } ]
      },
      "payor": [ {
        "reference": "Organization/123456"
      } ]
    }
  }, {
    "fullUrl": "https://madie.cms.gov/Organization/e193b815-9aec-4340-97f4-2b5ecacf98d8",
    "resource": {
      "resourceType": "Organization",
      "id": "e193b815-9aec-4340-97f4-2b5ecacf98d8",
      "meta": {
        "profile": [ "http://hl7.org/fhir/us/qicore/StructureDefinition/qicore-organization" ]
      },
      "identifier": [ {
        "use": "temp",
        "system": "urn:oid:2.16.840.1.113883.4.4",
        "value": "21-3259825"
      } ],
      "active": true,
      "type": [ {
        "coding": [ {
          "system": "http://terminology.hl7.org/CodeSystem/organization-type",
          "code": "pay",
          "display": "Payer"
        } ]
      } ],
      "name": "Blue Cross Blue Shield of Texas",
      "telecom": [ {
        "system": "phone",
        "value": "(+1) 972-766-6900"
      } ],
      "address": [ {
        "use": "billing",
        "type": "postal",
        "line": [ "P.O. Box 660044" ],
        "city": "Dallas",
        "state": "TX",
        "postalCode": "75266-0044",
        "country": "USA"
      } ]
    }
  }, {
    "fullUrl": "https://madie.cms.gov/MeasureReport/e549bd57-2ba0-45ed-bcc5-f44576c1f52b",
    "resource": {
      "resourceType": "MeasureReport",
      "id": "e549bd57-2ba0-45ed-bcc5-f44576c1f52b",
      "meta": {
        "profile": [ "http://hl7.org/fhir/us/cqfmeasures/StructureDefinition/test-case-cqfm" ]
      },
      "contained": [ {
        "resourceType": "Parameters",
        "id": "8ea090b8-2983-42d1-8b06-dd094a8fa0b9-parameters",
        "parameter": [ {
          "name": "subject",
          "valueString": "164018dc-af9e-47b8-901f-70d00e101e43"
        } ]
      } ],
      "extension": [ {
        "url": "http://hl7.org/fhir/StructureDefinition/cqf-inputParameters",
        "valueReference": {
          "reference": "#8ea090b8-2983-42d1-8b06-dd094a8fa0b9-parameters"
        }
      }, {
        "url": "http://hl7.org/fhir/us/cqfmeasures/StructureDefinition/cqfm-testCaseDescription",
        "valueMarkdown": "Patient doesn't have encounter during measurement period"
      } ],
      "modifierExtension": [ {
        "url": "http://hl7.org/fhir/us/cqfmeasures/StructureDefinition/cqfm-isTestCase",
        "valueBoolean": true
      } ],
      "status": "complete",
      "type": "individual",
      "measure": "https://madie.cms.gov/Measure/CMS142FHIRCommWithDrManagingDiab",
      "period": {
        "start": "2026-01-01",
        "end": "2026-12-31"
      },
      "group": [ {
        "id": "Group_1",
        "population": [ {
          "id": "InitialPopulation_1",
          "code": {
            "coding": [ {
              "system": "http://terminology.hl7.org/CodeSystem/measure-population",
              "code": "initial-population",
              "display": "Initial Population"
            } ]
          },
          "count": 0
        }, {
          "id": "Denominator_1",
          "code": {
            "coding": [ {
              "system": "http://terminology.hl7.org/CodeSystem/measure-population",
              "code": "denominator",
              "display": "Denominator"
            } ]
          },
          "count": 0
        }, {
          "id": "Numerator_1",
          "code": {
            "coding": [ {
              "system": "http://terminology.hl7.org/CodeSystem/measure-population",
              "code": "numerator",
              "display": "Numerator"
            } ]
          },
          "count": 0
        }, {
          "id": "DenominatorException_1",
          "code": {
            "coding": [ {
              "system": "http://terminology.hl7.org/CodeSystem/measure-population",
              "code": "denominator-exception",
              "display": "Denominator Exception"
            } ]
          },
          "count": 0
        } ],
        "measureScore": {
          "value": 1.0
        }
      } ],
      "evaluatedResource": [ {
        "reference": "Patient/164018dc-af9e-47b8-901f-70d00e101e43"
      }, {
        "reference": "Condition/89bcfdb9-1a60-46ae-ae22-ad4a9a47593b"
      }, {
        "reference": "Observation/c66cb873-423c-41fa-9767-329ff2ac91ba"
      }, {
        "reference": "Coverage/0896d611-796b-4a52-99e4-c3bf262abf82"
      }, {
        "reference": "Organization/e193b815-9aec-4340-97f4-2b5ecacf98d8"
      } ]
    }
  } ]
}