{
  "resourceType": "Bundle",
  "id": "612e6a9402c62a011f2ea747",
  "type": "transaction",
  "entry": [ {
    "fullUrl": "https://madie.cms.gov/Patient/7520f4b4-3bde-465e-b6b0-07c5ac3da4de",
    "resource": {
      "resourceType": "Patient",
      "id": "7520f4b4-3bde-465e-b6b0-07c5ac3da4de",
      "meta": {
        "profile": [ "http://hl7.org/fhir/us/qicore/StructureDefinition/qicore-patient" ]
      },
      "text": {
        "status": "generated",
        "div": "<div xmlns=\"http://www.w3.org/1999/xhtml\"><div class=\"hapiHeaderText\">MedReason_MA_Warf_DO_IPC_DayOfAnes <b>NUMERPASS </b></div><table class=\"hapiPropertyTable\"><tbody><tr><td>Identifier</td><td>7b1692125190d12df658f3578aa84ca8</td></tr><tr><td>Date of birth</td><td><span>02 January 1974</span></td></tr></tbody></table></div>"
      },
      "extension": [ {
        "url": "http://hl7.org/fhir/us/core/StructureDefinition/us-core-race",
        "extension": [ {
          "url": "ombCategory",
          "valueCoding": {
            "system": "urn:oid:2.16.840.1.113883.6.238",
            "code": "1002-5",
            "display": "American Indian or Alaska Native",
            "userSelected": true
          }
        }, {
          "url": "text",
          "valueString": "American Indian or Alaska Native"
        } ]
      }, {
        "url": "http://hl7.org/fhir/us/core/StructureDefinition/us-core-ethnicity",
        "extension": [ {
          "url": "ombCategory",
          "valueCoding": {
            "system": "urn:oid:2.16.840.1.113883.6.238",
            "code": "2135-2",
            "display": "Hispanic or Latino",
            "userSelected": true
          }
        }, {
          "url": "text",
          "valueString": "Hispanic or Latino"
        } ]
      } ],
      "identifier": [ {
        "type": {
          "coding": [ {
            "system": "http://terminology.hl7.org/CodeSystem/v2-0203",
            "code": "MR"
          } ]
        },
        "system": "https://bonnie-fhir.healthit.gov/",
        "value": "612e6a9402c62a011f2ea747"
      } ],
      "active": true,
      "name": [ {
        "use": "usual",
        "family": "NUMERPass",
        "given": [ "MedReasonMAWarfDOIPCDayOfAnes" ]
      } ],
      "gender": "male",
      "birthDate": "1975-01-02"
    },
    "request": {
      "method": "PUT",
      "url": "Patient/7520f4b4-3bde-465e-b6b0-07c5ac3da4de"
    }
  }, {
    "fullUrl": "https://madie.cms.gov/Encounter/269cedf1-548a-436d-a0f6-a05c414328fa",
    "resource": {
      "resourceType": "Encounter",
      "id": "269cedf1-548a-436d-a0f6-a05c414328fa",
      "meta": {
        "profile": [ "http://hl7.org/fhir/us/qicore/StructureDefinition/qicore-encounter" ]
      },
      "status": "finished",
      "class": {
        "system": "http://terminology.hl7.org/CodeSystem/v3-ActCode",
        "code": "IMP",
        "display": "inpatient encounter"
      },
      "type": [ {
        "coding": [ {
          "system": "http://snomed.info/sct",
          "code": "8715000"
        } ]
      } ],
      "subject": {
        "reference": "Patient/7520f4b4-3bde-465e-b6b0-07c5ac3da4de"
      },
      "period": {
        "start": "2026-11-01T08:00:00.000+00:00",
        "end": "2026-11-26T08:15:00.000+00:00"
      },
      "length": {
        "value": 25,
        "unit": "days"
      }
    },
    "request": {
      "method": "PUT",
      "url": "Encounter/269cedf1-548a-436d-a0f6-a05c414328fa"
    }
  }, {
    "fullUrl": "https://madie.cms.gov/Coverage/3e1e2a8e-a4d0-49f9-bc6b-eaae40c08af2",
    "resource": {
      "resourceType": "Coverage",
      "id": "3e1e2a8e-a4d0-49f9-bc6b-eaae40c08af2",
      "status": "active",
      "beneficiary": {
        "reference": "Patient/7520f4b4-3bde-465e-b6b0-07c5ac3da4de"
      },
      "period": {
        "start": "1975-01-02T08:00:00.000+00:00"
      },
      "payor": [ {
        "reference": "Organization/debbb30a-6c36-4c95-b631-f5ef80a3d2c4"
      } ]
    },
    "request": {
      "method": "PUT",
      "url": "Coverage/3e1e2a8e-a4d0-49f9-bc6b-eaae40c08af2"
    }
  }, {
    "fullUrl": "https://madie.cms.gov/MedicationAdministration/7a647303-b8d5-4ebb-8da0-ae8f87aa06ae",
    "resource": {
      "resourceType": "MedicationAdministration",
      "id": "7a647303-b8d5-4ebb-8da0-ae8f87aa06ae",
      "meta": {
        "profile": [ "http://hl7.org/fhir/us/qicore/StructureDefinition/qicore-medicationadministrationnotdone" ]
      },
      "extension": [ {
        "url": "http://hl7.org/fhir/us/qicore/StructureDefinition/qicore-recorded",
        "valueDateTime": "2026-11-02T11:00:00.000+00:00"
      } ],
      "status": "not-done",
      "statusReason": [ {
        "coding": [ {
          "system": "http://snomed.info/sct",
          "code": "183932001"
        } ]
      } ],
      "medicationCodeableConcept": {
        "coding": [ {
          "system": "http://www.nlm.nih.gov/research/umls/rxnorm",
          "code": "855288"
        } ]
      },
      "subject": {
        "reference": "Patient/7520f4b4-3bde-465e-b6b0-07c5ac3da4de"
      },
      "effectivePeriod": {
        "start": "2026-11-02T11:00:00.000+00:00"
      }
    },
    "request": {
      "method": "PUT",
      "url": "MedicationAdministration/7a647303-b8d5-4ebb-8da0-ae8f87aa06ae"
    }
  }, {
    "fullUrl": "https://madie.cms.gov/Procedure/d39196f3-117d-40bd-8851-4f32568b37ee",
    "resource": {
      "resourceType": "Procedure",
      "id": "d39196f3-117d-40bd-8851-4f32568b37ee",
      "meta": {
        "profile": [ "http://hl7.org/fhir/us/qicore/StructureDefinition/qicore-procedure" ]
      },
      "extension": [ {
        "url": "http://hl7.org/fhir/us/qicore/StructureDefinition/qicore-recorded",
        "valueDateTime": "2013-11-02T13:35:00.000+00:00"
      } ],
      "status": "completed",
      "code": {
        "coding": [ {
          "system": "http://snomed.info/sct",
          "code": "18946005"
        } ]
      },
      "subject": {
        "reference": "Patient/7520f4b4-3bde-465e-b6b0-07c5ac3da4de"
      },
      "performedPeriod": {
        "start": "2026-11-02T09:00:00.000+00:00",
        "end": "2026-11-02T09:15:00.000+00:00"
      }
    },
    "request": {
      "method": "PUT",
      "url": "Procedure/d39196f3-117d-40bd-8851-4f32568b37ee"
    }
  }, {
    "fullUrl": "https://madie.cms.gov/ServiceRequest/a6fc217a-db54-4d9c-aa08-488f5a5ab433",
    "resource": {
      "resourceType": "ServiceRequest",
      "id": "a6fc217a-db54-4d9c-aa08-488f5a5ab433",
      "meta": {
        "profile": [ "http://hl7.org/fhir/us/qicore/StructureDefinition/qicore-servicenotrequested" ]
      },
      "extension": [ {
        "url": "http://hl7.org/fhir/us/qicore/StructureDefinition/qicore-doNotPerformReason",
        "valueCodeableConcept": {
          "coding": [ {
            "system": "http://snomed.info/sct",
            "code": "183932001",
            "display": "Procedure contraindicated (situation)"
          } ]
        }
      } ],
      "status": "completed",
      "intent": "order",
      "doNotPerform": true,
      "code": {
        "coding": [ {
          "system": "http://snomed.info/sct",
          "version": "2025-03",
          "code": "428411000124104",
          "display": "Intermittent pneumatic compression boot (physical object)",
          "userSelected": true
        } ]
      },
      "subject": {
        "reference": "Patient/7520f4b4-3bde-465e-b6b0-07c5ac3da4de"
      },
      "authoredOn": "2026-11-02T10:00:00.000+00:00"
    },
    "request": {
      "method": "PUT",
      "url": "ServiceRequest/a6fc217a-db54-4d9c-aa08-488f5a5ab433"
    }
  }, {
    "fullUrl": "https://madie.cms.gov/Organization/debbb30a-6c36-4c95-b631-f5ef80a3d2c4",
    "resource": {
      "resourceType": "Organization",
      "id": "debbb30a-6c36-4c95-b631-f5ef80a3d2c4",
      "meta": {
        "profile": [ "http://hl7.org/fhir/us/qicore/StructureDefinition/qicore-organization" ]
      },
      "identifier": [ {
        "use": "temp",
        "system": "urn:oid:2.16.840.1.113883.4.4",
        "value": "21-3259825"
      } ],
      "active": true,
      "type": [ {
        "coding": [ {
          "system": "http://terminology.hl7.org/CodeSystem/organization-type",
          "code": "pay",
          "display": "Payer"
        } ]
      } ],
      "name": "Blue Cross Blue Shield of Texas",
      "telecom": [ {
        "system": "phone",
        "value": "(+1) 972-766-6900"
      } ],
      "address": [ {
        "use": "billing",
        "type": "postal",
        "line": [ "P.O. Box 660044" ],
        "city": "Dallas",
        "state": "TX",
        "postalCode": "75266-0044",
        "country": "USA"
      } ]
    },
    "request": {
      "method": "PUT",
      "url": "Organization/debbb30a-6c36-4c95-b631-f5ef80a3d2c4"
    }
  }, {
    "fullUrl": "https://madie.cms.gov/Practitioner/ba59fab2-e984-449a-bcbc-db2fb5125997",
    "resource": {
      "resourceType": "Practitioner",
      "id": "ba59fab2-e984-449a-bcbc-db2fb5125997",
      "identifier": [ {
        "system": "http://hl7.org/fhir/sid/us-npi",
        "value": "123456"
      } ],
      "name": [ {
        "family": "Evil",
        "prefix": [ "Dr" ]
      } ]
    },
    "request": {
      "method": "PUT",
      "url": "Practitioner/ba59fab2-e984-449a-bcbc-db2fb5125997"
    }
  }, {
    "fullUrl": "https://madie.cms.gov/MeasureReport/10280247-b0ae-4a88-80e6-8b6c10effc0c",
    "resource": {
      "resourceType": "MeasureReport",
      "id": "10280247-b0ae-4a88-80e6-8b6c10effc0c",
      "meta": {
        "profile": [ "http://hl7.org/fhir/us/cqfmeasures/StructureDefinition/test-case-cqfm" ]
      },
      "contained": [ {
        "resourceType": "Parameters",
        "id": "75ceda69-93b1-47a5-a9ff-2e7274c2ef99-parameters",
        "parameter": [ {
          "name": "subject",
          "valueString": "7520f4b4-3bde-465e-b6b0-07c5ac3da4de"
        } ]
      } ],
      "extension": [ {
        "url": "http://hl7.org/fhir/StructureDefinition/cqf-inputParameters",
        "valueReference": {
          "reference": "#75ceda69-93b1-47a5-a9ff-2e7274c2ef99-parameters"
        }
      }, {
        "url": "http://hl7.org/fhir/us/cqfmeasures/StructureDefinition/cqfm-testCaseDescription",
        "valueMarkdown": "IPC not ordered and warfarin not administered due to medical reason <= 1 day after end of anesthesia\n"
      } ],
      "modifierExtension": [ {
        "url": "http://hl7.org/fhir/us/cqfmeasures/StructureDefinition/cqfm-isTestCase",
        "valueBoolean": true
      } ],
      "status": "complete",
      "type": "individual",
      "measure": "https://madie.cms.gov/Measure/CMS108FHIRVTEProphylaxis",
      "period": {
        "start": "2026-01-01",
        "end": "2026-12-31"
      },
      "group": [ {
        "id": "Group_1",
        "population": [ {
          "id": "InitialPopulation_1",
          "code": {
            "coding": [ {
              "system": "http://terminology.hl7.org/CodeSystem/measure-population",
              "code": "initial-population",
              "display": "Initial Population"
            } ]
          },
          "count": 1
        }, {
          "id": "Denominator_1",
          "code": {
            "coding": [ {
              "system": "http://terminology.hl7.org/CodeSystem/measure-population",
              "code": "denominator",
              "display": "Denominator"
            } ]
          },
          "count": 1
        }, {
          "id": "DenominatorExclusion_1",
          "code": {
            "coding": [ {
              "system": "http://terminology.hl7.org/CodeSystem/measure-population",
              "code": "denominator-exclusion",
              "display": "Denominator Exclusion"
            } ]
          },
          "count": 0
        }, {
          "id": "Numerator_1",
          "code": {
            "coding": [ {
              "system": "http://terminology.hl7.org/CodeSystem/measure-population",
              "code": "numerator",
              "display": "Numerator"
            } ]
          },
          "count": 1
        } ],
        "measureScore": {
          "value": 0.0
        }
      } ],
      "evaluatedResource": [ {
        "reference": "Patient/7520f4b4-3bde-465e-b6b0-07c5ac3da4de"
      }, {
        "reference": "Encounter/269cedf1-548a-436d-a0f6-a05c414328fa"
      }, {
        "reference": "Coverage/3e1e2a8e-a4d0-49f9-bc6b-eaae40c08af2"
      }, {
        "reference": "MedicationAdministration/7a647303-b8d5-4ebb-8da0-ae8f87aa06ae"
      }, {
        "reference": "Procedure/d39196f3-117d-40bd-8851-4f32568b37ee"
      }, {
        "reference": "ServiceRequest/a6fc217a-db54-4d9c-aa08-488f5a5ab433"
      }, {
        "reference": "Organization/debbb30a-6c36-4c95-b631-f5ef80a3d2c4"
      }, {
        "reference": "Practitioner/ba59fab2-e984-449a-bcbc-db2fb5125997"
      } ]
    },
    "request": {
      "method": "PUT",
      "url": "MeasureReport/10280247-b0ae-4a88-80e6-8b6c10effc0c"
    }
  } ]
}