{
  "resourceType": "Bundle",
  "id": "62991d3a7a44a0aa07bda8df",
  "type": "collection",
  "entry": [ {
    "fullUrl": "https://madie.cms.gov/Patient/c55f6f6d-e355-4280-9e5d-d21fc00b5c3e",
    "resource": {
      "resourceType": "Patient",
      "id": "c55f6f6d-e355-4280-9e5d-d21fc00b5c3e",
      "meta": {
        "profile": [ "http://hl7.org/fhir/us/qicore/StructureDefinition/qicore-patient" ]
      },
      "extension": [ {
        "url": "http://hl7.org/fhir/us/core/StructureDefinition/us-core-race",
        "extension": [ {
          "url": "ombCategory",
          "valueCoding": {
            "system": "urn:oid:2.16.840.1.113883.6.238",
            "code": "1002-5",
            "display": "American Indian or Alaska Native",
            "userSelected": true
          }
        }, {
          "url": "text",
          "valueString": "American Indian or Alaska Native"
        }, {
          "url": "detailed",
          "valueCoding": {
            "system": "http://terminology.hl7.org/CodeSystem/v3-NullFlavor",
            "code": "OTH",
            "display": "other"
          }
        } ]
      }, {
        "url": "http://hl7.org/fhir/us/core/StructureDefinition/us-core-ethnicity",
        "extension": [ {
          "url": "ombCategory",
          "valueCoding": {
            "system": "urn:oid:2.16.840.1.113883.6.238",
            "code": "2135-2",
            "display": "Hispanic or Latino",
            "userSelected": true
          }
        }, {
          "url": "text",
          "valueString": "Hispanic or Latino"
        }, {
          "url": "detailed",
          "valueCoding": {
            "system": "http://terminology.hl7.org/CodeSystem/v3-NullFlavor",
            "code": "OTH",
            "display": "other"
          }
        } ]
      } ],
      "identifier": [ {
        "type": {
          "coding": [ {
            "system": "http://terminology.hl7.org/CodeSystem/v2-0203",
            "code": "MR"
          } ]
        },
        "system": "https://bonnie-fhir.healthit.gov/",
        "value": "62991d3a7a44a0aa07bda8df"
      } ],
      "name": [ {
        "family": "NUMERPass",
        "given": [ "NoBoneScan" ]
      } ],
      "gender": "male",
      "birthDate": "1987-06-27"
    }
  }, {
    "fullUrl": "https://madie.cms.gov/Condition/ffb2fa97-28b8-45cd-8376-cf061d300715",
    "resource": {
      "resourceType": "Condition",
      "id": "ffb2fa97-28b8-45cd-8376-cf061d300715",
      "meta": {
        "profile": [ "http://hl7.org/fhir/us/qicore/StructureDefinition/qicore-condition-problems-health-concerns" ]
      },
      "clinicalStatus": {
        "coding": [ {
          "system": "http://terminology.hl7.org/CodeSystem/condition-clinical",
          "code": "active",
          "display": "active",
          "userSelected": true
        } ]
      },
      "category": [ {
        "coding": [ {
          "system": "http://terminology.hl7.org/CodeSystem/condition-category",
          "code": "problem-list-item",
          "display": "Problem List Item"
        }, {
          "system": "http://snomed.info/sct",
          "code": "439401001",
          "display": "Diagnosis"
        } ]
      } ],
      "code": {
        "coding": [ {
          "system": "http://snomed.info/sct",
          "code": "254900004",
          "display": "Carcinoma of prostate (disorder)",
          "userSelected": true
        } ]
      },
      "subject": {
        "reference": "Patient/c55f6f6d-e355-4280-9e5d-d21fc00b5c3e"
      },
      "onsetDateTime": "2026-01-07T08:00:00.000+00:00",
      "recordedDate": "2026-06-02T08:00:00.000+00:00"
    }
  }, {
    "fullUrl": "https://madie.cms.gov/Procedure/006c54d3-c05e-40b9-89db-eeb53cf60a12",
    "resource": {
      "resourceType": "Procedure",
      "id": "006c54d3-c05e-40b9-89db-eeb53cf60a12",
      "meta": {
        "profile": [ "http://hl7.org/fhir/us/qicore/StructureDefinition/qicore-procedure" ]
      },
      "extension": [ {
        "url": "http://hl7.org/fhir/us/qicore/StructureDefinition/qicore-recorded",
        "valueDateTime": "2026-02-01T09:00:00.000+00:00"
      } ],
      "status": "completed",
      "code": {
        "coding": [ {
          "system": "http://snomed.info/sct",
          "code": "38915000",
          "display": "Radionuclide therapy for gland ablation (procedure)",
          "userSelected": true
        } ]
      },
      "subject": {
        "reference": "Patient/c55f6f6d-e355-4280-9e5d-d21fc00b5c3e"
      },
      "performedDateTime": "2026-06-02T08:00:00.000+00:00"
    }
  }, {
    "fullUrl": "https://madie.cms.gov/Observation/18f57b12-16c2-460b-b66a-75734ef50485",
    "resource": {
      "resourceType": "Observation",
      "id": "18f57b12-16c2-460b-b66a-75734ef50485",
      "meta": {
        "profile": [ "http://hl7.org/fhir/us/qicore/StructureDefinition/qicore-observation-lab" ]
      },
      "status": "final",
      "category": [ {
        "coding": [ {
          "system": "http://terminology.hl7.org/CodeSystem/observation-category",
          "code": "laboratory",
          "display": "Laboratory"
        } ]
      } ],
      "code": {
        "coding": [ {
          "system": "http://loinc.org",
          "version": "2.72",
          "code": "2857-1",
          "display": "Prostate specific Ag [Mass/volume] in Serum or Plasma",
          "userSelected": true
        } ]
      },
      "subject": {
        "reference": "Patient/c55f6f6d-e355-4280-9e5d-d21fc00b5c3e"
      },
      "effectiveDateTime": "2026-01-07T08:00:00.000+00:00",
      "issued": "2026-04-02T08:00:00.000+00:00",
      "valueQuantity": {
        "value": 8.0,
        "system": "http://unitsofmeasure.org",
        "code": "ng/mL"
      }
    }
  }, {
    "fullUrl": "https://madie.cms.gov/Observation/b1b82e98-d4d0-4896-b494-2c93b339d84d",
    "resource": {
      "resourceType": "Observation",
      "id": "b1b82e98-d4d0-4896-b494-2c93b339d84d",
      "meta": {
        "profile": [ "http://hl7.org/fhir/us/qicore/StructureDefinition/qicore-observation-clinical-result" ]
      },
      "status": "final",
      "category": [ {
        "coding": [ {
          "system": "http://terminology.hl7.org/CodeSystem/observation-category",
          "code": "procedure",
          "display": "Procedure"
        } ]
      } ],
      "code": {
        "coding": [ {
          "system": "http://loinc.org",
          "code": "35266-6",
          "display": "Gleason score in Specimen Qualitative",
          "userSelected": true
        } ]
      },
      "subject": {
        "reference": "Patient/c55f6f6d-e355-4280-9e5d-d21fc00b5c3e"
      },
      "effectivePeriod": {
        "start": "2026-04-02T08:00:00.000+00:00"
      },
      "issued": "2026-04-02T08:00:00.000+00:00",
      "valueInteger": 5
    }
  }, {
    "fullUrl": "https://madie.cms.gov/Observation/3df8d6a5-99f4-41d8-961b-82c13ea5953d",
    "resource": {
      "resourceType": "Observation",
      "id": "3df8d6a5-99f4-41d8-961b-82c13ea5953d",
      "meta": {
        "profile": [ "http://hl7.org/fhir/us/qicore/StructureDefinition/qicore-observation-clinical-result" ]
      },
      "status": "final",
      "category": [ {
        "coding": [ {
          "system": "http://terminology.hl7.org/CodeSystem/observation-category",
          "code": "procedure",
          "display": "Procedure"
        } ]
      } ],
      "code": {
        "coding": [ {
          "system": "http://snomed.info/sct",
          "code": "254292007",
          "display": "Tumor staging (tumor staging)",
          "userSelected": true
        } ]
      },
      "subject": {
        "reference": "Patient/c55f6f6d-e355-4280-9e5d-d21fc00b5c3e"
      },
      "focus": [ {
        "reference": "Condition/ffb2fa97-28b8-45cd-8376-cf061d300715"
      } ],
      "effectivePeriod": {
        "start": "2026-02-07T08:00:00.000+00:00"
      },
      "issued": "2026-02-02T08:00:00.000+00:00",
      "valueCodeableConcept": {
        "coding": [ {
          "system": "http://snomed.info/sct",
          "code": "1228895000",
          "display": "American Joint Committee on Cancer cT1b (qualifier value)",
          "userSelected": true
        } ]
      }
    }
  }, {
    "fullUrl": "https://madie.cms.gov/Coverage/69e3dcab-9760-458b-b109-b3e4625847e2",
    "resource": {
      "resourceType": "Coverage",
      "id": "69e3dcab-9760-458b-b109-b3e4625847e2",
      "meta": {
        "profile": [ "http://hl7.org/fhir/us/qicore/StructureDefinition/qicore-coverage" ]
      },
      "status": "active",
      "type": {
        "coding": [ {
          "system": "https://nahdo.org/sopt",
          "code": "1",
          "display": "MEDICARE"
        } ]
      },
      "subscriberId": "123456789",
      "beneficiary": {
        "reference": "Patient/c55f6f6d-e355-4280-9e5d-d21fc00b5c3e"
      },
      "relationship": {
        "coding": [ {
          "system": "http://terminology.hl7.org/CodeSystem/subscriber-relationship",
          "code": "self",
          "display": "Self",
          "userSelected": true
        } ]
      },
      "period": {
        "start": "2024-12-01T00:00:00.000+00:00"
      },
      "payor": [ {
        "reference": "Organization/efb78481-e976-4983-b05c-2cc22c053761"
      } ]
    }
  }, {
    "fullUrl": "https://madie.cms.gov/Organization/efb78481-e976-4983-b05c-2cc22c053761",
    "resource": {
      "resourceType": "Organization",
      "id": "efb78481-e976-4983-b05c-2cc22c053761",
      "meta": {
        "profile": [ "http://hl7.org/fhir/us/qicore/StructureDefinition/qicore-organization" ]
      },
      "identifier": [ {
        "use": "temp",
        "system": "urn:oid:2.16.840.1.113883.4.4",
        "value": "21-3259825"
      } ],
      "active": true,
      "type": [ {
        "coding": [ {
          "system": "http://terminology.hl7.org/CodeSystem/organization-type",
          "code": "pay",
          "display": "Payer"
        } ]
      } ],
      "name": "Blue Cross Blue Shield of Texas",
      "telecom": [ {
        "system": "phone",
        "value": "(+1) 972-766-6900"
      } ],
      "address": [ {
        "use": "billing",
        "type": "postal",
        "line": [ "P.O. Box 660044" ],
        "city": "Dallas",
        "state": "TX",
        "postalCode": "75266-0044",
        "country": "USA"
      } ]
    }
  }, {
    "fullUrl": "https://madie.cms.gov/Practitioner/dff5c94e-0ad3-4a77-9640-e94ca48868ae",
    "resource": {
      "resourceType": "Practitioner",
      "id": "dff5c94e-0ad3-4a77-9640-e94ca48868ae",
      "meta": {
        "profile": [ "http://hl7.org/fhir/us/qicore/StructureDefinition/qicore-practitioner" ]
      },
      "identifier": [ {
        "system": "http://hl7.org/fhir/sid/us-npi",
        "value": "1234567893"
      } ],
      "name": [ {
        "family": "Evil",
        "prefix": [ "Dr" ]
      } ]
    }
  }, {
    "fullUrl": "https://madie.cms.gov/MeasureReport/d48c5122-5749-42ec-b402-ecffdb3d9c26",
    "resource": {
      "resourceType": "MeasureReport",
      "id": "d48c5122-5749-42ec-b402-ecffdb3d9c26",
      "meta": {
        "profile": [ "http://hl7.org/fhir/us/cqfmeasures/StructureDefinition/test-case-cqfm" ]
      },
      "contained": [ {
        "resourceType": "Parameters",
        "id": "d9e406a8-a72c-4c60-982a-235e48529200-parameters",
        "parameter": [ {
          "name": "subject",
          "valueString": "c55f6f6d-e355-4280-9e5d-d21fc00b5c3e"
        } ]
      } ],
      "extension": [ {
        "url": "http://hl7.org/fhir/StructureDefinition/cqf-inputParameters",
        "valueReference": {
          "reference": "#d9e406a8-a72c-4c60-982a-235e48529200-parameters"
        }
      }, {
        "url": "http://hl7.org/fhir/us/cqfmeasures/StructureDefinition/cqfm-testCaseDescription",
        "valueMarkdown": "Patient with prostate cancer diagnosis and no bone scan performed. SDE details added to JSON. \n"
      } ],
      "modifierExtension": [ {
        "url": "http://hl7.org/fhir/us/cqfmeasures/StructureDefinition/cqfm-isTestCase",
        "valueBoolean": true
      } ],
      "status": "complete",
      "type": "individual",
      "measure": "https://madie.cms.gov/Measure/CMS129FHIRProstCaBoneScanUse",
      "period": {
        "start": "2026-01-01",
        "end": "2026-12-31"
      },
      "group": [ {
        "id": "Group_1",
        "population": [ {
          "id": "InitialPopulation_1",
          "code": {
            "coding": [ {
              "system": "http://terminology.hl7.org/CodeSystem/measure-population",
              "code": "initial-population",
              "display": "Initial Population"
            } ]
          },
          "count": 1
        }, {
          "id": "Denominator_1",
          "code": {
            "coding": [ {
              "system": "http://terminology.hl7.org/CodeSystem/measure-population",
              "code": "denominator",
              "display": "Denominator"
            } ]
          },
          "count": 1
        }, {
          "id": "Numerator_1",
          "code": {
            "coding": [ {
              "system": "http://terminology.hl7.org/CodeSystem/measure-population",
              "code": "numerator",
              "display": "Numerator"
            } ]
          },
          "count": 1
        }, {
          "id": "DenominatorException_1",
          "code": {
            "coding": [ {
              "system": "http://terminology.hl7.org/CodeSystem/measure-population",
              "code": "denominator-exception",
              "display": "Denominator Exception"
            } ]
          },
          "count": 0
        } ],
        "measureScore": {
          "value": 1.0
        }
      } ],
      "evaluatedResource": [ {
        "reference": "Patient/c55f6f6d-e355-4280-9e5d-d21fc00b5c3e"
      }, {
        "reference": "Condition/ffb2fa97-28b8-45cd-8376-cf061d300715"
      }, {
        "reference": "Procedure/006c54d3-c05e-40b9-89db-eeb53cf60a12"
      }, {
        "reference": "Observation/18f57b12-16c2-460b-b66a-75734ef50485"
      }, {
        "reference": "Observation/b1b82e98-d4d0-4896-b494-2c93b339d84d"
      }, {
        "reference": "Observation/3df8d6a5-99f4-41d8-961b-82c13ea5953d"
      }, {
        "reference": "Coverage/69e3dcab-9760-458b-b109-b3e4625847e2"
      }, {
        "reference": "Organization/efb78481-e976-4983-b05c-2cc22c053761"
      }, {
        "reference": "Practitioner/dff5c94e-0ad3-4a77-9640-e94ca48868ae"
      } ]
    }
  } ]
}