{
  "resourceType": "Bundle",
  "id": "612e6f6202c62a011f2f1a06",
  "type": "transaction",
  "entry": [ {
    "fullUrl": "https://madie.cms.gov/Patient/d8271c75-5d30-4a02-9584-1572b0570843",
    "resource": {
      "resourceType": "Patient",
      "id": "d8271c75-5d30-4a02-9584-1572b0570843",
      "meta": {
        "profile": [ "http://hl7.org/fhir/us/qicore/StructureDefinition/qicore-patient" ]
      },
      "text": {
        "status": "generated",
        "div": "<div xmlns=\"http://www.w3.org/1999/xhtml\"><div class=\"hapiHeaderText\">UrologicalSurgeryDayOfICUStart <b>DENEXPASS </b></div><table class=\"hapiPropertyTable\"><tbody><tr><td>Identifier</td><td>9214f043f436048cfea186089d4ffb3f1663d62344799d81208efc969b033c47</td></tr><tr><td>Date of birth</td><td><span>03 March 1974</span></td></tr></tbody></table></div>"
      },
      "extension": [ {
        "url": "http://hl7.org/fhir/us/core/StructureDefinition/us-core-race",
        "extension": [ {
          "url": "ombCategory",
          "valueCoding": {
            "system": "urn:oid:2.16.840.1.113883.6.238",
            "code": "1002-5",
            "display": "American Indian or Alaska Native",
            "userSelected": true
          }
        }, {
          "url": "text",
          "valueString": "American Indian or Alaska Native"
        } ]
      }, {
        "url": "http://hl7.org/fhir/us/core/StructureDefinition/us-core-ethnicity",
        "extension": [ {
          "url": "ombCategory",
          "valueCoding": {
            "system": "urn:oid:2.16.840.1.113883.6.238",
            "code": "2135-2",
            "display": "Hispanic or Latino",
            "userSelected": true
          }
        }, {
          "url": "text",
          "valueString": "Hispanic or Latino"
        } ]
      } ],
      "identifier": [ {
        "type": {
          "coding": [ {
            "system": "http://terminology.hl7.org/CodeSystem/v2-0203",
            "code": "MR"
          } ]
        },
        "system": "https://bonnie-fhir.healthit.gov/",
        "value": "612e6f6202c62a011f2f1a06"
      } ],
      "active": true,
      "name": [ {
        "use": "usual",
        "family": "DENEXPass",
        "given": [ "UrologicalSurgeryDayOfICUStart" ]
      } ],
      "gender": "male",
      "birthDate": "1975-03-03"
    },
    "request": {
      "method": "PUT",
      "url": "Patient/d8271c75-5d30-4a02-9584-1572b0570843"
    }
  }, {
    "fullUrl": "https://madie.cms.gov/Encounter/3ccdeca1-2faf-43ce-8c1f-2b0db65ccfbb",
    "resource": {
      "resourceType": "Encounter",
      "id": "3ccdeca1-2faf-43ce-8c1f-2b0db65ccfbb",
      "meta": {
        "profile": [ "http://hl7.org/fhir/us/qicore/StructureDefinition/qicore-encounter" ]
      },
      "status": "finished",
      "class": {
        "system": "http://terminology.hl7.org/CodeSystem/v3-ActCode",
        "code": "IMP",
        "display": "inpatient encounter"
      },
      "type": [ {
        "coding": [ {
          "system": "http://snomed.info/sct",
          "code": "8715000"
        } ]
      } ],
      "subject": {
        "reference": "Patient/d8271c75-5d30-4a02-9584-1572b0570843"
      },
      "period": {
        "start": "2026-12-04T08:00:00.000+00:00",
        "end": "2026-12-30T08:15:00.000+00:00"
      },
      "length": {
        "value": 26,
        "unit": "days"
      },
      "location": [ {
        "location": {
          "reference": "Location/17c753ee-985f-4598-9f44-49cc7567453a"
        },
        "period": {
          "start": "2026-12-06T05:00:00.000+00:00",
          "end": "2026-12-28T08:15:00.000+00:00"
        }
      } ]
    },
    "request": {
      "method": "PUT",
      "url": "Encounter/3ccdeca1-2faf-43ce-8c1f-2b0db65ccfbb"
    }
  }, {
    "fullUrl": "https://madie.cms.gov/claim/5ca62962b8484628b8de1ec5",
    "resource": {
      "resourceType": "Claim",
      "id": "5ca62962b8484628b8de1ec5",
      "meta": {
        "profile": [ "http://hl7.org/fhir/us/qicore/StructureDefinition/qicore-claim" ]
      },
      "status": "active",
      "type": {
        "coding": [ {
          "system": "http://terminology.hl7.org/CodeSystem/claim-type",
          "code": "institutional"
        } ]
      },
      "use": "claim",
      "patient": {
        "reference": "Patient/d8271c75-5d30-4a02-9584-1572b0570843"
      },
      "created": "2026-12-01",
      "provider": {
        "reference": "Practitioner/bba320f9-f998-4649-b869-2c9f89821023"
      },
      "priority": {
        "coding": [ {
          "system": "http://terminology.hl7.org/CodeSystem/processpriority",
          "code": "normal"
        } ]
      },
      "procedure": [ {
        "sequence": 1,
        "type": [ {
          "coding": [ {
            "system": "http://terminology.hl7.org/CodeSystem/ex-procedure-type",
            "code": "primary"
          } ]
        } ],
        "procedureCodeableConcept": {
          "coding": [ {
            "system": "http://www.cms.gov/Medicare/Coding/ICD10",
            "code": "0T9400Z"
          } ]
        }
      } ],
      "insurance": [ {
        "sequence": 1,
        "focal": true,
        "coverage": {
          "reference": "Coverage/66b76a1b-560f-4117-ad79-12c6e98c0fa9"
        }
      } ],
      "item": [ {
        "sequence": 1,
        "procedureSequence": [ 1 ],
        "productOrService": {
          "coding": [ {
            "system": "http://terminology.hl7.org/CodeSystem/ex-USCLS",
            "code": "99555"
          } ]
        },
        "encounter": [ {
          "reference": "Encounter/3ccdeca1-2faf-43ce-8c1f-2b0db65ccfbb"
        } ]
      } ]
    },
    "request": {
      "method": "PUT",
      "url": "Claim/5ca62962b8484628b8de1ec5"
    }
  }, {
    "fullUrl": "https://madie.cms.gov/Coverage/66b76a1b-560f-4117-ad79-12c6e98c0fa9",
    "resource": {
      "resourceType": "Coverage",
      "id": "66b76a1b-560f-4117-ad79-12c6e98c0fa9",
      "status": "active",
      "beneficiary": {
        "reference": "Patient/d8271c75-5d30-4a02-9584-1572b0570843"
      },
      "period": {
        "start": "1975-03-03T08:00:00.000+00:00"
      },
      "payor": [ {
        "reference": "Organization/11ac70fd-445d-440a-bc79-6bf6606a67cd"
      } ]
    },
    "request": {
      "method": "PUT",
      "url": "Coverage/66b76a1b-560f-4117-ad79-12c6e98c0fa9"
    }
  }, {
    "fullUrl": "https://madie.cms.gov/Procedure/a9fe2e57-a88b-43b1-bdd7-720048cc9518",
    "resource": {
      "resourceType": "Procedure",
      "id": "a9fe2e57-a88b-43b1-bdd7-720048cc9518",
      "meta": {
        "profile": [ "http://hl7.org/fhir/us/qicore/StructureDefinition/qicore-procedure" ]
      },
      "extension": [ {
        "url": "http://hl7.org/fhir/us/qicore/StructureDefinition/qicore-recorded",
        "valueDateTime": "2013-12-04T13:35:00.000+00:00"
      } ],
      "status": "completed",
      "code": {
        "coding": [ {
          "system": "http://www.cms.gov/Medicare/Coding/ICD10",
          "code": "0T9400Z"
        } ]
      },
      "subject": {
        "reference": "Patient/d8271c75-5d30-4a02-9584-1572b0570843"
      },
      "performedPeriod": {
        "start": "2026-12-06T07:00:00.000+00:00",
        "end": "2026-12-06T13:00:00.000+00:00"
      }
    },
    "request": {
      "method": "PUT",
      "url": "Procedure/a9fe2e57-a88b-43b1-bdd7-720048cc9518"
    }
  }, {
    "fullUrl": "https://madie.cms.gov/Location/17c753ee-985f-4598-9f44-49cc7567453a",
    "resource": {
      "resourceType": "Location",
      "id": "17c753ee-985f-4598-9f44-49cc7567453a",
      "meta": {
        "profile": [ "http://hl7.org/fhir/us/qicore/StructureDefinition/qicore-location" ]
      },
      "identifier": [ {
        "use": "usual",
        "system": "http://exampleoflocation.com",
        "value": "B1-S.F2"
      } ],
      "name": "Medical Surgical East, first floor",
      "type": [ {
        "coding": [ {
          "system": "https://www.cdc.gov/nhsn/cdaportal/terminology/codesystem/hsloc.html",
          "code": "1025-6",
          "display": "Trauma Critical Care",
          "userSelected": true
        } ]
      } ]
    },
    "request": {
      "method": "PUT",
      "url": "Location/17c753ee-985f-4598-9f44-49cc7567453a"
    }
  }, {
    "fullUrl": "https://madie.cms.gov/Organization/11ac70fd-445d-440a-bc79-6bf6606a67cd",
    "resource": {
      "resourceType": "Organization",
      "id": "11ac70fd-445d-440a-bc79-6bf6606a67cd",
      "meta": {
        "profile": [ "http://hl7.org/fhir/us/qicore/StructureDefinition/qicore-organization" ]
      },
      "identifier": [ {
        "use": "temp",
        "system": "urn:oid:2.16.840.1.113883.4.4",
        "value": "21-3259825"
      } ],
      "active": true,
      "type": [ {
        "coding": [ {
          "system": "http://terminology.hl7.org/CodeSystem/organization-type",
          "code": "pay",
          "display": "Payer"
        } ]
      } ],
      "name": "Blue Cross Blue Shield of Texas",
      "telecom": [ {
        "system": "phone",
        "value": "(+1) 972-766-6900"
      } ],
      "address": [ {
        "use": "billing",
        "type": "postal",
        "line": [ "P.O. Box 660044" ],
        "city": "Dallas",
        "state": "TX",
        "postalCode": "75266-0044",
        "country": "USA"
      } ]
    },
    "request": {
      "method": "PUT",
      "url": "Organization/11ac70fd-445d-440a-bc79-6bf6606a67cd"
    }
  }, {
    "fullUrl": "https://madie.cms.gov/Practitioner/bba320f9-f998-4649-b869-2c9f89821023",
    "resource": {
      "resourceType": "Practitioner",
      "id": "bba320f9-f998-4649-b869-2c9f89821023",
      "identifier": [ {
        "system": "http://hl7.org/fhir/sid/us-npi",
        "value": "123456"
      } ],
      "name": [ {
        "family": "Evil",
        "prefix": [ "Dr" ]
      } ]
    },
    "request": {
      "method": "PUT",
      "url": "Practitioner/bba320f9-f998-4649-b869-2c9f89821023"
    }
  }, {
    "fullUrl": "https://madie.cms.gov/MeasureReport/fe2b8fe3-26d7-45d6-a282-e2c9cfbd3b41",
    "resource": {
      "resourceType": "MeasureReport",
      "id": "fe2b8fe3-26d7-45d6-a282-e2c9cfbd3b41",
      "meta": {
        "profile": [ "http://hl7.org/fhir/us/cqfmeasures/StructureDefinition/test-case-cqfm" ]
      },
      "contained": [ {
        "resourceType": "Parameters",
        "id": "da0b6f18-cf15-4411-9375-456592894bf9-parameters",
        "parameter": [ {
          "name": "subject",
          "valueString": "d8271c75-5d30-4a02-9584-1572b0570843"
        } ]
      } ],
      "extension": [ {
        "url": "http://hl7.org/fhir/StructureDefinition/cqf-inputParameters",
        "valueReference": {
          "reference": "#da0b6f18-cf15-4411-9375-456592894bf9-parameters"
        }
      }, {
        "url": "http://hl7.org/fhir/us/cqfmeasures/StructureDefinition/cqfm-testCaseDescription",
        "valueMarkdown": "UrologicalSurgery on same day of ICUStart\n"
      } ],
      "modifierExtension": [ {
        "url": "http://hl7.org/fhir/us/cqfmeasures/StructureDefinition/cqfm-isTestCase",
        "valueBoolean": true
      } ],
      "status": "complete",
      "type": "individual",
      "measure": "https://madie.cms.gov/Measure/CMS190FHIRVTEProphylaxisICU",
      "period": {
        "start": "2026-01-01",
        "end": "2026-12-31"
      },
      "group": [ {
        "id": "Group_1",
        "population": [ {
          "id": "InitialPopulation_1",
          "code": {
            "coding": [ {
              "system": "http://terminology.hl7.org/CodeSystem/measure-population",
              "code": "initial-population",
              "display": "Initial Population"
            } ]
          },
          "count": 1
        }, {
          "id": "Denominator_1",
          "code": {
            "coding": [ {
              "system": "http://terminology.hl7.org/CodeSystem/measure-population",
              "code": "denominator",
              "display": "Denominator"
            } ]
          },
          "count": 1
        }, {
          "id": "DenominatorExclusion_1",
          "code": {
            "coding": [ {
              "system": "http://terminology.hl7.org/CodeSystem/measure-population",
              "code": "denominator-exclusion",
              "display": "Denominator Exclusion"
            } ]
          },
          "count": 1
        }, {
          "id": "Numerator_1",
          "code": {
            "coding": [ {
              "system": "http://terminology.hl7.org/CodeSystem/measure-population",
              "code": "numerator",
              "display": "Numerator"
            } ]
          },
          "count": 0
        }, {
          "id": "DenominatorException_1",
          "code": {
            "coding": [ {
              "system": "http://terminology.hl7.org/CodeSystem/measure-population",
              "code": "denominator-exception",
              "display": "Denominator Exception"
            } ]
          },
          "count": 0
        } ],
        "measureScore": {
          "value": 0.0
        }
      } ],
      "evaluatedResource": [ {
        "reference": "Patient/d8271c75-5d30-4a02-9584-1572b0570843"
      }, {
        "reference": "Encounter/3ccdeca1-2faf-43ce-8c1f-2b0db65ccfbb"
      }, {
        "reference": "Claim/5ca62962b8484628b8de1ec5"
      }, {
        "reference": "Coverage/66b76a1b-560f-4117-ad79-12c6e98c0fa9"
      }, {
        "reference": "Procedure/a9fe2e57-a88b-43b1-bdd7-720048cc9518"
      }, {
        "reference": "Location/17c753ee-985f-4598-9f44-49cc7567453a"
      }, {
        "reference": "Organization/11ac70fd-445d-440a-bc79-6bf6606a67cd"
      }, {
        "reference": "Practitioner/bba320f9-f998-4649-b869-2c9f89821023"
      } ]
    },
    "request": {
      "method": "PUT",
      "url": "MeasureReport/fe2b8fe3-26d7-45d6-a282-e2c9cfbd3b41"
    }
  } ]
}