{
  "resourceType": "Bundle",
  "id": "2300003201",
  "type": "collection",
  "entry": [ {
    "fullUrl": "https://madie.cms.gov/Patient/598ab62f-bb5f-4947-b299-97aa8c50aef2",
    "resource": {
      "resourceType": "Patient",
      "id": "598ab62f-bb5f-4947-b299-97aa8c50aef2",
      "meta": {
        "profile": [ "http://hl7.org/fhir/us/qicore/StructureDefinition/qicore-patient" ]
      },
      "extension": [ {
        "url": "http://hl7.org/fhir/us/core/StructureDefinition/us-core-race",
        "extension": [ {
          "url": "ombCategory",
          "valueCoding": {
            "system": "urn:oid:2.16.840.1.113883.6.238",
            "code": "2106-3",
            "display": "White",
            "userSelected": true
          }
        }, {
          "url": "text",
          "valueString": "White"
        } ]
      }, {
        "url": "http://hl7.org/fhir/us/core/StructureDefinition/us-core-ethnicity",
        "extension": [ {
          "url": "ombCategory",
          "valueCoding": {
            "system": "urn:oid:2.16.840.1.113883.6.238",
            "code": "2135-2",
            "display": "Hispanic or Latino",
            "userSelected": true
          }
        }, {
          "url": "text",
          "valueString": "Hispanic or Latino"
        } ]
      } ],
      "identifier": [ {
        "type": {
          "coding": [ {
            "system": "http://terminology.hl7.org/CodeSystem/v2-0203",
            "code": "MR"
          } ]
        },
        "system": "https://bonnie-fhir.healthit.gov/",
        "value": "2300003201"
      } ],
      "name": [ {
        "family": "IPFail",
        "given": [ "NoDementiaDX" ]
      } ],
      "gender": "female",
      "birthDate": "1951-02-26"
    }
  }, {
    "fullUrl": "https://madie.cms.gov/Encounter/20208fd7-2e5c-4df0-a0e5-0820e717f2dd",
    "resource": {
      "resourceType": "Encounter",
      "id": "20208fd7-2e5c-4df0-a0e5-0820e717f2dd",
      "meta": {
        "profile": [ "http://hl7.org/fhir/us/qicore/StructureDefinition/qicore-encounter" ]
      },
      "status": "finished",
      "class": {
        "system": "http://terminology.hl7.org/CodeSystem/v3-ActCode",
        "code": "AMB",
        "display": "ambulatory"
      },
      "type": [ {
        "coding": [ {
          "system": "http://snomed.info/sct",
          "version": "http://snomed.info/sct/731000124108/version/202303",
          "code": "10197000",
          "display": "Psychiatric interview and evaluation (procedure)",
          "userSelected": true
        } ]
      } ],
      "subject": {
        "reference": "Patient/598ab62f-bb5f-4947-b299-97aa8c50aef2"
      },
      "period": {
        "start": "2026-01-02T08:00:00.000+00:00",
        "end": "2026-01-02T08:15:00.000+00:00"
      }
    }
  }, {
    "fullUrl": "https://madie.cms.gov/Encounter/4168192b-da0c-40e8-8b65-85b6d85af0cc",
    "resource": {
      "resourceType": "Encounter",
      "id": "4168192b-da0c-40e8-8b65-85b6d85af0cc",
      "meta": {
        "profile": [ "http://hl7.org/fhir/us/qicore/StructureDefinition/qicore-encounter" ]
      },
      "status": "finished",
      "class": {
        "system": "http://terminology.hl7.org/CodeSystem/v3-ActCode",
        "code": "AMB",
        "display": "ambulatory"
      },
      "type": [ {
        "coding": [ {
          "system": "http://snomed.info/sct",
          "version": "http://snomed.info/sct/731000124108/version/202303",
          "code": "185460008",
          "display": "Home visit request by patient (procedure)",
          "userSelected": true
        } ]
      } ],
      "subject": {
        "reference": "Patient/598ab62f-bb5f-4947-b299-97aa8c50aef2"
      },
      "period": {
        "start": "2026-06-06T08:00:00.000+00:00",
        "end": "2026-06-06T08:15:00.000+00:00"
      }
    }
  }, {
    "fullUrl": "https://madie.cms.gov/MeasureReport/eabbfe26-8b5f-4661-9e17-4aec603b59e0",
    "resource": {
      "resourceType": "MeasureReport",
      "id": "eabbfe26-8b5f-4661-9e17-4aec603b59e0",
      "meta": {
        "profile": [ "http://hl7.org/fhir/us/cqfmeasures/StructureDefinition/test-case-cqfm" ]
      },
      "contained": [ {
        "resourceType": "Parameters",
        "id": "ceece69c-dad2-48ff-8547-228baf5f6fb7-parameters",
        "parameter": [ {
          "name": "subject",
          "valueString": "598ab62f-bb5f-4947-b299-97aa8c50aef2"
        } ]
      } ],
      "extension": [ {
        "url": "http://hl7.org/fhir/StructureDefinition/cqf-inputParameters",
        "valueReference": {
          "reference": "#ceece69c-dad2-48ff-8547-228baf5f6fb7-parameters"
        }
      }, {
        "url": "http://hl7.org/fhir/us/cqfmeasures/StructureDefinition/cqfm-testCaseDescription",
        "valueMarkdown": "Patient does not have a dementia diagnosis required for initial population"
      } ],
      "modifierExtension": [ {
        "url": "http://hl7.org/fhir/us/cqfmeasures/StructureDefinition/cqfm-isTestCase",
        "valueBoolean": true
      } ],
      "status": "complete",
      "type": "individual",
      "measure": "https://madie.cms.gov/Measure/CMS149FHIRDementiaCognitiveAssess",
      "period": {
        "start": "2026-01-01",
        "end": "2026-12-31"
      },
      "group": [ {
        "id": "Group_1",
        "population": [ {
          "id": "InitialPopulation_1",
          "code": {
            "coding": [ {
              "system": "http://terminology.hl7.org/CodeSystem/measure-population",
              "code": "initial-population",
              "display": "Initial Population"
            } ]
          },
          "count": 0
        }, {
          "id": "Denominator_1",
          "code": {
            "coding": [ {
              "system": "http://terminology.hl7.org/CodeSystem/measure-population",
              "code": "denominator",
              "display": "Denominator"
            } ]
          },
          "count": 0
        }, {
          "id": "Numerator_1",
          "code": {
            "coding": [ {
              "system": "http://terminology.hl7.org/CodeSystem/measure-population",
              "code": "numerator",
              "display": "Numerator"
            } ]
          },
          "count": 0
        }, {
          "id": "DenominatorException_1",
          "code": {
            "coding": [ {
              "system": "http://terminology.hl7.org/CodeSystem/measure-population",
              "code": "denominator-exception",
              "display": "Denominator Exception"
            } ]
          },
          "count": 0
        } ],
        "measureScore": {
          "value": 1.0
        }
      } ],
      "evaluatedResource": [ {
        "reference": "Patient/598ab62f-bb5f-4947-b299-97aa8c50aef2"
      }, {
        "reference": "Encounter/20208fd7-2e5c-4df0-a0e5-0820e717f2dd"
      }, {
        "reference": "Encounter/4168192b-da0c-40e8-8b65-85b6d85af0cc"
      } ]
    }
  } ]
}