{
  "resourceType": "Bundle",
  "id": "633c9d030968f8012250fc88",
  "type": "transaction",
  "entry": [ {
    "fullUrl": "https://madie.cms.gov/Patient/bfa4b097-4c27-4046-a036-d97267e94113",
    "resource": {
      "resourceType": "Patient",
      "id": "bfa4b097-4c27-4046-a036-d97267e94113",
      "meta": {
        "profile": [ "http://hl7.org/fhir/us/qicore/StructureDefinition/qicore-patient" ]
      },
      "text": {
        "status": "generated",
        "div": "<div xmlns=\"http://www.w3.org/1999/xhtml\"><div class=\"hapiHeaderText\">CMOdurED_ED&lt;1hrNoObsBFEnc <b>DENEXPASS </b></div><table class=\"hapiPropertyTable\"><tbody><tr><td>Identifier</td><td>cd0066a23b25d0eb7377a3fb55c6a2f4</td></tr><tr><td>Date of birth</td><td><span>18 September 1985</span></td></tr></tbody></table></div>"
      },
      "extension": [ {
        "url": "http://hl7.org/fhir/us/core/StructureDefinition/us-core-race",
        "extension": [ {
          "url": "ombCategory",
          "valueCoding": {
            "system": "urn:oid:2.16.840.1.113883.6.238",
            "code": "1002-5",
            "display": "American Indian or Alaska Native",
            "userSelected": true
          }
        }, {
          "url": "text",
          "valueString": "American Indian or Alaska Native"
        } ]
      }, {
        "url": "http://hl7.org/fhir/us/core/StructureDefinition/us-core-ethnicity",
        "extension": [ {
          "url": "ombCategory",
          "valueCoding": {
            "system": "urn:oid:2.16.840.1.113883.6.238",
            "code": "2135-2",
            "display": "Hispanic or Latino",
            "userSelected": true
          }
        }, {
          "url": "text",
          "valueString": "Hispanic or Latino"
        } ]
      } ],
      "identifier": [ {
        "type": {
          "coding": [ {
            "system": "http://terminology.hl7.org/CodeSystem/v2-0203",
            "code": "MR"
          } ]
        },
        "system": "https://bonnie-fhir.healthit.gov/",
        "value": "633c9d030968f8012250fc88"
      } ],
      "active": true,
      "name": [ {
        "use": "usual",
        "family": "DENEXPass",
        "given": [ "CMOdurED_ED<1hrNoObsBFEnc" ]
      } ],
      "gender": "female",
      "birthDate": "1986-09-18"
    },
    "request": {
      "method": "PUT",
      "url": "Patient/bfa4b097-4c27-4046-a036-d97267e94113"
    }
  }, {
    "fullUrl": "https://madie.cms.gov/Condition/e1713e6c-930a-4535-b9b2-c8cde596e3aa",
    "resource": {
      "resourceType": "Condition",
      "id": "e1713e6c-930a-4535-b9b2-c8cde596e3aa",
      "meta": {
        "profile": [ "http://hl7.org/fhir/us/qicore/StructureDefinition/qicore-condition-problems-health-concerns" ]
      },
      "clinicalStatus": {
        "coding": [ {
          "system": "http://terminology.hl7.org/CodeSystem/condition-clinical",
          "code": "inactive"
        } ]
      },
      "verificationStatus": {
        "coding": [ {
          "system": "http://terminology.hl7.org/CodeSystem/condition-ver-status",
          "code": "confirmed"
        } ]
      },
      "category": [ {
        "coding": [ {
          "system": "http://terminology.hl7.org/CodeSystem/condition-category",
          "code": "encounter-diagnosis",
          "display": "Encounter Diagnosis"
        } ]
      } ],
      "code": {
        "coding": [ {
          "system": "http://hl7.org/fhir/sid/icd-10-cm",
          "code": "I48.20"
        }, {
          "system": "http://hl7.org/fhir/sid/icd-10-cm",
          "code": "I48.0"
        }, {
          "system": "http://snomed.info/sct",
          "code": "5370000"
        } ]
      },
      "subject": {
        "reference": "Patient/bfa4b097-4c27-4046-a036-d97267e94113"
      },
      "onsetDateTime": "2026-10-01T09:01:00.000+00:00",
      "abatementDateTime": "2026-10-12T00:15:00.000+00:00"
    },
    "request": {
      "method": "PUT",
      "url": "Condition/e1713e6c-930a-4535-b9b2-c8cde596e3aa"
    }
  }, {
    "fullUrl": "https://madie.cms.gov/Encounter/8676f6e6-f751-488b-b4af-5b0a88c44886",
    "resource": {
      "resourceType": "Encounter",
      "id": "8676f6e6-f751-488b-b4af-5b0a88c44886",
      "meta": {
        "profile": [ "http://hl7.org/fhir/us/qicore/StructureDefinition/qicore-encounter" ]
      },
      "status": "finished",
      "class": {
        "system": "http://terminology.hl7.org/CodeSystem/v3-ActCode",
        "code": "EMER",
        "display": "emergency"
      },
      "type": [ {
        "coding": [ {
          "system": "http://snomed.info/sct",
          "code": "4525004"
        } ]
      } ],
      "subject": {
        "reference": "Patient/bfa4b097-4c27-4046-a036-d97267e94113"
      },
      "period": {
        "start": "2026-10-01T09:01:00.000+00:00",
        "end": "2026-10-01T12:15:00.000+00:00"
      },
      "length": {
        "value": 0,
        "unit": "days"
      },
      "reasonReference": [ {
        "reference": "Condition/e1713e6c-930a-4535-b9b2-c8cde596e3aa"
      } ]
    },
    "request": {
      "method": "PUT",
      "url": "Encounter/8676f6e6-f751-488b-b4af-5b0a88c44886"
    }
  }, {
    "fullUrl": "https://madie.cms.gov/claim/5ca62962b8484628b8de1ec5",
    "resource": {
      "resourceType": "Claim",
      "id": "5ca62962b8484628b8de1ec5",
      "meta": {
        "profile": [ "http://hl7.org/fhir/us/qicore/StructureDefinition/qicore-claim" ]
      },
      "status": "active",
      "type": {
        "coding": [ {
          "system": "http://terminology.hl7.org/CodeSystem/claim-type",
          "code": "institutional"
        } ]
      },
      "use": "claim",
      "patient": {
        "reference": "Patient/d170a0a8-b5ad-4303-b6df-e304dd5f92ad"
      },
      "created": "2026-12-01",
      "provider": {
        "reference": "Practitioner/692589c0-d7fa-4c46-b6e8-da722b1fd775"
      },
      "priority": {
        "coding": [ {
          "system": "http://terminology.hl7.org/CodeSystem/processpriority",
          "code": "normal"
        } ]
      },
      "diagnosis": [ {
        "sequence": 1,
        "diagnosisCodeableConcept": {
          "coding": [ {
            "system": "http://hl7.org/fhir/sid/icd-10-cm",
            "code": "I63.00"
          } ]
        },
        "type": [ {
          "coding": [ {
            "system": "http://terminology.hl7.org/CodeSystem/ex-diagnosistype",
            "code": "principal"
          } ]
        } ]
      } ],
      "insurance": [ {
        "sequence": 1,
        "focal": true,
        "coverage": {
          "reference": "Coverage/5fa041661c76ba66d9959367"
        }
      } ],
      "item": [ {
        "sequence": 1,
        "diagnosisSequence": [ 1 ],
        "productOrService": {
          "coding": [ {
            "system": "http://terminology.hl7.org/CodeSystem/ex-USCLS",
            "code": "99555"
          } ]
        },
        "encounter": [ {
          "reference": "Encounter/7fa94f6e-b97a-411a-892e-cb77564e3b19"
        } ]
      } ]
    },
    "request": {
      "method": "PUT",
      "url": "Claim/5ca62962b8484628b8de1ec5"
    }
  }, {
    "fullUrl": "https://madie.cms.gov/Encounter/7fa94f6e-b97a-411a-892e-cb77564e3b19",
    "resource": {
      "resourceType": "Encounter",
      "id": "7fa94f6e-b97a-411a-892e-cb77564e3b19",
      "meta": {
        "profile": [ "http://hl7.org/fhir/us/qicore/StructureDefinition/qicore-encounter" ]
      },
      "status": "finished",
      "class": {
        "system": "http://terminology.hl7.org/CodeSystem/v3-ActCode",
        "code": "IMP",
        "display": "inpatient encounter"
      },
      "type": [ {
        "coding": [ {
          "system": "http://snomed.info/sct",
          "code": "32485007"
        } ]
      } ],
      "subject": {
        "reference": "Patient/bfa4b097-4c27-4046-a036-d97267e94113"
      },
      "period": {
        "start": "2026-10-01T12:16:00.000+00:00",
        "end": "2026-10-12T00:15:00.000+00:00"
      },
      "length": {
        "value": 11,
        "unit": "days"
      },
      "reasonReference": [ {
        "reference": "Condition/e1713e6c-930a-4535-b9b2-c8cde596e3aa"
      } ]
    },
    "request": {
      "method": "PUT",
      "url": "Encounter/7fa94f6e-b97a-411a-892e-cb77564e3b19"
    }
  }, {
    "fullUrl": "https://madie.cms.gov/ServiceRequest/e166d246-537b-44a1-8109-6c944d3868b6",
    "resource": {
      "resourceType": "ServiceRequest",
      "id": "e166d246-537b-44a1-8109-6c944d3868b6",
      "meta": {
        "profile": [ "http://hl7.org/fhir/us/qicore/StructureDefinition/qicore-servicerequest" ]
      },
      "status": "active",
      "intent": "order",
      "code": {
        "coding": [ {
          "system": "http://snomed.info/sct",
          "code": "133918004"
        } ]
      },
      "subject": {
        "reference": "Patient/bfa4b097-4c27-4046-a036-d97267e94113"
      },
      "authoredOn": "2026-10-01T09:15:00.000+00:00"
    },
    "request": {
      "method": "PUT",
      "url": "ServiceRequest/e166d246-537b-44a1-8109-6c944d3868b6"
    }
  }, {
    "fullUrl": "https://madie.cms.gov/Coverage/57db46c2-93c8-498e-92ae-7243a5c1b66d",
    "resource": {
      "resourceType": "Coverage",
      "id": "57db46c2-93c8-498e-92ae-7243a5c1b66d",
      "meta": {
        "profile": [ "http://hl7.org/fhir/us/qicore/StructureDefinition/qicore-coverage" ]
      },
      "status": "active",
      "subscriberId": "523435",
      "beneficiary": {
        "reference": "Patient/162a5913-9989-42f2-8d6a-ae460e245e4c"
      },
      "relationship": {
        "coding": [ {
          "system": "http://terminology.hl7.org/CodeSystem/subscriber-relationship",
          "code": "self"
        } ]
      },
      "payor": [ {
        "reference": "Organization/2b35385e-cdcb-4e4d-9e9b-c6f6476706b7"
      } ]
    },
    "request": {
      "method": "PUT",
      "url": "Coverage/57db46c2-93c8-498e-92ae-7243a5c1b66d"
    }
  }, {
    "fullUrl": "https://madie.cms.gov/Condition/648fcd3f-d378-4901-bf79-e32d2f692d4f",
    "resource": {
      "resourceType": "Condition",
      "id": "648fcd3f-d378-4901-bf79-e32d2f692d4f",
      "meta": {
        "profile": [ "http://hl7.org/fhir/us/qicore/StructureDefinition/qicore-condition-problems-health-concerns" ]
      },
      "clinicalStatus": {
        "coding": [ {
          "system": "http://terminology.hl7.org/CodeSystem/condition-clinical",
          "code": "active"
        } ]
      },
      "verificationStatus": {
        "coding": [ {
          "system": "http://terminology.hl7.org/CodeSystem/condition-ver-status",
          "code": "confirmed"
        } ]
      },
      "category": [ {
        "coding": [ {
          "system": "http://terminology.hl7.org/CodeSystem/condition-category",
          "code": "encounter-diagnosis",
          "display": "Encounter Diagnosis"
        } ]
      } ],
      "code": {
        "coding": [ {
          "system": "http://snomed.info/sct",
          "version": "2021-09",
          "code": "111297002",
          "display": "Nonparalytic stroke (disorder)",
          "userSelected": true
        } ]
      },
      "subject": {
        "reference": "Patient/bfa4b097-4c27-4046-a036-d97267e94113"
      },
      "recordedDate": "2026-10-13T08:00:00.000+00:00"
    },
    "request": {
      "method": "PUT",
      "url": "Condition/648fcd3f-d378-4901-bf79-e32d2f692d4f"
    }
  }, {
    "fullUrl": "https://madie.cms.gov/Organization/2b35385e-cdcb-4e4d-9e9b-c6f6476706b7",
    "resource": {
      "resourceType": "Organization",
      "id": "2b35385e-cdcb-4e4d-9e9b-c6f6476706b7",
      "meta": {
        "profile": [ "http://hl7.org/fhir/us/qicore/StructureDefinition/qicore-organization" ]
      },
      "identifier": [ {
        "use": "temp",
        "system": "urn:oid:2.16.840.1.113883.4.4",
        "value": "21-3259825"
      } ],
      "active": true,
      "type": [ {
        "coding": [ {
          "system": "http://terminology.hl7.org/CodeSystem/organization-type",
          "code": "pay",
          "display": "Payer"
        } ]
      } ],
      "name": "Blue Cross Blue Shield of Texas",
      "telecom": [ {
        "system": "phone",
        "value": "(+1) 972-766-6900"
      } ],
      "address": [ {
        "use": "billing",
        "type": "postal",
        "line": [ "P.O. Box 660044" ],
        "city": "Dallas",
        "state": "TX",
        "postalCode": "75266-0044",
        "country": "USA"
      } ]
    },
    "request": {
      "method": "PUT",
      "url": "Organization/2b35385e-cdcb-4e4d-9e9b-c6f6476706b7"
    }
  }, {
    "fullUrl": "https://madie.cms.gov/Practitioner/692589c0-d7fa-4c46-b6e8-da722b1fd775",
    "resource": {
      "resourceType": "Practitioner",
      "id": "692589c0-d7fa-4c46-b6e8-da722b1fd775",
      "meta": {
        "profile": [ "http://hl7.org/fhir/us/qicore/StructureDefinition/qicore-practitioner" ]
      },
      "identifier": [ {
        "system": "http://hl7.org/fhir/sid/us-npi",
        "value": "9999999896"
      } ],
      "name": [ {
        "family": "Evil",
        "prefix": [ "Dr" ]
      } ]
    },
    "request": {
      "method": "PUT",
      "url": "Practitioner/692589c0-d7fa-4c46-b6e8-da722b1fd775"
    }
  }, {
    "fullUrl": "https://madie.cms.gov/MeasureReport/4b1b2769-062a-4e99-8841-24f9378dce76",
    "resource": {
      "resourceType": "MeasureReport",
      "id": "4b1b2769-062a-4e99-8841-24f9378dce76",
      "meta": {
        "profile": [ "http://hl7.org/fhir/us/cqfmeasures/StructureDefinition/test-case-cqfm" ]
      },
      "contained": [ {
        "resourceType": "Parameters",
        "id": "41736215-a62c-49d9-b7fc-569c73d84206-parameters",
        "parameter": [ {
          "name": "subject",
          "valueString": "bfa4b097-4c27-4046-a036-d97267e94113"
        } ]
      } ],
      "extension": [ {
        "url": "http://hl7.org/fhir/StructureDefinition/cqf-inputParameters",
        "valueReference": {
          "reference": "#41736215-a62c-49d9-b7fc-569c73d84206-parameters"
        }
      }, {
        "url": "http://hl7.org/fhir/us/cqfmeasures/StructureDefinition/cqfm-testCaseDescription",
        "valueMarkdown": "Patient receives CMO during ED. ED ends 1 min before Obs start and Obs ends 1 min before inpatient start.  Testing HospitalizationWithObservation function"
      } ],
      "modifierExtension": [ {
        "url": "http://hl7.org/fhir/us/cqfmeasures/StructureDefinition/cqfm-isTestCase",
        "valueBoolean": true
      } ],
      "status": "complete",
      "type": "individual",
      "measure": "https://madie.cms.gov/Measure/CMS71FHIRSTKAnticoagAFFlutter",
      "period": {
        "start": "2026-01-01",
        "end": "2026-12-31"
      },
      "group": [ {
        "id": "Group_1",
        "population": [ {
          "id": "InitialPopulation_1",
          "code": {
            "coding": [ {
              "system": "http://terminology.hl7.org/CodeSystem/measure-population",
              "code": "initial-population",
              "display": "Initial Population"
            } ]
          },
          "count": 1
        }, {
          "id": "Denominator_1",
          "code": {
            "coding": [ {
              "system": "http://terminology.hl7.org/CodeSystem/measure-population",
              "code": "denominator",
              "display": "Denominator"
            } ]
          },
          "count": 1
        }, {
          "id": "DenominatorExclusion_1",
          "code": {
            "coding": [ {
              "system": "http://terminology.hl7.org/CodeSystem/measure-population",
              "code": "denominator-exclusion",
              "display": "Denominator Exclusion"
            } ]
          },
          "count": 1
        }, {
          "id": "Numerator_1",
          "code": {
            "coding": [ {
              "system": "http://terminology.hl7.org/CodeSystem/measure-population",
              "code": "numerator",
              "display": "Numerator"
            } ]
          },
          "count": 0
        }, {
          "id": "DenominatorException_1",
          "code": {
            "coding": [ {
              "system": "http://terminology.hl7.org/CodeSystem/measure-population",
              "code": "denominator-exception",
              "display": "Denominator Exception"
            } ]
          },
          "count": 0
        } ],
        "measureScore": {
          "value": 0.0
        }
      } ],
      "evaluatedResource": [ {
        "reference": "Patient/bfa4b097-4c27-4046-a036-d97267e94113"
      }, {
        "reference": "Condition/e1713e6c-930a-4535-b9b2-c8cde596e3aa"
      }, {
        "reference": "Encounter/8676f6e6-f751-488b-b4af-5b0a88c44886"
      }, {
        "reference": "Claim/5ca62962b8484628b8de1ec5"
      }, {
        "reference": "Encounter/7fa94f6e-b97a-411a-892e-cb77564e3b19"
      }, {
        "reference": "ServiceRequest/e166d246-537b-44a1-8109-6c944d3868b6"
      }, {
        "reference": "Coverage/57db46c2-93c8-498e-92ae-7243a5c1b66d"
      }, {
        "reference": "Condition/648fcd3f-d378-4901-bf79-e32d2f692d4f"
      }, {
        "reference": "Organization/2b35385e-cdcb-4e4d-9e9b-c6f6476706b7"
      }, {
        "reference": "Practitioner/692589c0-d7fa-4c46-b6e8-da722b1fd775"
      } ]
    },
    "request": {
      "method": "PUT",
      "url": "MeasureReport/4b1b2769-062a-4e99-8841-24f9378dce76"
    }
  } ]
}