{
  "resourceType": "Bundle",
  "id": "641367794b11b147841ab8a1",
  "type": "transaction",
  "entry": [ {
    "fullUrl": "https://madie.cms.gov/Patient/7921acb6-7c9a-4c78-bdf1-a8e1ec2c7023",
    "resource": {
      "resourceType": "Patient",
      "id": "7921acb6-7c9a-4c78-bdf1-a8e1ec2c7023",
      "meta": {
        "profile": [ "http://hl7.org/fhir/us/qicore/StructureDefinition/qicore-patient" ]
      },
      "extension": [ {
        "url": "http://hl7.org/fhir/us/core/StructureDefinition/us-core-race",
        "extension": [ {
          "url": "ombCategory",
          "valueCoding": {
            "system": "urn:oid:2.16.840.1.113883.6.238",
            "code": "2076-8",
            "display": "Native Hawaiian or Other Pacific Islander",
            "userSelected": true
          }
        }, {
          "url": "text",
          "valueString": "Native Hawaiian or Other Pacific Islander"
        } ]
      }, {
        "url": "http://hl7.org/fhir/us/core/StructureDefinition/us-core-ethnicity",
        "extension": [ {
          "url": "ombCategory",
          "valueCoding": {
            "system": "urn:oid:2.16.840.1.113883.6.238",
            "code": "2186-5",
            "display": "Not Hispanic or Latino",
            "userSelected": true
          }
        }, {
          "url": "text",
          "valueString": "Not Hispanic or Latino"
        } ]
      } ],
      "identifier": [ {
        "type": {
          "coding": [ {
            "system": "http://terminology.hl7.org/CodeSystem/v2-0203",
            "code": "MR"
          } ]
        },
        "system": "https://bonnie-fhir.healthit.gov/",
        "value": "641367794b11b147841ab8a1"
      } ],
      "name": [ {
        "family": "DENEXPass",
        "given": [ "ESRDDxFirstDayOfMP" ]
      } ],
      "gender": "male",
      "birthDate": "1955-10-19"
    },
    "request": {
      "method": "PUT",
      "url": "Patient/7921acb6-7c9a-4c78-bdf1-a8e1ec2c7023"
    }
  }, {
    "fullUrl": "https://madie.cms.gov/Condition/2b0dc51b-4643-4daa-aeec-2508fa809c70",
    "resource": {
      "resourceType": "Condition",
      "id": "2b0dc51b-4643-4daa-aeec-2508fa809c70",
      "meta": {
        "profile": [ "http://hl7.org/fhir/us/qicore/StructureDefinition/qicore-condition-encounter-diagnosis" ]
      },
      "clinicalStatus": {
        "coding": [ {
          "system": "http://terminology.hl7.org/CodeSystem/condition-clinical",
          "code": "active",
          "display": "active",
          "userSelected": true
        } ]
      },
      "category": [ {
        "coding": [ {
          "system": "http://terminology.hl7.org/CodeSystem/condition-category",
          "code": "encounter-diagnosis",
          "display": "Encounter Diagnosis",
          "userSelected": true
        } ]
      } ],
      "code": {
        "coding": [ {
          "system": "http://snomed.info/sct",
          "version": "2021-09",
          "code": "102781000119107",
          "display": "Sensory neuropathy due to type 1 diabetes mellitus (disorder)",
          "userSelected": true
        } ]
      },
      "subject": {
        "reference": "Patient/7921acb6-7c9a-4c78-bdf1-a8e1ec2c7023"
      },
      "onsetDateTime": "2023-11-14T03:00:00.000+00:00"
    },
    "request": {
      "method": "PUT",
      "url": "Condition/2b0dc51b-4643-4daa-aeec-2508fa809c70"
    }
  }, {
    "fullUrl": "https://madie.cms.gov/Condition/d3f35824-860f-4bd0-b230-690368ba109f",
    "resource": {
      "resourceType": "Condition",
      "id": "d3f35824-860f-4bd0-b230-690368ba109f",
      "meta": {
        "profile": [ "http://hl7.org/fhir/us/qicore/StructureDefinition/qicore-condition-encounter-diagnosis" ]
      },
      "clinicalStatus": {
        "coding": [ {
          "system": "http://terminology.hl7.org/CodeSystem/condition-clinical",
          "code": "active",
          "display": "active",
          "userSelected": true
        } ]
      },
      "category": [ {
        "coding": [ {
          "system": "http://terminology.hl7.org/CodeSystem/condition-category",
          "code": "encounter-diagnosis",
          "display": "Encounter Diagnosis",
          "userSelected": true
        } ]
      } ],
      "code": {
        "coding": [ {
          "system": "http://snomed.info/sct",
          "version": "2021-09",
          "code": "236434000",
          "display": "End stage renal failure untreated by renal replacement therapy (disorder)",
          "userSelected": true
        } ]
      },
      "subject": {
        "reference": "Patient/7921acb6-7c9a-4c78-bdf1-a8e1ec2c7023"
      },
      "onsetDateTime": "2026-02-15T08:00:00.000+00:00"
    },
    "request": {
      "method": "PUT",
      "url": "Condition/d3f35824-860f-4bd0-b230-690368ba109f"
    }
  }, {
    "fullUrl": "https://madie.cms.gov/Encounter/83a376cc-c87f-485e-b9e4-49188b9b1ff9",
    "resource": {
      "resourceType": "Encounter",
      "id": "83a376cc-c87f-485e-b9e4-49188b9b1ff9",
      "meta": {
        "profile": [ "http://hl7.org/fhir/us/qicore/StructureDefinition/qicore-encounter" ]
      },
      "status": "finished",
      "class": {
        "system": "http://terminology.hl7.org/CodeSystem/v3-ActCode",
        "code": "AMB",
        "display": "ambulatory",
        "userSelected": true
      },
      "type": [ {
        "coding": [ {
          "system": "http://www.ama-assn.org/go/cpt",
          "version": "2021",
          "code": "99395",
          "display": "Periodic comprehensive preventive medicine reevaluation and management of an individual including an age and gender appropriate history, examination, counseling/anticipatory guidance/risk factor reduction interventions, and the ordering of laboratory/diagnostic procedures, established patient; 18-39 years",
          "userSelected": true
        } ]
      } ],
      "subject": {
        "reference": "Patient/7921acb6-7c9a-4c78-bdf1-a8e1ec2c7023"
      },
      "period": {
        "start": "2026-03-14T08:00:00.000+00:00",
        "end": "2026-03-14T08:15:00.000+00:00"
      }
    },
    "request": {
      "method": "PUT",
      "url": "Encounter/83a376cc-c87f-485e-b9e4-49188b9b1ff9"
    }
  }, {
    "fullUrl": "https://madie.cms.gov/MeasureReport/527be2ac-0a65-45a5-a1d3-831825202923",
    "resource": {
      "resourceType": "MeasureReport",
      "id": "527be2ac-0a65-45a5-a1d3-831825202923",
      "meta": {
        "profile": [ "http://hl7.org/fhir/us/cqfmeasures/StructureDefinition/test-case-cqfm" ]
      },
      "contained": [ {
        "resourceType": "Parameters",
        "id": "45034fd4-6bea-4fc8-bfd8-cde5debf66f9-parameters",
        "parameter": [ {
          "name": "subject",
          "valueString": "7921acb6-7c9a-4c78-bdf1-a8e1ec2c7023"
        } ]
      } ],
      "extension": [ {
        "url": "http://hl7.org/fhir/StructureDefinition/cqf-inputParameters",
        "valueReference": {
          "reference": "#45034fd4-6bea-4fc8-bfd8-cde5debf66f9-parameters"
        }
      }, {
        "url": "http://hl7.org/fhir/us/cqfmeasures/StructureDefinition/cqfm-testCaseDescription",
        "valueMarkdown": "This patient is 70 years old with a qualifying encounter and active diabetes diagnosis, with a diagnosis of chronic kidney disease, stage 5 as well. This case test the denominator exclusion criteria."
      } ],
      "modifierExtension": [ {
        "url": "http://hl7.org/fhir/us/cqfmeasures/StructureDefinition/cqfm-isTestCase",
        "valueBoolean": true
      } ],
      "status": "complete",
      "type": "individual",
      "measure": "https://madie.cms.gov/Measure/CMS951FHIRKidneyHealthEval",
      "period": {
        "start": "2026-01-01",
        "end": "2026-12-31"
      },
      "group": [ {
        "id": "Group_1",
        "population": [ {
          "id": "InitialPopulation_1",
          "code": {
            "coding": [ {
              "system": "http://terminology.hl7.org/CodeSystem/measure-population",
              "code": "initial-population",
              "display": "Initial Population"
            } ]
          },
          "count": 1
        }, {
          "id": "Denominator_1",
          "code": {
            "coding": [ {
              "system": "http://terminology.hl7.org/CodeSystem/measure-population",
              "code": "denominator",
              "display": "Denominator"
            } ]
          },
          "count": 1
        }, {
          "id": "DenominatorExclusion_1",
          "code": {
            "coding": [ {
              "system": "http://terminology.hl7.org/CodeSystem/measure-population",
              "code": "denominator-exclusion",
              "display": "Denominator Exclusion"
            } ]
          },
          "count": 1
        }, {
          "id": "Numerator_1",
          "code": {
            "coding": [ {
              "system": "http://terminology.hl7.org/CodeSystem/measure-population",
              "code": "numerator",
              "display": "Numerator"
            } ]
          },
          "count": 0
        } ],
        "measureScore": {
          "value": 1.0
        }
      } ],
      "evaluatedResource": [ {
        "reference": "Patient/7921acb6-7c9a-4c78-bdf1-a8e1ec2c7023"
      }, {
        "reference": "Condition/2b0dc51b-4643-4daa-aeec-2508fa809c70"
      }, {
        "reference": "Condition/d3f35824-860f-4bd0-b230-690368ba109f"
      }, {
        "reference": "Encounter/83a376cc-c87f-485e-b9e4-49188b9b1ff9"
      } ]
    },
    "request": {
      "method": "PUT",
      "url": "MeasureReport/527be2ac-0a65-45a5-a1d3-831825202923"
    }
  } ]
}