{
  "resourceType": "Bundle",
  "id": "633c9d020968f8012250fc67",
  "type": "transaction",
  "entry": [ {
    "fullUrl": "https://madie.cms.gov/Patient/cec2b099-7f6d-4260-a2f8-bc0ed0b9c3e5",
    "resource": {
      "resourceType": "Patient",
      "id": "cec2b099-7f6d-4260-a2f8-bc0ed0b9c3e5",
      "meta": {
        "profile": [ "http://hl7.org/fhir/us/qicore/StructureDefinition/qicore-patient" ]
      },
      "text": {
        "status": "generated",
        "div": "<div xmlns=\"http://www.w3.org/1999/xhtml\"><div class=\"hapiHeaderText\">NoDCstatus <b>DENEXFAIL </b></div><table class=\"hapiPropertyTable\"><tbody><tr><td>Identifier</td><td>a1386c36da1b287caf9fd1b8d75c10d3</td></tr><tr><td>Date of birth</td><td><span>31 July 1969</span></td></tr></tbody></table></div>"
      },
      "extension": [ {
        "url": "http://hl7.org/fhir/us/core/StructureDefinition/us-core-race",
        "extension": [ {
          "url": "ombCategory",
          "valueCoding": {
            "system": "urn:oid:2.16.840.1.113883.6.238",
            "code": "1002-5",
            "display": "American Indian or Alaska Native",
            "userSelected": true
          }
        }, {
          "url": "text",
          "valueString": "American Indian or Alaska Native"
        } ]
      }, {
        "url": "http://hl7.org/fhir/us/core/StructureDefinition/us-core-ethnicity",
        "extension": [ {
          "url": "ombCategory",
          "valueCoding": {
            "system": "urn:oid:2.16.840.1.113883.6.238",
            "code": "2135-2",
            "display": "Hispanic or Latino",
            "userSelected": true
          }
        }, {
          "url": "text",
          "valueString": "Hispanic or Latino"
        } ]
      } ],
      "identifier": [ {
        "type": {
          "coding": [ {
            "system": "http://terminology.hl7.org/CodeSystem/v2-0203",
            "code": "MR"
          } ]
        },
        "system": "https://bonnie-fhir.healthit.gov/",
        "value": "633c9d020968f8012250fc67"
      } ],
      "active": true,
      "name": [ {
        "use": "usual",
        "family": "DENEXFail",
        "given": [ "NoDCstatus" ]
      } ],
      "gender": "male",
      "birthDate": "1970-07-31"
    },
    "request": {
      "method": "PUT",
      "url": "Patient/cec2b099-7f6d-4260-a2f8-bc0ed0b9c3e5"
    }
  }, {
    "fullUrl": "https://madie.cms.gov/Encounter/1de2569a-42c8-4a85-a9ee-96868f6fa457",
    "resource": {
      "resourceType": "Encounter",
      "id": "1de2569a-42c8-4a85-a9ee-96868f6fa457",
      "meta": {
        "profile": [ "http://hl7.org/fhir/us/qicore/StructureDefinition/qicore-encounter" ]
      },
      "status": "finished",
      "class": {
        "system": "http://terminology.hl7.org/CodeSystem/v3-ActCode",
        "code": "EMER",
        "display": "emergency"
      },
      "type": [ {
        "coding": [ {
          "system": "http://snomed.info/sct",
          "code": "4525004"
        } ]
      } ],
      "subject": {
        "reference": "Patient/cec2b099-7f6d-4260-a2f8-bc0ed0b9c3e5"
      },
      "period": {
        "start": "2026-11-20T07:00:00.000+00:00",
        "end": "2026-11-20T07:45:00.000+00:00"
      },
      "length": {
        "value": 0,
        "unit": "days"
      }
    },
    "request": {
      "method": "PUT",
      "url": "Encounter/1de2569a-42c8-4a85-a9ee-96868f6fa457"
    }
  }, {
    "fullUrl": "https://madie.cms.gov/Encounter/05f6bc71-d1da-41aa-a12b-e56fbedc6785",
    "resource": {
      "resourceType": "Encounter",
      "id": "05f6bc71-d1da-41aa-a12b-e56fbedc6785",
      "meta": {
        "profile": [ "http://hl7.org/fhir/us/qicore/StructureDefinition/qicore-encounter" ]
      },
      "status": "finished",
      "class": {
        "system": "http://terminology.hl7.org/CodeSystem/v3-ActCode",
        "code": "IMP",
        "display": "inpatient encounter"
      },
      "type": [ {
        "coding": [ {
          "system": "http://snomed.info/sct",
          "code": "32485007"
        } ]
      } ],
      "subject": {
        "reference": "Patient/cec2b099-7f6d-4260-a2f8-bc0ed0b9c3e5"
      },
      "period": {
        "start": "2026-11-20T08:00:00.000+00:00",
        "end": "2026-11-24T08:15:00.000+00:00"
      },
      "length": {
        "value": 4,
        "unit": "days"
      }
    },
    "request": {
      "method": "PUT",
      "url": "Encounter/05f6bc71-d1da-41aa-a12b-e56fbedc6785"
    }
  }, {
    "fullUrl": "https://madie.cms.gov/claim/5ca62962b8484628b8de1ec5",
    "resource": {
      "resourceType": "Claim",
      "id": "5ca62962b8484628b8de1ec5",
      "meta": {
        "profile": [ "http://hl7.org/fhir/us/qicore/StructureDefinition/qicore-claim" ]
      },
      "status": "active",
      "type": {
        "coding": [ {
          "system": "http://terminology.hl7.org/CodeSystem/claim-type",
          "code": "institutional"
        } ]
      },
      "use": "claim",
      "patient": {
        "reference": "Patient/d170a0a8-b5ad-4303-b6df-e304dd5f92ad"
      },
      "created": "2026-12-01",
      "provider": {
        "reference": "Practitioner/63a41a17-17b8-4f67-bc74-1380aec34570"
      },
      "priority": {
        "coding": [ {
          "system": "http://terminology.hl7.org/CodeSystem/processpriority",
          "code": "normal"
        } ]
      },
      "diagnosis": [ {
        "sequence": 1,
        "diagnosisCodeableConcept": {
          "coding": [ {
            "system": "http://hl7.org/fhir/sid/icd-10-cm",
            "code": "I63.00"
          } ]
        },
        "type": [ {
          "coding": [ {
            "system": "http://terminology.hl7.org/CodeSystem/ex-diagnosistype",
            "code": "principal"
          } ]
        } ]
      } ],
      "insurance": [ {
        "sequence": 1,
        "focal": true,
        "coverage": {
          "reference": "Coverage/5fa041661c76ba66d9959367"
        }
      } ],
      "item": [ {
        "sequence": 1,
        "diagnosisSequence": [ 1 ],
        "productOrService": {
          "coding": [ {
            "system": "http://terminology.hl7.org/CodeSystem/ex-USCLS",
            "code": "99555"
          } ]
        },
        "encounter": [ {
          "reference": "Encounter/05f6bc71-d1da-41aa-a12b-e56fbedc6785"
        } ]
      } ]
    },
    "request": {
      "method": "PUT",
      "url": "Claim/5ca62962b8484628b8de1ec5"
    }
  }, {
    "fullUrl": "https://madie.cms.gov/Coverage/6eae2b80-74df-4e04-ace8-3d6f422ca5ee",
    "resource": {
      "resourceType": "Coverage",
      "id": "6eae2b80-74df-4e04-ace8-3d6f422ca5ee",
      "meta": {
        "profile": [ "http://hl7.org/fhir/us/qicore/StructureDefinition/qicore-coverage" ]
      },
      "status": "active",
      "subscriberId": "523435",
      "beneficiary": {
        "reference": "Patient/162a5913-9989-42f2-8d6a-ae460e245e4c"
      },
      "relationship": {
        "coding": [ {
          "system": "http://terminology.hl7.org/CodeSystem/subscriber-relationship",
          "code": "self"
        } ]
      },
      "payor": [ {
        "reference": "Organization/bcc17905-684f-4354-a6f0-e353d3bd5529"
      } ]
    },
    "request": {
      "method": "PUT",
      "url": "Coverage/6eae2b80-74df-4e04-ace8-3d6f422ca5ee"
    }
  }, {
    "fullUrl": "https://madie.cms.gov/Procedure/559bba36-cafb-4c04-9686-935f00976a35",
    "resource": {
      "resourceType": "Procedure",
      "id": "559bba36-cafb-4c04-9686-935f00976a35",
      "meta": {
        "profile": [ "http://hl7.org/fhir/us/qicore/StructureDefinition/qicore-procedure" ]
      },
      "extension": [ {
        "url": "http://hl7.org/fhir/us/qicore/StructureDefinition/qicore-recorded",
        "valueDateTime": "2026-11-19T13:35:00.000+00:00"
      } ],
      "status": "completed",
      "code": {
        "coding": [ {
          "system": "http://www.cms.gov/Medicare/Coding/ICD10",
          "code": "02560ZZ"
        }, {
          "system": "http://snomed.info/sct",
          "code": "175095005"
        } ]
      },
      "subject": {
        "reference": "Patient/cec2b099-7f6d-4260-a2f8-bc0ed0b9c3e5"
      },
      "performedPeriod": {
        "start": "2026-11-19T08:00:00.000+00:00",
        "end": "2026-11-20T08:15:00.000+00:00"
      }
    },
    "request": {
      "method": "PUT",
      "url": "Procedure/559bba36-cafb-4c04-9686-935f00976a35"
    }
  }, {
    "fullUrl": "https://madie.cms.gov/Condition/7958ab2a-0366-4d2b-9c34-a895b4dbf64d",
    "resource": {
      "resourceType": "Condition",
      "id": "7958ab2a-0366-4d2b-9c34-a895b4dbf64d",
      "meta": {
        "profile": [ "http://hl7.org/fhir/us/qicore/StructureDefinition/qicore-condition-problems-health-concerns" ]
      },
      "clinicalStatus": {
        "coding": [ {
          "system": "http://terminology.hl7.org/CodeSystem/condition-clinical",
          "code": "active"
        } ]
      },
      "verificationStatus": {
        "coding": [ {
          "system": "http://terminology.hl7.org/CodeSystem/condition-ver-status",
          "code": "confirmed"
        } ]
      },
      "category": [ {
        "coding": [ {
          "system": "http://terminology.hl7.org/CodeSystem/condition-category",
          "code": "encounter-diagnosis",
          "display": "Encounter Diagnosis"
        } ]
      } ],
      "code": {
        "coding": [ {
          "system": "http://snomed.info/sct",
          "version": "2021-09",
          "code": "111297002",
          "display": "Nonparalytic stroke (disorder)",
          "userSelected": true
        } ]
      },
      "subject": {
        "reference": "Patient/cec2b099-7f6d-4260-a2f8-bc0ed0b9c3e5"
      },
      "recordedDate": "2026-10-13T08:00:00.000+00:00"
    },
    "request": {
      "method": "PUT",
      "url": "Condition/7958ab2a-0366-4d2b-9c34-a895b4dbf64d"
    }
  }, {
    "fullUrl": "https://madie.cms.gov/Organization/bcc17905-684f-4354-a6f0-e353d3bd5529",
    "resource": {
      "resourceType": "Organization",
      "id": "bcc17905-684f-4354-a6f0-e353d3bd5529",
      "meta": {
        "profile": [ "http://hl7.org/fhir/us/qicore/StructureDefinition/qicore-organization" ]
      },
      "identifier": [ {
        "use": "temp",
        "system": "urn:oid:2.16.840.1.113883.4.4",
        "value": "21-3259825"
      } ],
      "active": true,
      "type": [ {
        "coding": [ {
          "system": "http://terminology.hl7.org/CodeSystem/organization-type",
          "code": "pay",
          "display": "Payer"
        } ]
      } ],
      "name": "Blue Cross Blue Shield of Texas",
      "telecom": [ {
        "system": "phone",
        "value": "(+1) 972-766-6900"
      } ],
      "address": [ {
        "use": "billing",
        "type": "postal",
        "line": [ "P.O. Box 660044" ],
        "city": "Dallas",
        "state": "TX",
        "postalCode": "75266-0044",
        "country": "USA"
      } ]
    },
    "request": {
      "method": "PUT",
      "url": "Organization/bcc17905-684f-4354-a6f0-e353d3bd5529"
    }
  }, {
    "fullUrl": "https://madie.cms.gov/Practitioner/63a41a17-17b8-4f67-bc74-1380aec34570",
    "resource": {
      "resourceType": "Practitioner",
      "id": "63a41a17-17b8-4f67-bc74-1380aec34570",
      "meta": {
        "profile": [ "http://hl7.org/fhir/us/qicore/StructureDefinition/qicore-practitioner" ]
      },
      "identifier": [ {
        "system": "http://hl7.org/fhir/sid/us-npi",
        "value": "9999999896"
      } ],
      "name": [ {
        "family": "Evil",
        "prefix": [ "Dr" ]
      } ]
    },
    "request": {
      "method": "PUT",
      "url": "Practitioner/63a41a17-17b8-4f67-bc74-1380aec34570"
    }
  }, {
    "fullUrl": "https://madie.cms.gov/MeasureReport/e7c6d6ea-7841-4ceb-a201-b74d18d529d5",
    "resource": {
      "resourceType": "MeasureReport",
      "id": "e7c6d6ea-7841-4ceb-a201-b74d18d529d5",
      "meta": {
        "profile": [ "http://hl7.org/fhir/us/cqfmeasures/StructureDefinition/test-case-cqfm" ]
      },
      "contained": [ {
        "resourceType": "Parameters",
        "id": "daa28075-c44e-4659-8469-a731cde48768-parameters",
        "parameter": [ {
          "name": "subject",
          "valueString": "cec2b099-7f6d-4260-a2f8-bc0ed0b9c3e5"
        } ]
      } ],
      "extension": [ {
        "url": "http://hl7.org/fhir/StructureDefinition/cqf-inputParameters",
        "valueReference": {
          "reference": "#daa28075-c44e-4659-8469-a731cde48768-parameters"
        }
      }, {
        "url": "http://hl7.org/fhir/us/cqfmeasures/StructureDefinition/cqfm-testCaseDescription",
        "valueMarkdown": "No discharge status indicated. Testing DENEX logic (intentional fail). \n"
      } ],
      "modifierExtension": [ {
        "url": "http://hl7.org/fhir/us/cqfmeasures/StructureDefinition/cqfm-isTestCase",
        "valueBoolean": true
      } ],
      "status": "complete",
      "type": "individual",
      "measure": "https://madie.cms.gov/Measure/CMS71FHIRSTKAnticoagAFFlutter",
      "period": {
        "start": "2026-01-01",
        "end": "2026-12-31"
      },
      "group": [ {
        "id": "Group_1",
        "population": [ {
          "id": "InitialPopulation_1",
          "code": {
            "coding": [ {
              "system": "http://terminology.hl7.org/CodeSystem/measure-population",
              "code": "initial-population",
              "display": "Initial Population"
            } ]
          },
          "count": 1
        }, {
          "id": "Denominator_1",
          "code": {
            "coding": [ {
              "system": "http://terminology.hl7.org/CodeSystem/measure-population",
              "code": "denominator",
              "display": "Denominator"
            } ]
          },
          "count": 1
        }, {
          "id": "DenominatorExclusion_1",
          "code": {
            "coding": [ {
              "system": "http://terminology.hl7.org/CodeSystem/measure-population",
              "code": "denominator-exclusion",
              "display": "Denominator Exclusion"
            } ]
          },
          "count": 0
        }, {
          "id": "Numerator_1",
          "code": {
            "coding": [ {
              "system": "http://terminology.hl7.org/CodeSystem/measure-population",
              "code": "numerator",
              "display": "Numerator"
            } ]
          },
          "count": 0
        }, {
          "id": "DenominatorException_1",
          "code": {
            "coding": [ {
              "system": "http://terminology.hl7.org/CodeSystem/measure-population",
              "code": "denominator-exception",
              "display": "Denominator Exception"
            } ]
          },
          "count": 0
        } ],
        "measureScore": {
          "value": 0.0
        }
      } ],
      "evaluatedResource": [ {
        "reference": "Patient/cec2b099-7f6d-4260-a2f8-bc0ed0b9c3e5"
      }, {
        "reference": "Encounter/1de2569a-42c8-4a85-a9ee-96868f6fa457"
      }, {
        "reference": "Encounter/05f6bc71-d1da-41aa-a12b-e56fbedc6785"
      }, {
        "reference": "Claim/5ca62962b8484628b8de1ec5"
      }, {
        "reference": "Coverage/6eae2b80-74df-4e04-ace8-3d6f422ca5ee"
      }, {
        "reference": "Procedure/559bba36-cafb-4c04-9686-935f00976a35"
      }, {
        "reference": "Condition/7958ab2a-0366-4d2b-9c34-a895b4dbf64d"
      }, {
        "reference": "Organization/bcc17905-684f-4354-a6f0-e353d3bd5529"
      }, {
        "reference": "Practitioner/63a41a17-17b8-4f67-bc74-1380aec34570"
      } ]
    },
    "request": {
      "method": "PUT",
      "url": "MeasureReport/e7c6d6ea-7841-4ceb-a201-b74d18d529d5"
    }
  } ]
}