{
  "resourceType": "Bundle",
  "id": "63487c2f0968f80122540191",
  "type": "transaction",
  "entry": [ {
    "fullUrl": "https://madie.cms.gov/Patient/ecf5375c-912c-483c-9c38-72d85df27f12",
    "resource": {
      "resourceType": "Patient",
      "id": "ecf5375c-912c-483c-9c38-72d85df27f12",
      "meta": {
        "profile": [ "http://hl7.org/fhir/us/qicore/StructureDefinition/qicore-patient" ]
      },
      "text": {
        "status": "generated",
        "div": "<div xmlns=\"http://www.w3.org/1999/xhtml\"><div class=\"hapiHeaderText\">AssessG1RelDateTime1MinB4Deliv<b>DENPASS</b></div><table class=\"hapiPropertyTable\"><tbody><tr><td>Identifier</td><td>922db984f9db53e157b9b9a69ed9222997d6b9bae6d41f21e52e3ca568fdb9dd</td></tr><tr><td>Date of birth</td><td><span>14 February 1985</span></td></tr></tbody></table></div>"
      },
      "extension": [ {
        "url": "http://hl7.org/fhir/us/core/StructureDefinition/us-core-race",
        "extension": [ {
          "url": "ombCategory",
          "valueCoding": {
            "system": "urn:oid:2.16.840.1.113883.6.238",
            "code": "1002-5",
            "display": "American Indian or Alaska Native",
            "userSelected": true
          }
        }, {
          "url": "text",
          "valueString": "American Indian or Alaska Native"
        } ]
      }, {
        "url": "http://hl7.org/fhir/us/core/StructureDefinition/us-core-ethnicity",
        "extension": [ {
          "url": "ombCategory",
          "valueCoding": {
            "system": "urn:oid:2.16.840.1.113883.6.238",
            "code": "2135-2",
            "display": "Hispanic or Latino",
            "userSelected": true
          }
        }, {
          "url": "text",
          "valueString": "Hispanic or Latino"
        } ]
      } ],
      "identifier": [ {
        "type": {
          "coding": [ {
            "system": "http://terminology.hl7.org/CodeSystem/v2-0203",
            "code": "MR"
          } ]
        },
        "system": "https://bonnie-fhir.healthit.gov/",
        "value": "63487c2f0968f80122540191"
      } ],
      "active": true,
      "name": [ {
        "use": "usual",
        "family": "DENPass",
        "given": [ "AssessG1RelDateTime1MinB4Deliv" ]
      } ],
      "gender": "female",
      "birthDate": "1998-02-14"
    },
    "request": {
      "method": "PUT",
      "url": "Patient/ecf5375c-912c-483c-9c38-72d85df27f12"
    }
  }, {
    "fullUrl": "https://madie.cms.gov/Observation/712c14a3-1599-49c5-8090-802fdd585f7e",
    "resource": {
      "resourceType": "Observation",
      "id": "712c14a3-1599-49c5-8090-802fdd585f7e",
      "meta": {
        "profile": [ "http://hl7.org/fhir/us/qicore/StructureDefinition/qicore-simple-observation" ]
      },
      "status": "final",
      "category": [ {
        "coding": [ {
          "system": "http://terminology.hl7.org/CodeSystem/observation-category",
          "code": "exam",
          "display": "exam",
          "userSelected": true
        } ]
      } ],
      "code": {
        "coding": [ {
          "system": "http://loinc.org",
          "code": "11884-4"
        } ]
      },
      "subject": {
        "reference": "Patient/ecf5375c-912c-483c-9c38-72d85df27f12"
      },
      "effectiveDateTime": "2026-06-08T09:15:00.000+00:00",
      "performer": [ {
        "reference": "Organization/example1",
        "display": "Hendricks Country Hospital"
      } ],
      "valueQuantity": {
        "value": 38,
        "system": "http://unitsofmeasure.org",
        "code": "wk"
      }
    },
    "request": {
      "method": "PUT",
      "url": "Observation/712c14a3-1599-49c5-8090-802fdd585f7e"
    }
  }, {
    "fullUrl": "https://madie.cms.gov/Observation/42b32bde-92e4-4d5e-8619-39035fd2587f",
    "resource": {
      "resourceType": "Observation",
      "id": "42b32bde-92e4-4d5e-8619-39035fd2587f",
      "meta": {
        "profile": [ "http://hl7.org/fhir/us/qicore/StructureDefinition/qicore-simple-observation" ]
      },
      "status": "final",
      "category": [ {
        "coding": [ {
          "system": "http://terminology.hl7.org/CodeSystem/observation-category",
          "code": "exam",
          "display": "exam",
          "userSelected": true
        } ]
      } ],
      "code": {
        "coding": [ {
          "system": "http://loinc.org",
          "code": "11996-6"
        } ]
      },
      "subject": {
        "reference": "Patient/ecf5375c-912c-483c-9c38-72d85df27f12"
      },
      "effectiveDateTime": "2026-06-08T18:59:00.000+00:00",
      "performer": [ {
        "reference": "Organization/example1",
        "display": "Hendricks Country Hospital"
      } ],
      "valueInteger": 1
    },
    "request": {
      "method": "PUT",
      "url": "Observation/42b32bde-92e4-4d5e-8619-39035fd2587f"
    }
  }, {
    "fullUrl": "https://madie.cms.gov/Observation/ee84fed5-6d7c-42ca-8644-7fb264f2fa10",
    "resource": {
      "resourceType": "Observation",
      "id": "ee84fed5-6d7c-42ca-8644-7fb264f2fa10",
      "meta": {
        "profile": [ "http://hl7.org/fhir/us/qicore/StructureDefinition/qicore-simple-observation" ]
      },
      "status": "final",
      "category": [ {
        "coding": [ {
          "system": "http://terminology.hl7.org/CodeSystem/observation-category",
          "code": "exam",
          "display": "exam",
          "userSelected": true
        } ]
      } ],
      "code": {
        "coding": [ {
          "system": "http://loinc.org",
          "code": "93857-1"
        } ]
      },
      "subject": {
        "reference": "Patient/ecf5375c-912c-483c-9c38-72d85df27f12"
      },
      "effectiveDateTime": "2026-06-08T19:00:00.000+00:00",
      "performer": [ {
        "reference": "Organization/example1",
        "display": "Hendricks Country Hospital"
      } ],
      "valueDateTime": "2026-06-08T19:00:00.000+00:00"
    },
    "request": {
      "method": "PUT",
      "url": "Observation/ee84fed5-6d7c-42ca-8644-7fb264f2fa10"
    }
  }, {
    "fullUrl": "https://madie.cms.gov/Encounter/73080ac8-4b10-4e94-9b8a-95b227c7cc7b",
    "resource": {
      "resourceType": "Encounter",
      "id": "73080ac8-4b10-4e94-9b8a-95b227c7cc7b",
      "meta": {
        "profile": [ "http://hl7.org/fhir/us/qicore/StructureDefinition/qicore-encounter" ]
      },
      "status": "finished",
      "class": {
        "system": "http://terminology.hl7.org/CodeSystem/v3-ActCode",
        "code": "IMP",
        "display": "inpatient encounter"
      },
      "type": [ {
        "coding": [ {
          "system": "http://snomed.info/sct",
          "code": "183452005"
        } ]
      } ],
      "subject": {
        "reference": "Patient/ecf5375c-912c-483c-9c38-72d85df27f12"
      },
      "period": {
        "start": "2026-06-08T08:00:00.000+00:00",
        "end": "2026-06-10T08:15:00.000+00:00"
      },
      "length": {
        "value": 2,
        "unit": "days"
      },
      "reasonCode": [ {
        "coding": [ {
          "system": "http://snomed.info/sct",
          "code": "169826009",
          "display": "Single live birth from singleton pregnancy (finding)"
        } ]
      } ]
    },
    "request": {
      "method": "PUT",
      "url": "Encounter/73080ac8-4b10-4e94-9b8a-95b227c7cc7b"
    }
  }, {
    "fullUrl": "https://madie.cms.gov/Procedure/28ffbc6f-30ce-46c6-9ac9-6036d3483444",
    "resource": {
      "resourceType": "Procedure",
      "id": "28ffbc6f-30ce-46c6-9ac9-6036d3483444",
      "meta": {
        "profile": [ "http://hl7.org/fhir/us/qicore/StructureDefinition/qicore-procedure" ]
      },
      "extension": [ {
        "url": "http://hl7.org/fhir/us/qicore/StructureDefinition/qicore-recorded",
        "valueDateTime": "2014-04-05T13:35:00.000+00:00"
      } ],
      "status": "completed",
      "code": {
        "coding": [ {
          "system": "http://www.cms.gov/Medicare/Coding/ICD10",
          "code": "10D07Z3"
        } ]
      },
      "subject": {
        "reference": "Patient/ecf5375c-912c-483c-9c38-72d85df27f12"
      },
      "performedPeriod": {
        "start": "2026-06-08T08:10:00.000+00:00",
        "end": "2026-06-08T09:14:00.000+00:00"
      }
    },
    "request": {
      "method": "PUT",
      "url": "Procedure/28ffbc6f-30ce-46c6-9ac9-6036d3483444"
    }
  }, {
    "fullUrl": "https://madie.cms.gov/Coverage/fee3d622-5b7b-4f2f-a6a1-3281e7af274e",
    "resource": {
      "resourceType": "Coverage",
      "id": "fee3d622-5b7b-4f2f-a6a1-3281e7af274e",
      "meta": {
        "profile": [ "http://hl7.org/fhir/us/qicore/StructureDefinition/qicore-coverage" ]
      },
      "status": "active",
      "subscriberId": "523435",
      "beneficiary": {
        "reference": "Patient/ecf5375c-912c-483c-9c38-72d85df27f12"
      },
      "relationship": {
        "coding": [ {
          "system": "http://terminology.hl7.org/CodeSystem/subscriber-relationship",
          "code": "self"
        } ]
      },
      "payor": [ {
        "reference": "Organization/16480079-d794-4b45-bb09-2003fce61c79"
      } ]
    },
    "request": {
      "method": "PUT",
      "url": "Coverage/fee3d622-5b7b-4f2f-a6a1-3281e7af274e"
    }
  }, {
    "fullUrl": "https://madie.cms.gov/Organization/16480079-d794-4b45-bb09-2003fce61c79",
    "resource": {
      "resourceType": "Organization",
      "id": "16480079-d794-4b45-bb09-2003fce61c79",
      "meta": {
        "profile": [ "http://hl7.org/fhir/us/qicore/StructureDefinition/qicore-organization" ]
      },
      "identifier": [ {
        "use": "temp",
        "system": "urn:oid:2.16.840.1.113883.4.4",
        "value": "21-3259825"
      } ],
      "active": true,
      "type": [ {
        "coding": [ {
          "system": "http://terminology.hl7.org/CodeSystem/organization-type",
          "code": "pay",
          "display": "Payer"
        } ]
      } ],
      "name": "Blue Cross Blue Shield of Texas",
      "telecom": [ {
        "system": "phone",
        "value": "(+1) 972-766-6900"
      } ],
      "address": [ {
        "use": "billing",
        "type": "postal",
        "line": [ "P.O. Box 660044" ],
        "city": "Dallas",
        "state": "TX",
        "postalCode": "75266-0044",
        "country": "USA"
      } ]
    },
    "request": {
      "method": "PUT",
      "url": "Organization/16480079-d794-4b45-bb09-2003fce61c79"
    }
  }, {
    "fullUrl": "https://madie.cms.gov/Practitioner/ed833286-213d-4d57-9f3d-397889ed2526",
    "resource": {
      "resourceType": "Practitioner",
      "id": "ed833286-213d-4d57-9f3d-397889ed2526",
      "meta": {
        "profile": [ "http://hl7.org/fhir/us/qicore/StructureDefinition/qicore-practitioner" ]
      },
      "identifier": [ {
        "system": "http://hl7.org/fhir/sid/us-npi",
        "value": "1234567890"
      } ],
      "name": [ {
        "family": "Evil",
        "prefix": [ "Dr" ]
      } ]
    },
    "request": {
      "method": "PUT",
      "url": "Practitioner/ed833286-213d-4d57-9f3d-397889ed2526"
    }
  }, {
    "fullUrl": "https://madie.cms.gov/MeasureReport/b89685f1-7a48-4030-adc4-79269e63d912",
    "resource": {
      "resourceType": "MeasureReport",
      "id": "b89685f1-7a48-4030-adc4-79269e63d912",
      "meta": {
        "profile": [ "http://hl7.org/fhir/us/cqfmeasures/StructureDefinition/test-case-cqfm" ]
      },
      "contained": [ {
        "resourceType": "Parameters",
        "id": "3ec45817-cff3-4fd1-b628-744716bd593d-parameters",
        "parameter": [ {
          "name": "subject",
          "valueString": "ecf5375c-912c-483c-9c38-72d85df27f12"
        } ]
      } ],
      "extension": [ {
        "url": "http://hl7.org/fhir/StructureDefinition/cqf-inputParameters",
        "valueReference": {
          "reference": "#3ec45817-cff3-4fd1-b628-744716bd593d-parameters"
        }
      }, {
        "url": "http://hl7.org/fhir/us/cqfmeasures/StructureDefinition/cqfm-testCaseDescription",
        "valueMarkdown": "Tests that Assess Gravida Rel Date is 1 Minute before the Time of Delivery Rel Date.  \n"
      } ],
      "modifierExtension": [ {
        "url": "http://hl7.org/fhir/us/cqfmeasures/StructureDefinition/cqfm-isTestCase",
        "valueBoolean": true
      } ],
      "status": "complete",
      "type": "individual",
      "measure": "https://madie.cms.gov/Measure/CMS0334FHIRPCCesareanBirth",
      "period": {
        "start": "2026-01-01",
        "end": "2026-12-31"
      },
      "group": [ {
        "id": "Group_1",
        "population": [ {
          "id": "InitialPopulation_1",
          "code": {
            "coding": [ {
              "system": "http://terminology.hl7.org/CodeSystem/measure-population",
              "code": "initial-population",
              "display": "Initial Population"
            } ]
          },
          "count": 1
        }, {
          "id": "Denominator_1",
          "code": {
            "coding": [ {
              "system": "http://terminology.hl7.org/CodeSystem/measure-population",
              "code": "denominator",
              "display": "Denominator"
            } ]
          },
          "count": 1
        }, {
          "id": "DenominatorExclusion_1",
          "code": {
            "coding": [ {
              "system": "http://terminology.hl7.org/CodeSystem/measure-population",
              "code": "denominator-exclusion",
              "display": "Denominator Exclusion"
            } ]
          },
          "count": 0
        }, {
          "id": "Numerator_1",
          "code": {
            "coding": [ {
              "system": "http://terminology.hl7.org/CodeSystem/measure-population",
              "code": "numerator",
              "display": "Numerator"
            } ]
          },
          "count": 0
        } ],
        "measureScore": {
          "value": 0.0
        }
      } ],
      "evaluatedResource": [ {
        "reference": "Patient/ecf5375c-912c-483c-9c38-72d85df27f12"
      }, {
        "reference": "Observation/712c14a3-1599-49c5-8090-802fdd585f7e"
      }, {
        "reference": "Observation/42b32bde-92e4-4d5e-8619-39035fd2587f"
      }, {
        "reference": "Observation/ee84fed5-6d7c-42ca-8644-7fb264f2fa10"
      }, {
        "reference": "Encounter/73080ac8-4b10-4e94-9b8a-95b227c7cc7b"
      }, {
        "reference": "Procedure/28ffbc6f-30ce-46c6-9ac9-6036d3483444"
      }, {
        "reference": "Coverage/fee3d622-5b7b-4f2f-a6a1-3281e7af274e"
      }, {
        "reference": "Organization/16480079-d794-4b45-bb09-2003fce61c79"
      }, {
        "reference": "Practitioner/ed833286-213d-4d57-9f3d-397889ed2526"
      } ]
    },
    "request": {
      "method": "PUT",
      "url": "MeasureReport/b89685f1-7a48-4030-adc4-79269e63d912"
    }
  } ]
}