{
  "resourceType": "Bundle",
  "id": "63487c2f0968f8012254018f",
  "type": "transaction",
  "entry": [ {
    "fullUrl": "https://madie.cms.gov/Patient/84cf7374-22c5-4f60-a594-f70020252dae",
    "resource": {
      "resourceType": "Patient",
      "id": "84cf7374-22c5-4f60-a594-f70020252dae",
      "meta": {
        "profile": [ "http://hl7.org/fhir/us/qicore/StructureDefinition/qicore-patient" ]
      },
      "text": {
        "status": "generated",
        "div": "<div xmlns=\"http://www.w3.org/1999/xhtml\"><div class=\"hapiHeaderText\">AssessPreTerm0RelDate42wksB4DelivDate <b>DENPASS </b></div><table class=\"hapiPropertyTable\"><tbody><tr><td>Identifier</td><td>ae2c858214ff9b1ffdc193923955b0f25c757408279ae2f0e7ea89ca980dbad8</td></tr><tr><td>Date of birth</td><td><span>14 February 1985</span></td></tr></tbody></table></div>"
      },
      "extension": [ {
        "url": "http://hl7.org/fhir/us/core/StructureDefinition/us-core-race",
        "extension": [ {
          "url": "ombCategory",
          "valueCoding": {
            "system": "urn:oid:2.16.840.1.113883.6.238",
            "code": "1002-5",
            "display": "American Indian or Alaska Native",
            "userSelected": true
          }
        }, {
          "url": "text",
          "valueString": "American Indian or Alaska Native"
        } ]
      }, {
        "url": "http://hl7.org/fhir/us/core/StructureDefinition/us-core-ethnicity",
        "extension": [ {
          "url": "ombCategory",
          "valueCoding": {
            "system": "urn:oid:2.16.840.1.113883.6.238",
            "code": "2135-2",
            "display": "Hispanic or Latino",
            "userSelected": true
          }
        }, {
          "url": "text",
          "valueString": "Hispanic or Latino"
        } ]
      } ],
      "identifier": [ {
        "type": {
          "coding": [ {
            "system": "http://terminology.hl7.org/CodeSystem/v2-0203",
            "code": "MR"
          } ]
        },
        "system": "https://bonnie-fhir.healthit.gov/",
        "value": "63487c2f0968f8012254018f"
      } ],
      "active": true,
      "name": [ {
        "use": "usual",
        "family": "DENPass",
        "given": [ "AssessPreTerm0RelDate42wksB4DelivDate" ]
      } ],
      "gender": "female",
      "birthDate": "1998-02-14"
    },
    "request": {
      "method": "PUT",
      "url": "Patient/84cf7374-22c5-4f60-a594-f70020252dae"
    }
  }, {
    "fullUrl": "https://madie.cms.gov/Observation/6b68cff8-6960-4107-9360-b9f148ce737a",
    "resource": {
      "resourceType": "Observation",
      "id": "6b68cff8-6960-4107-9360-b9f148ce737a",
      "meta": {
        "profile": [ "http://hl7.org/fhir/us/qicore/StructureDefinition/qicore-simple-observation" ]
      },
      "status": "final",
      "category": [ {
        "coding": [ {
          "system": "http://terminology.hl7.org/CodeSystem/observation-category",
          "code": "exam",
          "display": "exam",
          "userSelected": true
        } ]
      } ],
      "code": {
        "coding": [ {
          "system": "http://loinc.org",
          "code": "11637-6"
        } ]
      },
      "subject": {
        "reference": "Patient/84cf7374-22c5-4f60-a594-f70020252dae"
      },
      "effectiveDateTime": "2025-08-19T20:00:00.000+00:00",
      "valueInteger": 0
    },
    "request": {
      "method": "PUT",
      "url": "Observation/6b68cff8-6960-4107-9360-b9f148ce737a"
    }
  }, {
    "fullUrl": "https://madie.cms.gov/Observation/4df75899-00c8-4343-b2aa-6702fe9165c1",
    "resource": {
      "resourceType": "Observation",
      "id": "4df75899-00c8-4343-b2aa-6702fe9165c1",
      "meta": {
        "profile": [ "http://hl7.org/fhir/us/qicore/StructureDefinition/qicore-simple-observation" ]
      },
      "status": "final",
      "category": [ {
        "coding": [ {
          "system": "http://terminology.hl7.org/CodeSystem/observation-category",
          "code": "exam",
          "display": "exam",
          "userSelected": true
        } ]
      } ],
      "code": {
        "coding": [ {
          "system": "http://loinc.org",
          "code": "11639-2"
        } ]
      },
      "subject": {
        "reference": "Patient/84cf7374-22c5-4f60-a594-f70020252dae"
      },
      "effectiveDateTime": "2025-09-19T09:00:00.000+00:00",
      "valueInteger": 0
    },
    "request": {
      "method": "PUT",
      "url": "Observation/4df75899-00c8-4343-b2aa-6702fe9165c1"
    }
  }, {
    "fullUrl": "https://madie.cms.gov/Observation/1b023757-888c-4faa-8db8-596d3dbddb2d",
    "resource": {
      "resourceType": "Observation",
      "id": "1b023757-888c-4faa-8db8-596d3dbddb2d",
      "meta": {
        "profile": [ "http://hl7.org/fhir/us/qicore/StructureDefinition/qicore-simple-observation" ]
      },
      "status": "final",
      "category": [ {
        "coding": [ {
          "system": "http://terminology.hl7.org/CodeSystem/observation-category",
          "code": "exam",
          "display": "exam",
          "userSelected": true
        } ]
      } ],
      "code": {
        "coding": [ {
          "system": "http://loinc.org",
          "code": "11884-4"
        } ]
      },
      "subject": {
        "reference": "Patient/84cf7374-22c5-4f60-a594-f70020252dae"
      },
      "effectiveDateTime": "2026-06-08T20:00:00.000+00:00",
      "valueQuantity": {
        "value": 37,
        "system": "http://unitsofmeasure.org",
        "code": "wk"
      }
    },
    "request": {
      "method": "PUT",
      "url": "Observation/1b023757-888c-4faa-8db8-596d3dbddb2d"
    }
  }, {
    "fullUrl": "https://madie.cms.gov/Observation/d8351382-a267-4300-a61f-ee7c311c7b65",
    "resource": {
      "resourceType": "Observation",
      "id": "d8351382-a267-4300-a61f-ee7c311c7b65",
      "meta": {
        "profile": [ "http://hl7.org/fhir/us/qicore/StructureDefinition/qicore-simple-observation" ]
      },
      "status": "final",
      "category": [ {
        "coding": [ {
          "system": "http://terminology.hl7.org/CodeSystem/observation-category",
          "code": "exam",
          "display": "exam",
          "userSelected": true
        } ]
      } ],
      "code": {
        "coding": [ {
          "system": "http://loinc.org",
          "code": "93857-1"
        } ]
      },
      "subject": {
        "reference": "Patient/84cf7374-22c5-4f60-a594-f70020252dae"
      },
      "effectiveDateTime": "2026-06-08T20:00:00.000+00:00",
      "valueDateTime": "2026-06-08T20:00:00.000+00:00"
    },
    "request": {
      "method": "PUT",
      "url": "Observation/d8351382-a267-4300-a61f-ee7c311c7b65"
    }
  }, {
    "fullUrl": "https://madie.cms.gov/Encounter/15327f5a-e22d-4e45-8004-02caea19dc58",
    "resource": {
      "resourceType": "Encounter",
      "id": "15327f5a-e22d-4e45-8004-02caea19dc58",
      "meta": {
        "profile": [ "http://hl7.org/fhir/us/qicore/StructureDefinition/qicore-encounter" ]
      },
      "status": "finished",
      "class": {
        "system": "http://terminology.hl7.org/CodeSystem/v3-ActCode",
        "code": "IMP",
        "display": "inpatient encounter"
      },
      "type": [ {
        "coding": [ {
          "system": "http://snomed.info/sct",
          "code": "8715000"
        } ]
      } ],
      "subject": {
        "reference": "Patient/84cf7374-22c5-4f60-a594-f70020252dae"
      },
      "period": {
        "start": "2026-06-08T08:00:00.000+00:00",
        "end": "2026-06-10T08:15:00.000+00:00"
      },
      "length": {
        "value": 2,
        "unit": "days"
      },
      "reasonReference": [ {
        "reference": "Condition/c435bc2a-daf6-4319-9f1a-e24911e7876d"
      } ]
    },
    "request": {
      "method": "PUT",
      "url": "Encounter/15327f5a-e22d-4e45-8004-02caea19dc58"
    }
  }, {
    "fullUrl": "https://madie.cms.gov/Procedure/d9b4d4b9-ff52-4ed6-b49c-b467aaf21c5f",
    "resource": {
      "resourceType": "Procedure",
      "id": "d9b4d4b9-ff52-4ed6-b49c-b467aaf21c5f",
      "meta": {
        "profile": [ "http://hl7.org/fhir/us/qicore/StructureDefinition/qicore-procedure" ]
      },
      "extension": [ {
        "url": "http://hl7.org/fhir/us/qicore/StructureDefinition/qicore-recorded",
        "valueDateTime": "2014-04-05T13:35:00.000+00:00"
      } ],
      "status": "completed",
      "code": {
        "coding": [ {
          "system": "http://www.cms.gov/Medicare/Coding/ICD10",
          "code": "10D00Z0"
        }, {
          "system": "http://snomed.info/sct",
          "code": "4504004"
        } ]
      },
      "subject": {
        "reference": "Patient/84cf7374-22c5-4f60-a594-f70020252dae"
      },
      "performedPeriod": {
        "start": "2026-06-08T20:00:00.000+00:00",
        "end": "2026-06-08T20:15:00.000+00:00"
      }
    },
    "request": {
      "method": "PUT",
      "url": "Procedure/d9b4d4b9-ff52-4ed6-b49c-b467aaf21c5f"
    }
  }, {
    "fullUrl": "https://madie.cms.gov/Condition/c435bc2a-daf6-4319-9f1a-e24911e7876d",
    "resource": {
      "resourceType": "Condition",
      "id": "c435bc2a-daf6-4319-9f1a-e24911e7876d",
      "meta": {
        "profile": [ "http://hl7.org/fhir/us/qicore/StructureDefinition/qicore-condition-encounter-diagnosis" ]
      },
      "category": [ {
        "coding": [ {
          "system": "http://terminology.hl7.org/CodeSystem/condition-category",
          "code": "encounter-diagnosis",
          "display": "Encounter Diagnosis"
        } ]
      } ],
      "code": {
        "coding": [ {
          "system": "http://snomed.info/sct",
          "version": "2022-09",
          "code": "169826009",
          "display": "Single live birth from singleton pregnancy (finding)",
          "userSelected": true
        } ]
      },
      "subject": {
        "reference": "Patient/84cf7374-22c5-4f60-a594-f70020252dae"
      },
      "encounter": {
        "reference": "Encounter/15327f5a-e22d-4e45-8004-02caea19dc58"
      },
      "recordedDate": "2026-10-20T08:00:00.000+00:00"
    },
    "request": {
      "method": "PUT",
      "url": "Condition/c435bc2a-daf6-4319-9f1a-e24911e7876d"
    }
  }, {
    "fullUrl": "https://madie.cms.gov/Coverage/f2acfc6c-4fcc-436b-b8c5-6faac8ed18c2",
    "resource": {
      "resourceType": "Coverage",
      "id": "f2acfc6c-4fcc-436b-b8c5-6faac8ed18c2",
      "meta": {
        "profile": [ "http://hl7.org/fhir/us/qicore/StructureDefinition/qicore-coverage" ]
      },
      "status": "active",
      "subscriberId": "523435",
      "beneficiary": {
        "reference": "Patient/84cf7374-22c5-4f60-a594-f70020252dae"
      },
      "relationship": {
        "coding": [ {
          "system": "http://terminology.hl7.org/CodeSystem/subscriber-relationship",
          "code": "self"
        } ]
      },
      "payor": [ {
        "reference": "Organization/19469153-dd85-4242-95c9-faa65a6e822f"
      } ]
    },
    "request": {
      "method": "PUT",
      "url": "Coverage/f2acfc6c-4fcc-436b-b8c5-6faac8ed18c2"
    }
  }, {
    "fullUrl": "https://madie.cms.gov/Organization/19469153-dd85-4242-95c9-faa65a6e822f",
    "resource": {
      "resourceType": "Organization",
      "id": "19469153-dd85-4242-95c9-faa65a6e822f",
      "meta": {
        "profile": [ "http://hl7.org/fhir/us/qicore/StructureDefinition/qicore-organization" ]
      },
      "identifier": [ {
        "use": "temp",
        "system": "urn:oid:2.16.840.1.113883.4.4",
        "value": "21-3259825"
      } ],
      "active": true,
      "type": [ {
        "coding": [ {
          "system": "http://terminology.hl7.org/CodeSystem/organization-type",
          "code": "pay",
          "display": "Payer"
        } ]
      } ],
      "name": "Blue Cross Blue Shield of Texas",
      "telecom": [ {
        "system": "phone",
        "value": "(+1) 972-766-6900"
      } ],
      "address": [ {
        "use": "billing",
        "type": "postal",
        "line": [ "P.O. Box 660044" ],
        "city": "Dallas",
        "state": "TX",
        "postalCode": "75266-0044",
        "country": "USA"
      } ]
    },
    "request": {
      "method": "PUT",
      "url": "Organization/19469153-dd85-4242-95c9-faa65a6e822f"
    }
  }, {
    "fullUrl": "https://madie.cms.gov/Practitioner/6a07f191-684e-4a49-9940-5c5e7cfe950b",
    "resource": {
      "resourceType": "Practitioner",
      "id": "6a07f191-684e-4a49-9940-5c5e7cfe950b",
      "meta": {
        "profile": [ "http://hl7.org/fhir/us/qicore/StructureDefinition/qicore-practitioner" ]
      },
      "identifier": [ {
        "system": "http://hl7.org/fhir/sid/us-npi",
        "value": "1234567890"
      } ],
      "name": [ {
        "family": "Evil",
        "prefix": [ "Dr" ]
      } ]
    },
    "request": {
      "method": "PUT",
      "url": "Practitioner/6a07f191-684e-4a49-9940-5c5e7cfe950b"
    }
  }, {
    "fullUrl": "https://madie.cms.gov/MeasureReport/17cc2a2f-8ec8-40ab-8f06-956c1ba7d76e",
    "resource": {
      "resourceType": "MeasureReport",
      "id": "17cc2a2f-8ec8-40ab-8f06-956c1ba7d76e",
      "meta": {
        "profile": [ "http://hl7.org/fhir/us/cqfmeasures/StructureDefinition/test-case-cqfm" ]
      },
      "contained": [ {
        "resourceType": "Parameters",
        "id": "8d171a8d-2bb9-4a1b-82c6-942cecc23767-parameters",
        "parameter": [ {
          "name": "subject",
          "valueString": "84cf7374-22c5-4f60-a594-f70020252dae"
        } ]
      } ],
      "extension": [ {
        "url": "http://hl7.org/fhir/StructureDefinition/cqf-inputParameters",
        "valueReference": {
          "reference": "#8d171a8d-2bb9-4a1b-82c6-942cecc23767-parameters"
        }
      }, {
        "url": "http://hl7.org/fhir/us/cqfmeasures/StructureDefinition/cqfm-testCaseDescription",
        "valueMarkdown": "Preterm Births=0, relevant date  42weeks  and same time prior to delivery date/time\n"
      } ],
      "modifierExtension": [ {
        "url": "http://hl7.org/fhir/us/cqfmeasures/StructureDefinition/cqfm-isTestCase",
        "valueBoolean": true
      } ],
      "status": "complete",
      "type": "individual",
      "measure": "https://madie.cms.gov/Measure/CMS0334FHIRPCCesareanBirth",
      "period": {
        "start": "2026-01-01",
        "end": "2026-12-31"
      },
      "group": [ {
        "id": "Group_1",
        "population": [ {
          "id": "InitialPopulation_1",
          "code": {
            "coding": [ {
              "system": "http://terminology.hl7.org/CodeSystem/measure-population",
              "code": "initial-population",
              "display": "Initial Population"
            } ]
          },
          "count": 1
        }, {
          "id": "Denominator_1",
          "code": {
            "coding": [ {
              "system": "http://terminology.hl7.org/CodeSystem/measure-population",
              "code": "denominator",
              "display": "Denominator"
            } ]
          },
          "count": 1
        }, {
          "id": "DenominatorExclusion_1",
          "code": {
            "coding": [ {
              "system": "http://terminology.hl7.org/CodeSystem/measure-population",
              "code": "denominator-exclusion",
              "display": "Denominator Exclusion"
            } ]
          },
          "count": 0
        }, {
          "id": "Numerator_1",
          "code": {
            "coding": [ {
              "system": "http://terminology.hl7.org/CodeSystem/measure-population",
              "code": "numerator",
              "display": "Numerator"
            } ]
          },
          "count": 1
        } ],
        "measureScore": {
          "value": 0.0
        }
      } ],
      "evaluatedResource": [ {
        "reference": "Patient/84cf7374-22c5-4f60-a594-f70020252dae"
      }, {
        "reference": "Observation/6b68cff8-6960-4107-9360-b9f148ce737a"
      }, {
        "reference": "Observation/4df75899-00c8-4343-b2aa-6702fe9165c1"
      }, {
        "reference": "Observation/1b023757-888c-4faa-8db8-596d3dbddb2d"
      }, {
        "reference": "Observation/d8351382-a267-4300-a61f-ee7c311c7b65"
      }, {
        "reference": "Encounter/15327f5a-e22d-4e45-8004-02caea19dc58"
      }, {
        "reference": "Procedure/d9b4d4b9-ff52-4ed6-b49c-b467aaf21c5f"
      }, {
        "reference": "Condition/c435bc2a-daf6-4319-9f1a-e24911e7876d"
      }, {
        "reference": "Coverage/f2acfc6c-4fcc-436b-b8c5-6faac8ed18c2"
      }, {
        "reference": "Organization/19469153-dd85-4242-95c9-faa65a6e822f"
      }, {
        "reference": "Practitioner/6a07f191-684e-4a49-9940-5c5e7cfe950b"
      } ]
    },
    "request": {
      "method": "PUT",
      "url": "MeasureReport/17cc2a2f-8ec8-40ab-8f06-956c1ba7d76e"
    }
  } ]
}