{
  "resourceType": "Bundle",
  "id": "6129133702c62a011f2e66b1",
  "type": "transaction",
  "entry": [ {
    "fullUrl": "https://madie.cms.gov/Patient/7cb8c09d-03d7-4b15-acb1-c30913becab3",
    "resource": {
      "resourceType": "Patient",
      "id": "7cb8c09d-03d7-4b15-acb1-c30913becab3",
      "meta": {
        "profile": [ "http://hl7.org/fhir/us/qicore/StructureDefinition/qicore-patient" ]
      },
      "text": {
        "status": "generated",
        "div": "<div xmlns=\"http://www.w3.org/1999/xhtml\"><div class=\"hapiHeaderText\">age_eq18 <b>IPPASS </b></div><table class=\"hapiPropertyTable\"><tbody><tr><td>Identifier</td><td>863343be4401c0595cb63d1a10a15d35</td></tr><tr><td>Date of birth</td><td><span>31 May 1994</span></td></tr></tbody></table></div>"
      },
      "extension": [ {
        "url": "http://hl7.org/fhir/us/core/StructureDefinition/us-core-race",
        "extension": [ {
          "url": "ombCategory",
          "valueCoding": {
            "system": "urn:oid:2.16.840.1.113883.6.238",
            "code": "1002-5",
            "display": "American Indian or Alaska Native",
            "userSelected": true
          }
        }, {
          "url": "text",
          "valueString": "American Indian or Alaska Native"
        } ]
      }, {
        "url": "http://hl7.org/fhir/us/core/StructureDefinition/us-core-ethnicity",
        "extension": [ {
          "url": "ombCategory",
          "valueCoding": {
            "system": "urn:oid:2.16.840.1.113883.6.238",
            "code": "2135-2",
            "display": "Hispanic or Latino",
            "userSelected": true
          }
        }, {
          "url": "text",
          "valueString": "Hispanic or Latino"
        } ]
      } ],
      "identifier": [ {
        "type": {
          "coding": [ {
            "system": "http://terminology.hl7.org/CodeSystem/v2-0203",
            "code": "MR"
          } ]
        },
        "system": "https://bonnie-fhir.healthit.gov/",
        "value": "6129133702c62a011f2e66b1"
      } ],
      "active": true,
      "name": [ {
        "use": "usual",
        "family": "NumerPass",
        "given": [ "ageeq18" ]
      } ],
      "gender": "male",
      "birthDate": "2007-05-31"
    },
    "request": {
      "method": "PUT",
      "url": "Patient/7cb8c09d-03d7-4b15-acb1-c30913becab3"
    }
  }, {
    "fullUrl": "https://madie.cms.gov/Encounter/bab5c84c-dc59-4e00-bb25-71642e880e6c",
    "resource": {
      "resourceType": "Encounter",
      "id": "bab5c84c-dc59-4e00-bb25-71642e880e6c",
      "meta": {
        "profile": [ "http://hl7.org/fhir/us/qicore/StructureDefinition/qicore-encounter" ]
      },
      "status": "finished",
      "class": {
        "system": "http://terminology.hl7.org/CodeSystem/v3-ActCode",
        "code": "IMP",
        "display": "inpatient encounter",
        "userSelected": true
      },
      "type": [ {
        "coding": [ {
          "system": "http://snomed.info/sct",
          "code": "32485007"
        } ]
      } ],
      "subject": {
        "reference": "Patient/7cb8c09d-03d7-4b15-acb1-c30913becab3"
      },
      "period": {
        "start": "2026-06-15T09:30:00.000+00:00",
        "end": "2026-10-12T10:30:00.000+00:00"
      },
      "length": {
        "value": 119,
        "unit": "days"
      },
      "diagnosis": [ {
        "condition": {
          "reference": "Condition/1b98af2d-2805-4dbd-8ebb-d49acc35b218"
        },
        "use": {
          "coding": [ {
            "system": "http://terminology.hl7.org/CodeSystem/diagnosis-role",
            "code": "billing",
            "display": "Billing"
          } ]
        },
        "rank": 1
      } ]
    },
    "request": {
      "method": "PUT",
      "url": "Encounter/bab5c84c-dc59-4e00-bb25-71642e880e6c"
    }
  }, {
    "fullUrl": "https://madie.cms.gov/MedicationRequest/a77bea77-37de-4428-99d1-e4607ab58ed7",
    "resource": {
      "resourceType": "MedicationRequest",
      "id": "a77bea77-37de-4428-99d1-e4607ab58ed7",
      "meta": {
        "profile": [ "http://hl7.org/fhir/us/qicore/StructureDefinition/qicore-medicationrequest" ]
      },
      "status": "active",
      "intent": "order",
      "category": [ {
        "coding": [ {
          "system": "http://terminology.hl7.org/CodeSystem/medicationrequest-category",
          "code": "discharge",
          "display": "Discharge",
          "userSelected": true
        } ]
      } ],
      "medicationCodeableConcept": {
        "coding": [ {
          "system": "http://www.nlm.nih.gov/research/umls/rxnorm",
          "code": "1037045"
        } ]
      },
      "subject": {
        "reference": "Patient/7cb8c09d-03d7-4b15-acb1-c30913becab3"
      },
      "authoredOn": "2026-10-10T10:00:00.000+00:00",
      "requester": {
        "reference": "Practitioner/example"
      }
    },
    "request": {
      "method": "PUT",
      "url": "MedicationRequest/a77bea77-37de-4428-99d1-e4607ab58ed7"
    }
  }, {
    "fullUrl": "https://madie.cms.gov/Condition/1b98af2d-2805-4dbd-8ebb-d49acc35b218",
    "resource": {
      "resourceType": "Condition",
      "id": "1b98af2d-2805-4dbd-8ebb-d49acc35b218",
      "meta": {
        "profile": [ "http://hl7.org/fhir/us/qicore/StructureDefinition/qicore-condition" ]
      },
      "clinicalStatus": {
        "coding": [ {
          "system": "http://terminology.hl7.org/CodeSystem/condition-clinical",
          "code": "active"
        } ]
      },
      "verificationStatus": {
        "coding": [ {
          "system": "http://terminology.hl7.org/CodeSystem/condition-ver-status",
          "code": "confirmed"
        } ]
      },
      "category": [ {
        "coding": [ {
          "system": "http://terminology.hl7.org/CodeSystem/condition-category",
          "code": "encounter-diagnosis",
          "display": "Encounter Diagnosis"
        } ]
      } ],
      "code": {
        "coding": [ {
          "system": "http://snomed.info/sct",
          "version": "2020-09",
          "code": "111297002",
          "display": "Nonparalytic stroke (disorder)",
          "userSelected": true
        } ]
      },
      "subject": {
        "reference": "Patient/7cb8c09d-03d7-4b15-acb1-c30913becab3"
      },
      "recordedDate": "2026-07-15T08:00:00.000+00:00"
    },
    "request": {
      "method": "PUT",
      "url": "Condition/1b98af2d-2805-4dbd-8ebb-d49acc35b218"
    }
  }, {
    "fullUrl": "https://madie.cms.gov/Claim/ab869a40-e9ae-4906-b74b-b8ce9d328370",
    "resource": {
      "resourceType": "Claim",
      "id": "ab869a40-e9ae-4906-b74b-b8ce9d328370",
      "meta": {
        "profile": [ "http://hl7.org/fhir/us/qicore/StructureDefinition/qicore-claim" ]
      },
      "status": "active",
      "type": {
        "coding": [ {
          "system": "http://terminology.hl7.org/CodeSystem/claim-type",
          "code": "institutional"
        } ]
      },
      "use": "claim",
      "patient": {
        "reference": "Patient/7cb8c09d-03d7-4b15-acb1-c30913becab3"
      },
      "created": "2026-12-01",
      "provider": {
        "reference": "Practitioner/practitioner-123456"
      },
      "priority": {
        "coding": [ {
          "system": "http://terminology.hl7.org/CodeSystem/processpriority",
          "code": "normal"
        } ]
      },
      "diagnosis": [ {
        "sequence": 1,
        "diagnosisCodeableConcept": {
          "coding": [ {
            "system": "http://hl7.org/fhir/sid/icd-10-cm",
            "code": "I63.00"
          } ]
        },
        "type": [ {
          "coding": [ {
            "system": "http://terminology.hl7.org/CodeSystem/ex-diagnosistype",
            "code": "principal"
          } ]
        } ]
      } ],
      "insurance": [ {
        "sequence": 1,
        "focal": true,
        "coverage": {
          "reference": "Coverage/5fa041661c76ba66d9959367"
        }
      } ],
      "item": [ {
        "sequence": 1,
        "diagnosisSequence": [ 1 ],
        "productOrService": {
          "coding": [ {
            "system": "http://terminology.hl7.org/CodeSystem/ex-USCLS",
            "code": "99555"
          } ]
        },
        "encounter": [ {
          "reference": "Encounter/bab5c84c-dc59-4e00-bb25-71642e880e6c"
        } ]
      } ]
    },
    "request": {
      "method": "PUT",
      "url": "Claim/ab869a40-e9ae-4906-b74b-b8ce9d328370"
    }
  }, {
    "fullUrl": "https://madie.cms.gov/Coverage/bb315cf9-ab54-4a66-b923-470399f985fa",
    "resource": {
      "resourceType": "Coverage",
      "id": "bb315cf9-ab54-4a66-b923-470399f985fa",
      "meta": {
        "profile": [ "http://hl7.org/fhir/us/qicore/StructureDefinition/qicore-coverage" ]
      },
      "status": "active",
      "beneficiary": {
        "reference": "Patient/7cb8c09d-03d7-4b15-acb1-c30913becab3"
      },
      "payor": [ {
        "reference": "Organization/86d080cf-fb72-4b44-b9da-ed37a4f74f3f"
      } ]
    },
    "request": {
      "method": "PUT",
      "url": "Coverage/bb315cf9-ab54-4a66-b923-470399f985fa"
    }
  }, {
    "fullUrl": "https://madie.cms.gov/Organization/86d080cf-fb72-4b44-b9da-ed37a4f74f3f",
    "resource": {
      "resourceType": "Organization",
      "id": "86d080cf-fb72-4b44-b9da-ed37a4f74f3f",
      "meta": {
        "profile": [ "http://hl7.org/fhir/us/qicore/StructureDefinition/qicore-organization" ]
      },
      "identifier": [ {
        "use": "temp",
        "system": "urn:oid:2.16.840.1.113883.4.4",
        "value": "21-3259825"
      } ],
      "active": true,
      "type": [ {
        "coding": [ {
          "system": "http://terminology.hl7.org/CodeSystem/organization-type",
          "code": "pay",
          "display": "Payer"
        } ]
      } ],
      "name": "Blue Cross Blue Shield of Texas",
      "telecom": [ {
        "system": "phone",
        "value": "(+1) 972-766-6900"
      } ],
      "address": [ {
        "use": "billing",
        "type": "postal",
        "line": [ "P.O. Box 660044" ],
        "city": "Dallas",
        "state": "TX",
        "postalCode": "75266-0044",
        "country": "USA"
      } ]
    },
    "request": {
      "method": "PUT",
      "url": "Organization/86d080cf-fb72-4b44-b9da-ed37a4f74f3f"
    }
  }, {
    "fullUrl": "https://madie.cms.gov/MeasureReport/94fe3401-5cf3-4650-9e13-0d15c8f027e1",
    "resource": {
      "resourceType": "MeasureReport",
      "id": "94fe3401-5cf3-4650-9e13-0d15c8f027e1",
      "meta": {
        "profile": [ "http://hl7.org/fhir/us/cqfmeasures/StructureDefinition/test-case-cqfm" ]
      },
      "contained": [ {
        "resourceType": "Parameters",
        "id": "fb378a2e-2342-4dca-938f-0c6df432f3ce-parameters",
        "parameter": [ {
          "name": "subject",
          "valueString": "7cb8c09d-03d7-4b15-acb1-c30913becab3"
        } ]
      } ],
      "extension": [ {
        "url": "http://hl7.org/fhir/StructureDefinition/cqf-inputParameters",
        "valueReference": {
          "reference": "#fb378a2e-2342-4dca-938f-0c6df432f3ce-parameters"
        }
      }, {
        "url": "http://hl7.org/fhir/us/cqfmeasures/StructureDefinition/cqfm-testCaseDescription",
        "valueMarkdown": "Patient is 18 with Non-Elective Inpatient Encounter with principal diagnosis of ischemic stroke ends during MP received antithrombotic during IP encounter\n"
      } ],
      "modifierExtension": [ {
        "url": "http://hl7.org/fhir/us/cqfmeasures/StructureDefinition/cqfm-isTestCase",
        "valueBoolean": true
      } ],
      "status": "complete",
      "type": "individual",
      "measure": "https://madie.cms.gov/Measure/CMS104FHIRSTKDCAntithrombotic",
      "period": {
        "start": "2026-01-01",
        "end": "2026-12-31"
      },
      "group": [ {
        "id": "Group_1",
        "population": [ {
          "id": "InitialPopulation_1",
          "code": {
            "coding": [ {
              "system": "http://terminology.hl7.org/CodeSystem/measure-population",
              "code": "initial-population",
              "display": "Initial Population"
            } ]
          },
          "count": 1
        }, {
          "id": "Denominator_1",
          "code": {
            "coding": [ {
              "system": "http://terminology.hl7.org/CodeSystem/measure-population",
              "code": "denominator",
              "display": "Denominator"
            } ]
          },
          "count": 1
        }, {
          "id": "DenominatorExclusion_1",
          "code": {
            "coding": [ {
              "system": "http://terminology.hl7.org/CodeSystem/measure-population",
              "code": "denominator-exclusion",
              "display": "Denominator Exclusion"
            } ]
          },
          "count": 0
        }, {
          "id": "Numerator_1",
          "code": {
            "coding": [ {
              "system": "http://terminology.hl7.org/CodeSystem/measure-population",
              "code": "numerator",
              "display": "Numerator"
            } ]
          },
          "count": 1
        }, {
          "id": "DenominatorException_1",
          "code": {
            "coding": [ {
              "system": "http://terminology.hl7.org/CodeSystem/measure-population",
              "code": "denominator-exception",
              "display": "Denominator Exception"
            } ]
          },
          "count": 0
        } ],
        "measureScore": {
          "value": 0.0
        }
      } ],
      "evaluatedResource": [ {
        "reference": "Patient/7cb8c09d-03d7-4b15-acb1-c30913becab3"
      }, {
        "reference": "Encounter/bab5c84c-dc59-4e00-bb25-71642e880e6c"
      }, {
        "reference": "MedicationRequest/a77bea77-37de-4428-99d1-e4607ab58ed7"
      }, {
        "reference": "Condition/1b98af2d-2805-4dbd-8ebb-d49acc35b218"
      }, {
        "reference": "Claim/ab869a40-e9ae-4906-b74b-b8ce9d328370"
      }, {
        "reference": "Coverage/bb315cf9-ab54-4a66-b923-470399f985fa"
      }, {
        "reference": "Organization/86d080cf-fb72-4b44-b9da-ed37a4f74f3f"
      } ]
    },
    "request": {
      "method": "PUT",
      "url": "MeasureReport/94fe3401-5cf3-4650-9e13-0d15c8f027e1"
    }
  } ]
}