{
  "resourceType": "Bundle",
  "id": "62c880ec0111a60120dc21fb",
  "type": "transaction",
  "entry": [ {
    "fullUrl": "https://madie.cms.gov/Patient/ede0d103-285f-42f0-807e-ff272f1ae70e",
    "resource": {
      "resourceType": "Patient",
      "id": "ede0d103-285f-42f0-807e-ff272f1ae70e",
      "meta": {
        "profile": [ "http://hl7.org/fhir/us/qicore/StructureDefinition/qicore-patient" ]
      },
      "extension": [ {
        "url": "http://hl7.org/fhir/us/core/StructureDefinition/us-core-race",
        "extension": [ {
          "url": "ombCategory",
          "valueCoding": {
            "system": "urn:oid:2.16.840.1.113883.6.238",
            "code": "1002-5",
            "display": "American Indian or Alaska Native"
          }
        }, {
          "url": "text",
          "valueString": "American Indian or Alaska Native"
        } ]
      }, {
        "url": "http://hl7.org/fhir/us/core/StructureDefinition/us-core-ethnicity",
        "extension": [ {
          "url": "ombCategory",
          "valueCoding": {
            "system": "urn:oid:2.16.840.1.113883.6.238",
            "code": "2135-2",
            "display": "Hispanic or Latino"
          }
        }, {
          "url": "text",
          "valueString": "Hispanic or Latino"
        } ]
      } ],
      "identifier": [ {
        "type": {
          "coding": [ {
            "system": "http://terminology.hl7.org/CodeSystem/v2-0203",
            "code": "MR"
          } ]
        },
        "system": "https://bonnie-fhir.healthit.gov/",
        "value": "62c880ec0111a60120dc21fb"
      } ],
      "active": true,
      "name": [ {
        "use": "usual",
        "family": "IPPPassPop1",
        "given": [ "SecondChemoLastDayOfMP" ]
      } ],
      "gender": "female",
      "birthDate": "1962-10-19"
    },
    "request": {
      "method": "PUT",
      "url": "Patient/ede0d103-285f-42f0-807e-ff272f1ae70e"
    }
  }, {
    "fullUrl": "https://madie.cms.gov/Condition/85484600-ec99-41b7-b1f9-ac92fc38538f",
    "resource": {
      "resourceType": "Condition",
      "id": "85484600-ec99-41b7-b1f9-ac92fc38538f",
      "meta": {
        "profile": [ "http://hl7.org/fhir/us/qicore/StructureDefinition/qicore-condition-problems-health-concerns" ]
      },
      "clinicalStatus": {
        "coding": [ {
          "system": "http://terminology.hl7.org/CodeSystem/condition-clinical",
          "code": "active",
          "display": "active"
        } ]
      },
      "verificationStatus": {
        "coding": [ {
          "system": "http://terminology.hl7.org/CodeSystem/condition-ver-status",
          "code": "confirmed",
          "display": "Confirmed"
        } ]
      },
      "category": [ {
        "coding": [ {
          "system": "http://terminology.hl7.org/CodeSystem/condition-category",
          "code": "problem-list-item",
          "display": "Problem List Item"
        } ]
      } ],
      "code": {
        "coding": [ {
          "system": "http://hl7.org/fhir/sid/icd-10-cm",
          "code": "C40.00"
        } ]
      },
      "subject": {
        "reference": "Patient/ede0d103-285f-42f0-807e-ff272f1ae70e"
      },
      "onsetDateTime": "2026-12-01T13:30:00.000+00:00"
    },
    "request": {
      "method": "PUT",
      "url": "Condition/85484600-ec99-41b7-b1f9-ac92fc38538f"
    }
  }, {
    "fullUrl": "https://madie.cms.gov/Encounter/6a5c7769-88fc-40c7-8671-8bf57653ae28",
    "resource": {
      "resourceType": "Encounter",
      "id": "6a5c7769-88fc-40c7-8671-8bf57653ae28",
      "meta": {
        "profile": [ "http://hl7.org/fhir/us/qicore/StructureDefinition/qicore-encounter" ]
      },
      "status": "finished",
      "class": {
        "system": "http://terminology.hl7.org/CodeSystem/v3-ActCode",
        "code": "AMB",
        "display": "ambulatory",
        "userSelected": true
      },
      "type": [ {
        "coding": [ {
          "system": "http://www.ama-assn.org/go/cpt",
          "code": "99203"
        } ]
      } ],
      "subject": {
        "reference": "Patient/ede0d103-285f-42f0-807e-ff272f1ae70e"
      },
      "period": {
        "start": "2026-12-31T13:00:00.000+00:00",
        "end": "2026-12-31T14:00:00.000+00:00"
      }
    },
    "request": {
      "method": "PUT",
      "url": "Encounter/6a5c7769-88fc-40c7-8671-8bf57653ae28"
    }
  }, {
    "fullUrl": "https://madie.cms.gov/Coverage/a376843a-851f-4341-a29f-8db31e188c45",
    "resource": {
      "resourceType": "Coverage",
      "id": "a376843a-851f-4341-a29f-8db31e188c45",
      "meta": {
        "profile": [ "http://hl7.org/fhir/us/qicore/StructureDefinition/qicore-coverage" ]
      },
      "status": "active",
      "beneficiary": {
        "reference": "Patient/ede0d103-285f-42f0-807e-ff272f1ae70e"
      },
      "period": {
        "start": "1962-10-19T08:00:00.000+00:00"
      },
      "payor": [ {
        "reference": "Organization/f4b18183-abca-4caf-b3d0-24a85a6b7ac7"
      } ]
    },
    "request": {
      "method": "PUT",
      "url": "Coverage/a376843a-851f-4341-a29f-8db31e188c45"
    }
  }, {
    "fullUrl": "https://madie.cms.gov/Procedure/2239d412-bdd1-42d3-8d6f-794e3572ca11",
    "resource": {
      "resourceType": "Procedure",
      "id": "2239d412-bdd1-42d3-8d6f-794e3572ca11",
      "meta": {
        "profile": [ "http://hl7.org/fhir/us/qicore/StructureDefinition/qicore-procedure" ]
      },
      "extension": [ {
        "url": "http://hl7.org/fhir/us/qicore/StructureDefinition/qicore-recorded",
        "valueDateTime": "2026-12-17T11:35:00.000+00:00"
      } ],
      "status": "completed",
      "code": {
        "coding": [ {
          "system": "http://snomed.info/sct",
          "code": "169396008"
        } ]
      },
      "subject": {
        "reference": "Patient/ede0d103-285f-42f0-807e-ff272f1ae70e"
      },
      "performedPeriod": {
        "start": "2026-12-17T11:00:00.000+00:00",
        "end": "2026-12-17T11:00:00.000+00:00"
      }
    },
    "request": {
      "method": "PUT",
      "url": "Procedure/2239d412-bdd1-42d3-8d6f-794e3572ca11"
    }
  }, {
    "fullUrl": "https://madie.cms.gov/Procedure/af94508a-8098-420f-a12a-4370ebade45f",
    "resource": {
      "resourceType": "Procedure",
      "id": "af94508a-8098-420f-a12a-4370ebade45f",
      "meta": {
        "profile": [ "http://hl7.org/fhir/us/qicore/StructureDefinition/qicore-procedure" ]
      },
      "extension": [ {
        "url": "http://hl7.org/fhir/us/qicore/StructureDefinition/qicore-recorded",
        "valueDateTime": "2026-12-31T14:45:00.000+00:00"
      } ],
      "status": "completed",
      "code": {
        "coding": [ {
          "system": "http://snomed.info/sct",
          "code": "169396008"
        } ]
      },
      "subject": {
        "reference": "Patient/ede0d103-285f-42f0-807e-ff272f1ae70e"
      },
      "performedPeriod": {
        "start": "2026-12-31T14:40:00.000+00:00",
        "end": "2026-12-31T14:40:00.000+00:00"
      }
    },
    "request": {
      "method": "PUT",
      "url": "Procedure/af94508a-8098-420f-a12a-4370ebade45f"
    }
  }, {
    "fullUrl": "https://madie.cms.gov/Organization/f4b18183-abca-4caf-b3d0-24a85a6b7ac7",
    "resource": {
      "resourceType": "Organization",
      "id": "f4b18183-abca-4caf-b3d0-24a85a6b7ac7",
      "meta": {
        "profile": [ "http://hl7.org/fhir/us/qicore/StructureDefinition/qicore-organization" ]
      },
      "identifier": [ {
        "use": "temp",
        "system": "urn:oid:2.16.840.1.113883.4.4",
        "value": "21-3259825"
      } ],
      "active": true,
      "type": [ {
        "coding": [ {
          "system": "http://terminology.hl7.org/CodeSystem/organization-type",
          "code": "pay",
          "display": "Payer"
        } ]
      } ],
      "name": "Blue Cross Blue Shield of Texas",
      "telecom": [ {
        "system": "phone",
        "value": "(+1) 972-766-6900"
      } ],
      "address": [ {
        "use": "billing",
        "type": "postal",
        "line": [ "P.O. Box 660044" ],
        "city": "Dallas",
        "state": "TX",
        "postalCode": "75266-0044",
        "country": "USA"
      } ]
    },
    "request": {
      "method": "PUT",
      "url": "Organization/f4b18183-abca-4caf-b3d0-24a85a6b7ac7"
    }
  }, {
    "fullUrl": "https://madie.cms.gov/Practitioner/1eada698-64b9-4e81-9d1e-833e45777ab8",
    "resource": {
      "resourceType": "Practitioner",
      "id": "1eada698-64b9-4e81-9d1e-833e45777ab8",
      "meta": {
        "profile": [ "http://hl7.org/fhir/us/qicore/StructureDefinition/qicore-practitioner" ]
      },
      "identifier": [ {
        "system": "http://hl7.org/fhir/sid/us-npi",
        "value": "1234567890"
      } ],
      "name": [ {
        "family": "Evil",
        "prefix": [ "Dr" ]
      } ]
    },
    "request": {
      "method": "PUT",
      "url": "Practitioner/1eada698-64b9-4e81-9d1e-833e45777ab8"
    }
  }, {
    "fullUrl": "https://madie.cms.gov/MeasureReport/db410136-ae00-4328-941e-366a83436c05",
    "resource": {
      "resourceType": "MeasureReport",
      "id": "db410136-ae00-4328-941e-366a83436c05",
      "meta": {
        "profile": [ "http://hl7.org/fhir/us/cqfmeasures/StructureDefinition/test-case-cqfm" ]
      },
      "contained": [ {
        "resourceType": "Parameters",
        "id": "aa1f8966-06b2-4296-85b2-ef70085d19c2-parameters",
        "parameter": [ {
          "name": "subject",
          "valueString": "ede0d103-285f-42f0-807e-ff272f1ae70e"
        } ]
      } ],
      "extension": [ {
        "url": "http://hl7.org/fhir/StructureDefinition/cqf-inputParameters",
        "valueReference": {
          "reference": "#aa1f8966-06b2-4296-85b2-ef70085d19c2-parameters"
        }
      }, {
        "url": "http://hl7.org/fhir/us/cqfmeasures/StructureDefinition/cqfm-testCaseDescription",
        "valueMarkdown": "Patient with cancer diagnosis that overlaps the office visit during measurement period. Chemotherapy received less than 30 days before office visit and another chemo administered on the last day of measurement period. \n"
      } ],
      "modifierExtension": [ {
        "url": "http://hl7.org/fhir/us/cqfmeasures/StructureDefinition/cqfm-isTestCase",
        "valueBoolean": true
      } ],
      "status": "complete",
      "type": "individual",
      "measure": "https://madie.cms.gov/Measure/CMS157FHIRPainIntensityQuantified",
      "period": {
        "start": "2026-01-01",
        "end": "2026-12-31"
      },
      "group": [ {
        "id": "Group_1",
        "population": [ {
          "id": "InitialPopulation_1",
          "code": {
            "coding": [ {
              "system": "http://terminology.hl7.org/CodeSystem/measure-population",
              "code": "initial-population",
              "display": "Initial Population"
            } ]
          },
          "count": 1
        }, {
          "id": "Denominator_1",
          "code": {
            "coding": [ {
              "system": "http://terminology.hl7.org/CodeSystem/measure-population",
              "code": "denominator",
              "display": "Denominator"
            } ]
          },
          "count": 1
        }, {
          "id": "Numerator_1",
          "code": {
            "coding": [ {
              "system": "http://terminology.hl7.org/CodeSystem/measure-population",
              "code": "numerator",
              "display": "Numerator"
            } ]
          },
          "count": 0
        } ],
        "measureScore": {
          "value": 0.0
        }
      }, {
        "id": "Group_2",
        "population": [ {
          "id": "InitialPopulation_2",
          "code": {
            "coding": [ {
              "system": "http://terminology.hl7.org/CodeSystem/measure-population",
              "code": "initial-population",
              "display": "Initial Population"
            } ]
          },
          "count": 0
        }, {
          "id": "Denominator_2",
          "code": {
            "coding": [ {
              "system": "http://terminology.hl7.org/CodeSystem/measure-population",
              "code": "denominator",
              "display": "Denominator"
            } ]
          },
          "count": 0
        }, {
          "id": "Numerator_2",
          "code": {
            "coding": [ {
              "system": "http://terminology.hl7.org/CodeSystem/measure-population",
              "code": "numerator",
              "display": "Numerator"
            } ]
          },
          "count": 0
        } ],
        "measureScore": {
          "value": 0.0
        }
      } ],
      "evaluatedResource": [ {
        "reference": "Patient/ede0d103-285f-42f0-807e-ff272f1ae70e"
      }, {
        "reference": "Condition/85484600-ec99-41b7-b1f9-ac92fc38538f"
      }, {
        "reference": "Encounter/6a5c7769-88fc-40c7-8671-8bf57653ae28"
      }, {
        "reference": "Coverage/a376843a-851f-4341-a29f-8db31e188c45"
      }, {
        "reference": "Procedure/2239d412-bdd1-42d3-8d6f-794e3572ca11"
      }, {
        "reference": "Procedure/af94508a-8098-420f-a12a-4370ebade45f"
      }, {
        "reference": "Organization/f4b18183-abca-4caf-b3d0-24a85a6b7ac7"
      }, {
        "reference": "Practitioner/1eada698-64b9-4e81-9d1e-833e45777ab8"
      } ]
    },
    "request": {
      "method": "PUT",
      "url": "MeasureReport/db410136-ae00-4328-941e-366a83436c05"
    }
  } ]
}