{
  "resourceType": "Bundle",
  "id": "62f66a8b5efef5272905e715",
  "type": "collection",
  "entry": [ {
    "fullUrl": "https://madie.cms.gov/Patient/1eaf0b86-afe8-488c-8f32-6321ecfe0fca",
    "resource": {
      "resourceType": "Patient",
      "id": "1eaf0b86-afe8-488c-8f32-6321ecfe0fca",
      "meta": {
        "profile": [ "http://hl7.org/fhir/us/qicore/StructureDefinition/qicore-patient" ]
      },
      "extension": [ {
        "url": "http://hl7.org/fhir/us/core/StructureDefinition/us-core-race",
        "extension": [ {
          "url": "ombCategory",
          "valueCoding": {
            "system": "urn:oid:2.16.840.1.113883.6.238",
            "code": "1002-5",
            "display": "American Indian or Alaska Native",
            "userSelected": true
          }
        }, {
          "url": "text",
          "valueString": "American Indian or Alaska Native"
        } ]
      }, {
        "url": "http://hl7.org/fhir/us/core/StructureDefinition/us-core-ethnicity",
        "extension": [ {
          "url": "ombCategory",
          "valueCoding": {
            "system": "urn:oid:2.16.840.1.113883.6.238",
            "code": "2135-2",
            "display": "Hispanic or Latino",
            "userSelected": true
          }
        }, {
          "url": "text",
          "valueString": "Hispanic or Latino"
        } ]
      } ],
      "identifier": [ {
        "type": {
          "coding": [ {
            "system": "http://terminology.hl7.org/CodeSystem/v2-0203",
            "code": "MR"
          } ]
        },
        "system": "https://bonnie-fhir.healthit.gov/",
        "value": "62f66a8b5efef5272905e715"
      } ],
      "name": [ {
        "family": "IPPFail",
        "given": [ "11yoDepressionScreening" ]
      } ],
      "gender": "unknown",
      "birthDate": "2015-01-01"
    }
  }, {
    "fullUrl": "https://madie.cms.gov/Encounter/eb465065-4dfc-41aa-8de8-81c8e30aab28",
    "resource": {
      "resourceType": "Encounter",
      "id": "eb465065-4dfc-41aa-8de8-81c8e30aab28",
      "meta": {
        "profile": [ "http://hl7.org/fhir/us/qicore/StructureDefinition/qicore-encounter" ]
      },
      "status": "finished",
      "class": {
        "system": "http://terminology.hl7.org/CodeSystem/v3-ActCode",
        "code": "AMB",
        "display": "ambulatory"
      },
      "type": [ {
        "coding": [ {
          "system": "http://snomed.info/sct",
          "code": "10197000",
          "display": "Psychiatric interview and evaluation (procedure)",
          "userSelected": true
        } ]
      } ],
      "subject": {
        "reference": "Patient/1eaf0b86-afe8-488c-8f32-6321ecfe0fca"
      },
      "period": {
        "start": "2026-08-12T08:00:00.000Z",
        "end": "2026-08-12T08:15:00.000Z"
      }
    }
  }, {
    "fullUrl": "https://madie.cms.gov/Coverage/b9668ecd-da1a-40a6-88f3-4bc0df097602",
    "resource": {
      "resourceType": "Coverage",
      "id": "b9668ecd-da1a-40a6-88f3-4bc0df097602",
      "meta": {
        "profile": [ "http://hl7.org/fhir/us/qicore/StructureDefinition/qicore-coverage" ]
      },
      "status": "active",
      "type": {
        "coding": [ {
          "system": "https://nahdo.org/sopt",
          "code": "1",
          "display": "MEDICARE",
          "userSelected": true
        } ]
      },
      "subscriberId": "123456789",
      "beneficiary": {
        "reference": "Patient/1eaf0b86-afe8-488c-8f32-6321ecfe0fca"
      },
      "relationship": {
        "coding": [ {
          "system": "http://terminology.hl7.org/CodeSystem/subscriber-relationship",
          "code": "self",
          "display": "Self",
          "userSelected": true
        } ]
      },
      "period": {
        "start": "2021-08-12T08:00:00.000Z",
        "end": "2026-08-12T08:15:00.000Z"
      },
      "payor": [ {
        "reference": "Organization/27f215d6-6779-4e5c-b381-fcef0361b180"
      } ]
    }
  }, {
    "fullUrl": "https://madie.cms.gov/Organization/27f215d6-6779-4e5c-b381-fcef0361b180",
    "resource": {
      "resourceType": "Organization",
      "id": "27f215d6-6779-4e5c-b381-fcef0361b180",
      "meta": {
        "profile": [ "http://hl7.org/fhir/us/qicore/StructureDefinition/qicore-organization" ]
      },
      "identifier": [ {
        "use": "temp",
        "system": "urn:oid:2.16.840.1.113883.4.4",
        "value": "21-3259825"
      } ],
      "active": true,
      "type": [ {
        "coding": [ {
          "system": "http://terminology.hl7.org/CodeSystem/organization-type",
          "code": "pay",
          "display": "Payer"
        } ]
      } ],
      "name": "Blue Cross Blue Shield of Texas",
      "telecom": [ {
        "system": "phone",
        "value": "(+1) 972-766-6900"
      } ],
      "address": [ {
        "use": "billing",
        "type": "postal",
        "line": [ "P.O. Box 660044" ],
        "city": "Dallas",
        "state": "TX",
        "postalCode": "75266-0044",
        "country": "USA"
      } ]
    }
  }, {
    "fullUrl": "https://madie.cms.gov/Practitioner/6d480c5a-aad9-4d34-9f80-21418e215526",
    "resource": {
      "resourceType": "Practitioner",
      "id": "6d480c5a-aad9-4d34-9f80-21418e215526",
      "meta": {
        "profile": [ "http://hl7.org/fhir/us/qicore/StructureDefinition/qicore-practitioner" ]
      },
      "identifier": [ {
        "system": "http://hl7.org/fhir/sid/us-npi",
        "value": "1234567893"
      } ],
      "name": [ {
        "family": "Evil",
        "prefix": [ "Dr" ]
      } ]
    }
  }, {
    "fullUrl": "https://madie.cms.gov/MeasureReport/edf031e4-737c-469f-85b4-b9f7ceee8edc",
    "resource": {
      "resourceType": "MeasureReport",
      "id": "edf031e4-737c-469f-85b4-b9f7ceee8edc",
      "meta": {
        "profile": [ "http://hl7.org/fhir/us/cqfmeasures/StructureDefinition/test-case-cqfm" ]
      },
      "contained": [ {
        "resourceType": "Parameters",
        "id": "df0168b5-4bb9-4a9f-9dff-37d656d680c5-parameters",
        "parameter": [ {
          "name": "subject",
          "valueString": "1eaf0b86-afe8-488c-8f32-6321ecfe0fca"
        } ]
      } ],
      "extension": [ {
        "url": "http://hl7.org/fhir/StructureDefinition/cqf-inputParameters",
        "valueReference": {
          "reference": "#df0168b5-4bb9-4a9f-9dff-37d656d680c5-parameters"
        }
      }, {
        "url": "http://hl7.org/fhir/us/cqfmeasures/StructureDefinition/cqfm-testCaseDescription",
        "valueMarkdown": "11yo male with depression screening. gender = unknown to cover Sex logic \"null\""
      } ],
      "modifierExtension": [ {
        "url": "http://hl7.org/fhir/us/cqfmeasures/StructureDefinition/cqfm-isTestCase",
        "valueBoolean": true
      } ],
      "status": "complete",
      "type": "individual",
      "measure": "https://madie.cms.gov/Measure/CMS2FHIRPCSDepScreenAndFollowUp",
      "period": {
        "start": "2026-01-01",
        "end": "2026-12-31"
      },
      "group": [ {
        "id": "Group_1",
        "population": [ {
          "id": "InitialPopulation_1",
          "code": {
            "coding": [ {
              "system": "http://terminology.hl7.org/CodeSystem/measure-population",
              "code": "initial-population",
              "display": "Initial Population"
            } ]
          },
          "count": 0
        }, {
          "id": "Denominator_1",
          "code": {
            "coding": [ {
              "system": "http://terminology.hl7.org/CodeSystem/measure-population",
              "code": "denominator",
              "display": "Denominator"
            } ]
          },
          "count": 0
        }, {
          "id": "DenominatorExclusion_1",
          "code": {
            "coding": [ {
              "system": "http://terminology.hl7.org/CodeSystem/measure-population",
              "code": "denominator-exclusion",
              "display": "Denominator Exclusion"
            } ]
          },
          "count": 0
        }, {
          "id": "Numerator_1",
          "code": {
            "coding": [ {
              "system": "http://terminology.hl7.org/CodeSystem/measure-population",
              "code": "numerator",
              "display": "Numerator"
            } ]
          },
          "count": 0
        }, {
          "id": "DenominatorException_1",
          "code": {
            "coding": [ {
              "system": "http://terminology.hl7.org/CodeSystem/measure-population",
              "code": "denominator-exception",
              "display": "Denominator Exception"
            } ]
          },
          "count": 0
        } ],
        "measureScore": {
          "value": 1.0
        }
      } ],
      "evaluatedResource": [ {
        "reference": "Patient/1eaf0b86-afe8-488c-8f32-6321ecfe0fca"
      }, {
        "reference": "Encounter/eb465065-4dfc-41aa-8de8-81c8e30aab28"
      }, {
        "reference": "Coverage/b9668ecd-da1a-40a6-88f3-4bc0df097602"
      }, {
        "reference": "Organization/27f215d6-6779-4e5c-b381-fcef0361b180"
      }, {
        "reference": "Practitioner/6d480c5a-aad9-4d34-9f80-21418e215526"
      } ]
    }
  } ]
}