{
  "resourceType": "Bundle",
  "id": "633b3f9e0968f80122503cd8",
  "type": "transaction",
  "entry": [ {
    "fullUrl": "https://madie.cms.gov/Patient/4e9a1928-a33f-4be3-aa05-c69e9fc4bff7",
    "resource": {
      "resourceType": "Patient",
      "id": "4e9a1928-a33f-4be3-aa05-c69e9fc4bff7",
      "meta": {
        "profile": [ "http://hl7.org/fhir/us/qicore/StructureDefinition/qicore-patient" ]
      },
      "text": {
        "status": "generated",
        "div": "<div xmlns=\"http://www.w3.org/1999/xhtml\"><div class=\"hapiHeaderText\">DELEncCalEGAEQ20<b>DENOMPASS</b></div><table class=\"hapiPropertyTable\"><tbody><tr><td>Date of birth</td><td><span>01 February 1958</span></td></tr></tbody></table></div>"
      },
      "extension": [ {
        "url": "http://hl7.org/fhir/us/core/StructureDefinition/us-core-race",
        "extension": [ {
          "url": "ombCategory",
          "valueCoding": {
            "system": "urn:oid:2.16.840.1.113883.6.238",
            "code": "1002-5",
            "display": "American Indian or Alaska Native",
            "userSelected": true
          }
        }, {
          "url": "text",
          "valueString": "American Indian or Alaska Native"
        } ]
      }, {
        "url": "http://hl7.org/fhir/us/core/StructureDefinition/us-core-ethnicity",
        "extension": [ {
          "url": "ombCategory",
          "valueCoding": {
            "system": "urn:oid:2.16.840.1.113883.6.238",
            "code": "2135-2",
            "display": "Hispanic or Latino",
            "userSelected": true
          }
        }, {
          "url": "text",
          "valueString": "Hispanic or Latino"
        } ]
      } ],
      "identifier": [ {
        "type": {
          "coding": [ {
            "system": "http://terminology.hl7.org/CodeSystem/v2-0203",
            "code": "MR"
          } ]
        },
        "system": "https://bonnie-fhir.healthit.gov/",
        "value": "633b3f9e0968f80122503cd8"
      } ],
      "active": true,
      "name": [ {
        "use": "usual",
        "family": "DENOMPass",
        "given": [ "DELEncCalEGAEQ20" ]
      } ],
      "gender": "female",
      "birthDate": "1971-02-01"
    },
    "request": {
      "method": "PUT",
      "url": "Patient/4e9a1928-a33f-4be3-aa05-c69e9fc4bff7"
    }
  }, {
    "fullUrl": "https://madie.cms.gov/Observation/f2609c60-9b61-42ba-98fd-c0700940f05d",
    "resource": {
      "resourceType": "Observation",
      "id": "f2609c60-9b61-42ba-98fd-c0700940f05d",
      "meta": {
        "profile": [ "http://hl7.org/fhir/us/qicore/StructureDefinition/qicore-simple-observation" ]
      },
      "status": "final",
      "category": [ {
        "coding": [ {
          "system": "http://terminology.hl7.org/CodeSystem/observation-category",
          "code": "exam",
          "display": "exam",
          "userSelected": true
        } ]
      } ],
      "code": {
        "coding": [ {
          "system": "http://loinc.org",
          "code": "93857-1"
        } ]
      },
      "subject": {
        "reference": "Patient/4e9a1928-a33f-4be3-aa05-c69e9fc4bff7"
      },
      "effectiveDateTime": "2026-01-15T08:00:00.000+00:00",
      "performer": [ {
        "reference": "Organization/example1",
        "display": "Hendricks Country Hospital"
      } ],
      "valueDateTime": "2026-01-15T08:00:00.000+00:00"
    },
    "request": {
      "method": "PUT",
      "url": "Observation/f2609c60-9b61-42ba-98fd-c0700940f05d"
    }
  }, {
    "fullUrl": "https://madie.cms.gov/Observation/fbaedb36-5e85-4a62-8c07-1de96b1da9f2",
    "resource": {
      "resourceType": "Observation",
      "id": "fbaedb36-5e85-4a62-8c07-1de96b1da9f2",
      "meta": {
        "profile": [ "http://hl7.org/fhir/us/qicore/StructureDefinition/qicore-simple-observation" ]
      },
      "status": "final",
      "category": [ {
        "coding": [ {
          "system": "http://terminology.hl7.org/CodeSystem/observation-category",
          "code": "exam",
          "display": "exam",
          "userSelected": true
        } ]
      } ],
      "code": {
        "coding": [ {
          "system": "http://loinc.org",
          "code": "11778-8"
        } ]
      },
      "subject": {
        "reference": "Patient/4e9a1928-a33f-4be3-aa05-c69e9fc4bff7"
      },
      "effectiveDateTime": "2026-01-15T08:00:00.000+00:00",
      "performer": [ {
        "reference": "Organization/example1",
        "display": "Hendricks Country Hospital"
      } ],
      "valueDateTime": "2026-06-03T08:00:00.000+00:00"
    },
    "request": {
      "method": "PUT",
      "url": "Observation/fbaedb36-5e85-4a62-8c07-1de96b1da9f2"
    }
  }, {
    "fullUrl": "https://madie.cms.gov/Encounter/e47f79e4-116e-4d6c-8892-0099a4dce3d7",
    "resource": {
      "resourceType": "Encounter",
      "id": "e47f79e4-116e-4d6c-8892-0099a4dce3d7",
      "meta": {
        "profile": [ "http://hl7.org/fhir/us/qicore/StructureDefinition/qicore-encounter" ]
      },
      "status": "finished",
      "class": {
        "system": "http://terminology.hl7.org/CodeSystem/v3-ActCode",
        "code": "IMP",
        "display": "inpatient encounter"
      },
      "type": [ {
        "coding": [ {
          "system": "http://snomed.info/sct",
          "code": "183452005"
        } ]
      } ],
      "subject": {
        "reference": "Patient/4e9a1928-a33f-4be3-aa05-c69e9fc4bff7"
      },
      "period": {
        "start": "2026-01-01T08:00:00.000+00:00",
        "end": "2026-02-05T08:15:00.000+00:00"
      }
    },
    "request": {
      "method": "PUT",
      "url": "Encounter/e47f79e4-116e-4d6c-8892-0099a4dce3d7"
    }
  }, {
    "fullUrl": "https://madie.cms.gov/Procedure/68ad5b88-c481-4a4b-adfa-9ffb08511731",
    "resource": {
      "resourceType": "Procedure",
      "id": "68ad5b88-c481-4a4b-adfa-9ffb08511731",
      "meta": {
        "profile": [ "http://hl7.org/fhir/us/qicore/StructureDefinition/qicore-procedure" ]
      },
      "extension": [ {
        "url": "http://hl7.org/fhir/us/qicore/StructureDefinition/qicore-recorded",
        "valueDateTime": "2014-04-05T13:35:00.000+00:00"
      } ],
      "status": "completed",
      "code": {
        "coding": [ {
          "system": "http://snomed.info/sct",
          "code": "10745001"
        } ]
      },
      "subject": {
        "reference": "Patient/4e9a1928-a33f-4be3-aa05-c69e9fc4bff7"
      },
      "performedPeriod": {
        "start": "2026-01-01T08:00:00.000+00:00"
      }
    },
    "request": {
      "method": "PUT",
      "url": "Procedure/68ad5b88-c481-4a4b-adfa-9ffb08511731"
    }
  }, {
    "fullUrl": "https://madie.cms.gov/Coverage/e4b26ab4-652a-4841-ba16-34094b687e32",
    "resource": {
      "resourceType": "Coverage",
      "id": "e4b26ab4-652a-4841-ba16-34094b687e32",
      "meta": {
        "profile": [ "http://hl7.org/fhir/us/qicore/StructureDefinition/qicore-coverage" ]
      },
      "status": "active",
      "subscriberId": "523435",
      "beneficiary": {
        "reference": "Patient/4e9a1928-a33f-4be3-aa05-c69e9fc4bff7"
      },
      "relationship": {
        "coding": [ {
          "system": "http://terminology.hl7.org/CodeSystem/subscriber-relationship",
          "code": "self"
        } ]
      },
      "payor": [ {
        "reference": "Organization/d4f8777f-3475-4ba7-829a-44c3b4a5c0fe"
      } ]
    },
    "request": {
      "method": "PUT",
      "url": "Coverage/e4b26ab4-652a-4841-ba16-34094b687e32"
    }
  }, {
    "fullUrl": "https://madie.cms.gov/Organization/d4f8777f-3475-4ba7-829a-44c3b4a5c0fe",
    "resource": {
      "resourceType": "Organization",
      "id": "d4f8777f-3475-4ba7-829a-44c3b4a5c0fe",
      "meta": {
        "profile": [ "http://hl7.org/fhir/us/qicore/StructureDefinition/qicore-organization" ]
      },
      "identifier": [ {
        "use": "temp",
        "system": "urn:oid:2.16.840.1.113883.4.4",
        "value": "21-3259825"
      } ],
      "active": true,
      "type": [ {
        "coding": [ {
          "system": "http://terminology.hl7.org/CodeSystem/organization-type",
          "code": "pay",
          "display": "Payer"
        } ]
      } ],
      "name": "Blue Cross Blue Shield of Texas",
      "telecom": [ {
        "system": "phone",
        "value": "(+1) 972-766-6900"
      } ],
      "address": [ {
        "use": "billing",
        "type": "postal",
        "line": [ "P.O. Box 660044" ],
        "city": "Dallas",
        "state": "TX",
        "postalCode": "75266-0044",
        "country": "USA"
      } ]
    },
    "request": {
      "method": "PUT",
      "url": "Organization/d4f8777f-3475-4ba7-829a-44c3b4a5c0fe"
    }
  }, {
    "fullUrl": "https://madie.cms.gov/Practitioner/691ac195-7996-432f-b65b-2ff83d01bdc2",
    "resource": {
      "resourceType": "Practitioner",
      "id": "691ac195-7996-432f-b65b-2ff83d01bdc2",
      "meta": {
        "profile": [ "http://hl7.org/fhir/us/qicore/StructureDefinition/qicore-practitioner" ]
      },
      "identifier": [ {
        "system": "http://hl7.org/fhir/sid/us-npi",
        "value": "1234567890"
      } ],
      "name": [ {
        "family": "Evil",
        "prefix": [ "Dr" ]
      } ]
    },
    "request": {
      "method": "PUT",
      "url": "Practitioner/691ac195-7996-432f-b65b-2ff83d01bdc2"
    }
  }, {
    "fullUrl": "https://madie.cms.gov/MeasureReport/b5e2ab5a-6cab-435c-a2d6-12dbacfa8b51",
    "resource": {
      "resourceType": "MeasureReport",
      "id": "b5e2ab5a-6cab-435c-a2d6-12dbacfa8b51",
      "meta": {
        "profile": [ "http://hl7.org/fhir/us/cqfmeasures/StructureDefinition/test-case-cqfm" ]
      },
      "contained": [ {
        "resourceType": "Parameters",
        "id": "fa17e810-cc43-477c-9e13-b4a492ef9e80-parameters",
        "parameter": [ {
          "name": "subject",
          "valueString": "4e9a1928-a33f-4be3-aa05-c69e9fc4bff7"
        } ]
      } ],
      "extension": [ {
        "url": "http://hl7.org/fhir/StructureDefinition/cqf-inputParameters",
        "valueReference": {
          "reference": "#fa17e810-cc43-477c-9e13-b4a492ef9e80-parameters"
        }
      }, {
        "url": "http://hl7.org/fhir/us/cqfmeasures/StructureDefinition/cqfm-testCaseDescription",
        "valueMarkdown": "Calculated EGA = 20 weeks.\n"
      } ],
      "modifierExtension": [ {
        "url": "http://hl7.org/fhir/us/cqfmeasures/StructureDefinition/cqfm-isTestCase",
        "valueBoolean": true
      } ],
      "status": "complete",
      "type": "individual",
      "measure": "https://madie.cms.gov/Measure/CMS1028FHIRPCSevereOBComps",
      "period": {
        "start": "2026-01-01",
        "end": "2026-12-31"
      },
      "group": [ {
        "id": "Group_1",
        "population": [ {
          "id": "InitialPopulation_1",
          "code": {
            "coding": [ {
              "system": "http://terminology.hl7.org/CodeSystem/measure-population",
              "code": "initial-population",
              "display": "Initial Population"
            } ]
          },
          "count": 1
        }, {
          "id": "Denominator_1",
          "code": {
            "coding": [ {
              "system": "http://terminology.hl7.org/CodeSystem/measure-population",
              "code": "denominator",
              "display": "Denominator"
            } ]
          },
          "count": 1
        }, {
          "id": "Numerator_1",
          "code": {
            "coding": [ {
              "system": "http://terminology.hl7.org/CodeSystem/measure-population",
              "code": "numerator",
              "display": "Numerator"
            } ]
          },
          "count": 0
        }, {
          "id": "NumeratorExclusion_1",
          "code": {
            "coding": [ {
              "system": "http://terminology.hl7.org/CodeSystem/measure-population",
              "code": "numerator-exclusion",
              "display": "Numerator Exclusion"
            } ]
          },
          "count": 0
        } ],
        "measureScore": {
          "value": 0.0
        }
      }, {
        "id": "Group_2",
        "population": [ {
          "id": "InitialPopulation_2",
          "code": {
            "coding": [ {
              "system": "http://terminology.hl7.org/CodeSystem/measure-population",
              "code": "initial-population",
              "display": "Initial Population"
            } ]
          },
          "count": 1
        }, {
          "id": "Denominator_2",
          "code": {
            "coding": [ {
              "system": "http://terminology.hl7.org/CodeSystem/measure-population",
              "code": "denominator",
              "display": "Denominator"
            } ]
          },
          "count": 1
        }, {
          "id": "Numerator_2",
          "code": {
            "coding": [ {
              "system": "http://terminology.hl7.org/CodeSystem/measure-population",
              "code": "numerator",
              "display": "Numerator"
            } ]
          },
          "count": 0
        }, {
          "id": "NumeratorExclusion_2",
          "code": {
            "coding": [ {
              "system": "http://terminology.hl7.org/CodeSystem/measure-population",
              "code": "numerator-exclusion",
              "display": "Numerator Exclusion"
            } ]
          },
          "count": 0
        } ],
        "measureScore": {
          "value": 0.0
        }
      } ],
      "evaluatedResource": [ {
        "reference": "Patient/4e9a1928-a33f-4be3-aa05-c69e9fc4bff7"
      }, {
        "reference": "Observation/f2609c60-9b61-42ba-98fd-c0700940f05d"
      }, {
        "reference": "Observation/fbaedb36-5e85-4a62-8c07-1de96b1da9f2"
      }, {
        "reference": "Encounter/e47f79e4-116e-4d6c-8892-0099a4dce3d7"
      }, {
        "reference": "Procedure/68ad5b88-c481-4a4b-adfa-9ffb08511731"
      }, {
        "reference": "Coverage/e4b26ab4-652a-4841-ba16-34094b687e32"
      }, {
        "reference": "Organization/d4f8777f-3475-4ba7-829a-44c3b4a5c0fe"
      }, {
        "reference": "Practitioner/691ac195-7996-432f-b65b-2ff83d01bdc2"
      } ]
    },
    "request": {
      "method": "PUT",
      "url": "MeasureReport/b5e2ab5a-6cab-435c-a2d6-12dbacfa8b51"
    }
  } ]
}