{
  "resourceType": "Bundle",
  "id": "60ec6943bc72857e238afa20",
  "type": "collection",
  "entry": [ {
    "fullUrl": "https://madie.cms.gov/Patient/4788274e-9b09-45fa-a9a7-d97237a40f58",
    "resource": {
      "resourceType": "Patient",
      "id": "4788274e-9b09-45fa-a9a7-d97237a40f58",
      "meta": {
        "profile": [ "http://hl7.org/fhir/us/qicore/StructureDefinition/qicore-patient" ]
      },
      "extension": [ {
        "url": "http://hl7.org/fhir/us/core/StructureDefinition/us-core-race",
        "extension": [ {
          "url": "ombCategory",
          "valueCoding": {
            "system": "urn:oid:2.16.840.1.113883.6.238",
            "code": "1002-5",
            "display": "American Indian or Alaska Native",
            "userSelected": true
          }
        }, {
          "url": "text",
          "valueString": "American Indian or Alaska Native"
        } ]
      }, {
        "url": "http://hl7.org/fhir/us/core/StructureDefinition/us-core-ethnicity",
        "extension": [ {
          "url": "ombCategory",
          "valueCoding": {
            "system": "urn:oid:2.16.840.1.113883.6.238",
            "code": "2186-5",
            "display": "Not Hispanic or Latino",
            "userSelected": true
          }
        }, {
          "url": "text",
          "valueString": "Not Hispanic or Latino"
        } ]
      } ],
      "identifier": [ {
        "type": {
          "coding": [ {
            "system": "http://terminology.hl7.org/CodeSystem/v2-0203",
            "code": "MR"
          } ]
        },
        "system": "https://bonnie-fhir.healthit.gov/",
        "value": "60ec6943bc72857e238afa20"
      } ],
      "name": [ {
        "family": "DENEXFail",
        "given": [ "ScleritisAfterCatSurg" ]
      } ],
      "gender": "male",
      "birthDate": "1969-06-15"
    }
  }, {
    "fullUrl": "https://madie.cms.gov/Condition/c1e86510-1695-469e-a945-7924b1063239",
    "resource": {
      "resourceType": "Condition",
      "id": "c1e86510-1695-469e-a945-7924b1063239",
      "meta": {
        "profile": [ "http://hl7.org/fhir/us/qicore/StructureDefinition/qicore-condition-problems-health-concerns" ]
      },
      "category": [ {
        "coding": [ {
          "system": "http://terminology.hl7.org/CodeSystem/condition-category",
          "code": "problem-list-item",
          "display": "Problem List Item"
        } ]
      } ],
      "code": {
        "coding": [ {
          "system": "http://snomed.info/sct",
          "version": "http://snomed.info/sct/731000124108/version/20250301",
          "code": "78370002"
        } ]
      },
      "subject": {
        "reference": "Patient/4788274e-9b09-45fa-a9a7-d97237a40f58"
      },
      "recordedDate": "2026-08-12T02:00:00.000+00:00"
    }
  }, {
    "fullUrl": "https://madie.cms.gov/Procedure/d827d404-6d55-4dae-b0b5-982b7c6fbb6b",
    "resource": {
      "resourceType": "Procedure",
      "id": "d827d404-6d55-4dae-b0b5-982b7c6fbb6b",
      "meta": {
        "profile": [ "http://hl7.org/fhir/us/qicore/StructureDefinition/qicore-procedure" ]
      },
      "extension": [ {
        "url": "http://hl7.org/fhir/us/qicore/StructureDefinition/qicore-recorded",
        "valueDateTime": "2026-08-30T17:35:00.000+00:00"
      } ],
      "status": "completed",
      "code": {
        "coding": [ {
          "system": "http://snomed.info/sct",
          "version": "http://snomed.info/sct/731000124108/version/20230301",
          "code": "5130002"
        } ]
      },
      "subject": {
        "reference": "Patient/4788274e-9b09-45fa-a9a7-d97237a40f58"
      },
      "performedDateTime": "2026-08-15T08:00:00.000+00:00"
    }
  }, {
    "fullUrl": "https://madie.cms.gov/Coverage/f615b855-f904-4d6f-9dfe-7abdc824db4d",
    "resource": {
      "resourceType": "Coverage",
      "id": "f615b855-f904-4d6f-9dfe-7abdc824db4d",
      "meta": {
        "profile": [ "http://hl7.org/fhir/us/qicore/StructureDefinition/qicore-coverage" ]
      },
      "status": "active",
      "subscriberId": "123456",
      "beneficiary": {
        "reference": "Patient/4788274e-9b09-45fa-a9a7-d97237a40f58"
      },
      "relationship": {
        "coding": [ {
          "system": "http://terminology.hl7.org/CodeSystem/subscriber-relationship",
          "code": "self",
          "display": "Self"
        } ]
      },
      "payor": [ {
        "reference": "Organization/3e46ef47-e2d1-4979-96b7-e6c3c8b1bd93"
      } ]
    }
  }, {
    "fullUrl": "https://madie.cms.gov/Organization/3e46ef47-e2d1-4979-96b7-e6c3c8b1bd93",
    "resource": {
      "resourceType": "Organization",
      "id": "3e46ef47-e2d1-4979-96b7-e6c3c8b1bd93",
      "meta": {
        "profile": [ "http://hl7.org/fhir/us/qicore/StructureDefinition/qicore-organization" ]
      },
      "identifier": [ {
        "use": "temp",
        "system": "urn:oid:2.16.840.1.113883.4.4",
        "value": "21-3259825"
      } ],
      "active": true,
      "type": [ {
        "coding": [ {
          "system": "http://terminology.hl7.org/CodeSystem/organization-type",
          "code": "pay",
          "display": "Payer"
        } ]
      } ],
      "name": "Blue Cross Blue Shield of Texas",
      "telecom": [ {
        "system": "phone",
        "value": "(+1) 972-766-6900"
      } ],
      "address": [ {
        "use": "billing",
        "type": "postal",
        "line": [ "P.O. Box 660044" ],
        "city": "Dallas",
        "state": "TX",
        "postalCode": "75266-0044",
        "country": "USA"
      } ]
    }
  }, {
    "fullUrl": "https://madie.cms.gov/Practitioner/bf7b6b1b-b592-4701-a73d-d2e0a0ae52b6",
    "resource": {
      "resourceType": "Practitioner",
      "id": "bf7b6b1b-b592-4701-a73d-d2e0a0ae52b6",
      "meta": {
        "profile": [ "http://hl7.org/fhir/us/qicore/StructureDefinition/qicore-practitioner" ]
      },
      "identifier": [ {
        "system": "http://hl7.org/fhir/sid/us-npi",
        "value": "1689411712"
      } ],
      "name": [ {
        "family": "Smith",
        "prefix": [ "Dr" ]
      } ]
    }
  }, {
    "fullUrl": "https://madie.cms.gov/MeasureReport/212c6493-d3bd-45a8-98ff-e353821defdc",
    "resource": {
      "resourceType": "MeasureReport",
      "id": "212c6493-d3bd-45a8-98ff-e353821defdc",
      "meta": {
        "profile": [ "http://hl7.org/fhir/us/cqfmeasures/StructureDefinition/test-case-cqfm" ]
      },
      "contained": [ {
        "resourceType": "Parameters",
        "id": "c96f2836-fe9a-4b76-9c21-68e312650fe1-parameters",
        "parameter": [ {
          "name": "subject",
          "valueString": "4788274e-9b09-45fa-a9a7-d97237a40f58"
        } ]
      } ],
      "extension": [ {
        "url": "http://hl7.org/fhir/StructureDefinition/cqf-inputParameters",
        "valueReference": {
          "reference": "#c96f2836-fe9a-4b76-9c21-68e312650fe1-parameters"
        }
      }, {
        "url": "http://hl7.org/fhir/us/cqfmeasures/StructureDefinition/cqfm-testCaseDescription",
        "valueMarkdown": "Patient with scleritis starting after cataract surgery"
      } ],
      "modifierExtension": [ {
        "url": "http://hl7.org/fhir/us/cqfmeasures/StructureDefinition/cqfm-isTestCase",
        "valueBoolean": true
      } ],
      "status": "complete",
      "type": "individual",
      "measure": "https://madie.cms.gov/Measure/CMS133FHIRCataracts2040BCVA90Days",
      "period": {
        "start": "2026-01-01",
        "end": "2026-12-31"
      },
      "group": [ {
        "id": "Group_1",
        "population": [ {
          "id": "InitialPopulation_1",
          "code": {
            "coding": [ {
              "system": "http://terminology.hl7.org/CodeSystem/measure-population",
              "code": "initial-population",
              "display": "Initial Population"
            } ]
          },
          "count": 1
        }, {
          "id": "Denominator_1",
          "code": {
            "coding": [ {
              "system": "http://terminology.hl7.org/CodeSystem/measure-population",
              "code": "denominator",
              "display": "Denominator"
            } ]
          },
          "count": 1
        }, {
          "id": "DenominatorExclusion_1",
          "code": {
            "coding": [ {
              "system": "http://terminology.hl7.org/CodeSystem/measure-population",
              "code": "denominator-exclusion",
              "display": "Denominator Exclusion"
            } ]
          },
          "count": 0
        }, {
          "id": "Numerator_1",
          "code": {
            "coding": [ {
              "system": "http://terminology.hl7.org/CodeSystem/measure-population",
              "code": "numerator",
              "display": "Numerator"
            } ]
          },
          "count": 0
        } ],
        "measureScore": {
          "value": 0.0
        }
      } ],
      "evaluatedResource": [ {
        "reference": "Patient/4788274e-9b09-45fa-a9a7-d97237a40f58"
      }, {
        "reference": "Condition/c1e86510-1695-469e-a945-7924b1063239"
      }, {
        "reference": "Procedure/d827d404-6d55-4dae-b0b5-982b7c6fbb6b"
      }, {
        "reference": "Coverage/f615b855-f904-4d6f-9dfe-7abdc824db4d"
      }, {
        "reference": "Organization/3e46ef47-e2d1-4979-96b7-e6c3c8b1bd93"
      }, {
        "reference": "Practitioner/bf7b6b1b-b592-4701-a73d-d2e0a0ae52b6"
      } ]
    }
  } ]
}