{
  "resourceType": "Bundle",
  "id": "612e6a6002c62a011f2e9dfd",
  "type": "transaction",
  "entry": [ {
    "fullUrl": "https://madie.cms.gov/Patient/95a54d01-197e-48ef-bb48-d3d398aecbe8",
    "resource": {
      "resourceType": "Patient",
      "id": "95a54d01-197e-48ef-bb48-d3d398aecbe8",
      "meta": {
        "profile": [ "http://hl7.org/fhir/us/qicore/StructureDefinition/qicore-patient" ]
      },
      "text": {
        "status": "generated",
        "div": "<div xmlns=\"http://www.w3.org/1999/xhtml\"><div class=\"hapiHeaderText\">PtRefMAInjXaDayOfAnes <b>NUMERPASS </b></div><table class=\"hapiPropertyTable\"><tbody><tr><td>Identifier</td><td>bec2580a47ed4bf7691b191e0654b2de</td></tr><tr><td>Date of birth</td><td><span>02 January 1974</span></td></tr></tbody></table></div>"
      },
      "extension": [ {
        "url": "http://hl7.org/fhir/us/core/StructureDefinition/us-core-race",
        "extension": [ {
          "url": "ombCategory",
          "valueCoding": {
            "system": "urn:oid:2.16.840.1.113883.6.238",
            "code": "1002-5",
            "display": "American Indian or Alaska Native",
            "userSelected": true
          }
        }, {
          "url": "text",
          "valueString": "American Indian or Alaska Native"
        } ]
      }, {
        "url": "http://hl7.org/fhir/us/core/StructureDefinition/us-core-ethnicity",
        "extension": [ {
          "url": "ombCategory",
          "valueCoding": {
            "system": "urn:oid:2.16.840.1.113883.6.238",
            "code": "2135-2",
            "display": "Hispanic or Latino",
            "userSelected": true
          }
        }, {
          "url": "text",
          "valueString": "Hispanic or Latino"
        } ]
      } ],
      "identifier": [ {
        "type": {
          "coding": [ {
            "system": "http://terminology.hl7.org/CodeSystem/v2-0203",
            "code": "MR"
          } ]
        },
        "system": "https://bonnie-fhir.healthit.gov/",
        "value": "612e6a6002c62a011f2e9dfd"
      } ],
      "active": true,
      "name": [ {
        "use": "usual",
        "family": "NUMERPass",
        "given": [ "PtRefMAInjXaDayOfAnes" ]
      } ],
      "gender": "male",
      "birthDate": "1975-01-02"
    },
    "request": {
      "method": "PUT",
      "url": "Patient/95a54d01-197e-48ef-bb48-d3d398aecbe8"
    }
  }, {
    "fullUrl": "https://madie.cms.gov/Encounter/1a83e918-2e48-4a02-8ab1-bca8fd334758",
    "resource": {
      "resourceType": "Encounter",
      "id": "1a83e918-2e48-4a02-8ab1-bca8fd334758",
      "meta": {
        "profile": [ "http://hl7.org/fhir/us/qicore/StructureDefinition/qicore-encounter" ]
      },
      "status": "finished",
      "class": {
        "system": "http://terminology.hl7.org/CodeSystem/v3-ActCode",
        "code": "IMP",
        "display": "inpatient encounter"
      },
      "type": [ {
        "coding": [ {
          "system": "http://snomed.info/sct",
          "code": "8715000"
        } ]
      } ],
      "subject": {
        "reference": "Patient/95a54d01-197e-48ef-bb48-d3d398aecbe8"
      },
      "period": {
        "start": "2026-11-01T08:00:00.000+00:00",
        "end": "2026-11-26T08:15:00.000+00:00"
      },
      "length": {
        "value": 25,
        "unit": "days"
      },
      "location": [ {
        "location": {
          "reference": "Location/cc7919b5-4f65-4018-9914-6c5c64f5ebfd"
        },
        "period": {
          "start": "2026-11-04T09:00:00.000+00:00",
          "end": "2026-11-06T08:15:00.000+00:00"
        }
      } ]
    },
    "request": {
      "method": "PUT",
      "url": "Encounter/1a83e918-2e48-4a02-8ab1-bca8fd334758"
    }
  }, {
    "fullUrl": "https://madie.cms.gov/Coverage/66d47064-a5d4-44d9-961e-4ff63333d0d1",
    "resource": {
      "resourceType": "Coverage",
      "id": "66d47064-a5d4-44d9-961e-4ff63333d0d1",
      "status": "active",
      "beneficiary": {
        "reference": "Patient/95a54d01-197e-48ef-bb48-d3d398aecbe8"
      },
      "period": {
        "start": "1975-01-02T08:00:00.000+00:00"
      },
      "payor": [ {
        "reference": "Organization/fc80838c-97fd-4b48-9d0b-701e2c4622dc"
      } ]
    },
    "request": {
      "method": "PUT",
      "url": "Coverage/66d47064-a5d4-44d9-961e-4ff63333d0d1"
    }
  }, {
    "fullUrl": "https://madie.cms.gov/MedicationAdministration/e5025c1b-7e2c-4743-b121-8dd1e5a93f0a",
    "resource": {
      "resourceType": "MedicationAdministration",
      "id": "e5025c1b-7e2c-4743-b121-8dd1e5a93f0a",
      "meta": {
        "profile": [ "http://hl7.org/fhir/us/qicore/StructureDefinition/qicore-medicationadministrationnotdone" ]
      },
      "extension": [ {
        "url": "http://hl7.org/fhir/us/qicore/StructureDefinition/qicore-recorded",
        "valueDateTime": "2026-11-02T11:00:00.000+00:00"
      } ],
      "status": "not-done",
      "statusReason": [ {
        "coding": [ {
          "system": "http://snomed.info/sct",
          "code": "443390004",
          "display": "Refusal of treatment by patient (situation)"
        } ]
      } ],
      "medicationCodeableConcept": {
        "coding": [ {
          "system": "http://www.nlm.nih.gov/research/umls/rxnorm",
          "code": "861356"
        } ]
      },
      "subject": {
        "reference": "Patient/95a54d01-197e-48ef-bb48-d3d398aecbe8"
      },
      "effectivePeriod": {
        "start": "2026-11-02T11:00:00.000+00:00"
      }
    },
    "request": {
      "method": "PUT",
      "url": "MedicationAdministration/e5025c1b-7e2c-4743-b121-8dd1e5a93f0a"
    }
  }, {
    "fullUrl": "https://madie.cms.gov/Procedure/41b4d3a0-522a-4f41-9baf-c77a6cbc908a",
    "resource": {
      "resourceType": "Procedure",
      "id": "41b4d3a0-522a-4f41-9baf-c77a6cbc908a",
      "meta": {
        "profile": [ "http://hl7.org/fhir/us/qicore/StructureDefinition/qicore-procedure" ]
      },
      "extension": [ {
        "url": "http://hl7.org/fhir/us/qicore/StructureDefinition/qicore-recorded",
        "valueDateTime": "2013-11-19T13:35:00.000+00:00"
      } ],
      "status": "completed",
      "code": {
        "coding": [ {
          "system": "http://snomed.info/sct",
          "code": "18946005"
        } ]
      },
      "subject": {
        "reference": "Patient/95a54d01-197e-48ef-bb48-d3d398aecbe8"
      },
      "performedPeriod": {
        "start": "2026-11-02T09:00:00.000+00:00",
        "end": "2026-11-02T09:15:00.000+00:00"
      }
    },
    "request": {
      "method": "PUT",
      "url": "Procedure/41b4d3a0-522a-4f41-9baf-c77a6cbc908a"
    }
  }, {
    "fullUrl": "https://madie.cms.gov/Location/cc7919b5-4f65-4018-9914-6c5c64f5ebfd",
    "resource": {
      "resourceType": "Location",
      "id": "cc7919b5-4f65-4018-9914-6c5c64f5ebfd",
      "meta": {
        "profile": [ "http://hl7.org/fhir/us/qicore/StructureDefinition/qicore-location" ]
      },
      "identifier": [ {
        "use": "usual",
        "system": "http://exampleoflocation.com",
        "value": "B1-S.F2"
      } ],
      "name": "Medical Surgical East, first floor",
      "type": [ {
        "coding": [ {
          "system": "https://www.cdc.gov/nhsn/cdaportal/terminology/codesystem/hsloc.html",
          "code": "1025-6",
          "display": "Trauma Critical Care",
          "userSelected": true
        } ]
      } ]
    },
    "request": {
      "method": "PUT",
      "url": "Location/cc7919b5-4f65-4018-9914-6c5c64f5ebfd"
    }
  }, {
    "fullUrl": "https://madie.cms.gov/Organization/fc80838c-97fd-4b48-9d0b-701e2c4622dc",
    "resource": {
      "resourceType": "Organization",
      "id": "fc80838c-97fd-4b48-9d0b-701e2c4622dc",
      "meta": {
        "profile": [ "http://hl7.org/fhir/us/qicore/StructureDefinition/qicore-organization" ]
      },
      "identifier": [ {
        "use": "temp",
        "system": "urn:oid:2.16.840.1.113883.4.4",
        "value": "21-3259825"
      } ],
      "active": true,
      "type": [ {
        "coding": [ {
          "system": "http://terminology.hl7.org/CodeSystem/organization-type",
          "code": "pay",
          "display": "Payer"
        } ]
      } ],
      "name": "Blue Cross Blue Shield of Texas",
      "telecom": [ {
        "system": "phone",
        "value": "(+1) 972-766-6900"
      } ],
      "address": [ {
        "use": "billing",
        "type": "postal",
        "line": [ "P.O. Box 660044" ],
        "city": "Dallas",
        "state": "TX",
        "postalCode": "75266-0044",
        "country": "USA"
      } ]
    },
    "request": {
      "method": "PUT",
      "url": "Organization/fc80838c-97fd-4b48-9d0b-701e2c4622dc"
    }
  }, {
    "fullUrl": "https://madie.cms.gov/Practitioner/e68e42a8-0b4a-4126-bf3d-92e53601e8bc",
    "resource": {
      "resourceType": "Practitioner",
      "id": "e68e42a8-0b4a-4126-bf3d-92e53601e8bc",
      "identifier": [ {
        "system": "http://hl7.org/fhir/sid/us-npi",
        "value": "123456"
      } ],
      "name": [ {
        "family": "Evil",
        "prefix": [ "Dr" ]
      } ]
    },
    "request": {
      "method": "PUT",
      "url": "Practitioner/e68e42a8-0b4a-4126-bf3d-92e53601e8bc"
    }
  }, {
    "fullUrl": "https://madie.cms.gov/MeasureReport/89a6d854-e283-4df7-bd78-60dfa86483cf",
    "resource": {
      "resourceType": "MeasureReport",
      "id": "89a6d854-e283-4df7-bd78-60dfa86483cf",
      "meta": {
        "profile": [ "http://hl7.org/fhir/us/cqfmeasures/StructureDefinition/test-case-cqfm" ]
      },
      "contained": [ {
        "resourceType": "Parameters",
        "id": "92c687f1-0367-4352-9816-ec929d151318-parameters",
        "parameter": [ {
          "name": "subject",
          "valueString": "95a54d01-197e-48ef-bb48-d3d398aecbe8"
        } ]
      } ],
      "extension": [ {
        "url": "http://hl7.org/fhir/StructureDefinition/cqf-inputParameters",
        "valueReference": {
          "reference": "#92c687f1-0367-4352-9816-ec929d151318-parameters"
        }
      }, {
        "url": "http://hl7.org/fhir/us/cqfmeasures/StructureDefinition/cqfm-testCaseDescription",
        "valueMarkdown": "meets IPP, meets Denominator,  Injectable Factor Xa Inhibitor adm not done PatRfsl on the day of anesthesia\n"
      } ],
      "modifierExtension": [ {
        "url": "http://hl7.org/fhir/us/cqfmeasures/StructureDefinition/cqfm-isTestCase",
        "valueBoolean": true
      } ],
      "status": "complete",
      "type": "individual",
      "measure": "https://madie.cms.gov/Measure/CMS190FHIRVTEProphylaxisICU",
      "period": {
        "start": "2026-01-01",
        "end": "2026-12-31"
      },
      "group": [ {
        "id": "Group_1",
        "population": [ {
          "id": "InitialPopulation_1",
          "code": {
            "coding": [ {
              "system": "http://terminology.hl7.org/CodeSystem/measure-population",
              "code": "initial-population",
              "display": "Initial Population"
            } ]
          },
          "count": 1
        }, {
          "id": "Denominator_1",
          "code": {
            "coding": [ {
              "system": "http://terminology.hl7.org/CodeSystem/measure-population",
              "code": "denominator",
              "display": "Denominator"
            } ]
          },
          "count": 1
        }, {
          "id": "DenominatorExclusion_1",
          "code": {
            "coding": [ {
              "system": "http://terminology.hl7.org/CodeSystem/measure-population",
              "code": "denominator-exclusion",
              "display": "Denominator Exclusion"
            } ]
          },
          "count": 0
        }, {
          "id": "Numerator_1",
          "code": {
            "coding": [ {
              "system": "http://terminology.hl7.org/CodeSystem/measure-population",
              "code": "numerator",
              "display": "Numerator"
            } ]
          },
          "count": 1
        }, {
          "id": "DenominatorException_1",
          "code": {
            "coding": [ {
              "system": "http://terminology.hl7.org/CodeSystem/measure-population",
              "code": "denominator-exception",
              "display": "Denominator Exception"
            } ]
          },
          "count": 0
        } ],
        "measureScore": {
          "value": 0.0
        }
      } ],
      "evaluatedResource": [ {
        "reference": "Patient/95a54d01-197e-48ef-bb48-d3d398aecbe8"
      }, {
        "reference": "Encounter/1a83e918-2e48-4a02-8ab1-bca8fd334758"
      }, {
        "reference": "Coverage/66d47064-a5d4-44d9-961e-4ff63333d0d1"
      }, {
        "reference": "MedicationAdministration/e5025c1b-7e2c-4743-b121-8dd1e5a93f0a"
      }, {
        "reference": "Procedure/41b4d3a0-522a-4f41-9baf-c77a6cbc908a"
      }, {
        "reference": "Location/cc7919b5-4f65-4018-9914-6c5c64f5ebfd"
      }, {
        "reference": "Organization/fc80838c-97fd-4b48-9d0b-701e2c4622dc"
      }, {
        "reference": "Practitioner/e68e42a8-0b4a-4126-bf3d-92e53601e8bc"
      } ]
    },
    "request": {
      "method": "PUT",
      "url": "MeasureReport/89a6d854-e283-4df7-bd78-60dfa86483cf"
    }
  } ]
}