{
  "resourceType": "Bundle",
  "id": "641378e54b11b147841ab8eb",
  "type": "transaction",
  "entry": [ {
    "fullUrl": "https://madie.cms.gov/Patient/ef8cde66-ab81-4a37-8cc2-6b390182b7ac",
    "resource": {
      "resourceType": "Patient",
      "id": "ef8cde66-ab81-4a37-8cc2-6b390182b7ac",
      "meta": {
        "profile": [ "http://hl7.org/fhir/us/qicore/StructureDefinition/qicore-patient" ]
      },
      "extension": [ {
        "url": "http://hl7.org/fhir/us/core/StructureDefinition/us-core-race",
        "extension": [ {
          "url": "ombCategory",
          "valueCoding": {
            "system": "urn:oid:2.16.840.1.113883.6.238",
            "code": "1002-5",
            "display": "American Indian or Alaska Native",
            "userSelected": true
          }
        }, {
          "url": "text",
          "valueString": "American Indian or Alaska Native"
        } ]
      }, {
        "url": "http://hl7.org/fhir/us/core/StructureDefinition/us-core-ethnicity",
        "extension": [ {
          "url": "ombCategory",
          "valueCoding": {
            "system": "urn:oid:2.16.840.1.113883.6.238",
            "code": "2186-5",
            "display": "Not Hispanic or Latino",
            "userSelected": true
          }
        }, {
          "url": "text",
          "valueString": "Not Hispanic or Latino"
        } ]
      } ],
      "identifier": [ {
        "type": {
          "coding": [ {
            "system": "http://terminology.hl7.org/CodeSystem/v2-0203",
            "code": "MR"
          } ]
        },
        "system": "https://bonnie-fhir.healthit.gov/",
        "value": "641378e54b11b147841ab8eb"
      } ],
      "name": [ {
        "family": "DENOMFail",
        "given": [ "OfficeVisitB4MP" ]
      } ],
      "gender": "female",
      "birthDate": "2005-07-12"
    },
    "request": {
      "method": "PUT",
      "url": "Patient/ef8cde66-ab81-4a37-8cc2-6b390182b7ac"
    }
  }, {
    "fullUrl": "https://madie.cms.gov/Condition/81d813a2-a8ac-491a-b13e-1de7dfc88e73",
    "resource": {
      "resourceType": "Condition",
      "id": "81d813a2-a8ac-491a-b13e-1de7dfc88e73",
      "meta": {
        "profile": [ "http://hl7.org/fhir/us/qicore/StructureDefinition/qicore-condition-encounter-diagnosis" ]
      },
      "clinicalStatus": {
        "coding": [ {
          "system": "http://terminology.hl7.org/CodeSystem/condition-clinical",
          "code": "active",
          "display": "active",
          "userSelected": true
        } ]
      },
      "category": [ {
        "coding": [ {
          "system": "http://terminology.hl7.org/CodeSystem/condition-category",
          "code": "encounter-diagnosis",
          "display": "Encounter Diagnosis",
          "userSelected": true
        } ]
      } ],
      "code": {
        "coding": [ {
          "system": "http://snomed.info/sct",
          "version": "2021-09",
          "code": "102781000119107",
          "display": "Sensory neuropathy due to type 1 diabetes mellitus (disorder)",
          "userSelected": true
        } ]
      },
      "subject": {
        "reference": "Patient/ef8cde66-ab81-4a37-8cc2-6b390182b7ac"
      },
      "onsetDateTime": "2026-03-16T08:00:00.000+00:00",
      "recordedDate": "2026-03-16T08:00:00.000+00:00"
    },
    "request": {
      "method": "PUT",
      "url": "Condition/81d813a2-a8ac-491a-b13e-1de7dfc88e73"
    }
  }, {
    "fullUrl": "https://madie.cms.gov/Encounter/8114a81f-34a7-43e2-a475-731431bd2672",
    "resource": {
      "resourceType": "Encounter",
      "id": "8114a81f-34a7-43e2-a475-731431bd2672",
      "meta": {
        "profile": [ "http://hl7.org/fhir/us/qicore/StructureDefinition/qicore-encounter" ]
      },
      "status": "finished",
      "class": {
        "system": "http://terminology.hl7.org/CodeSystem/v3-ActCode",
        "code": "AMB",
        "display": "ambulatory",
        "userSelected": true
      },
      "type": [ {
        "coding": [ {
          "system": "http://snomed.info/sct",
          "version": "2021-09",
          "code": "185463005",
          "display": "Visit out of hours (procedure)",
          "userSelected": true
        } ]
      } ],
      "subject": {
        "reference": "Patient/ef8cde66-ab81-4a37-8cc2-6b390182b7ac"
      },
      "period": {
        "start": "2025-11-15T08:00:00.000+00:00",
        "end": "2025-11-15T08:15:00.000+00:00"
      }
    },
    "request": {
      "method": "PUT",
      "url": "Encounter/8114a81f-34a7-43e2-a475-731431bd2672"
    }
  }, {
    "fullUrl": "https://madie.cms.gov/MeasureReport/571a2c1b-5baa-42e2-b4d3-2364f3adb335",
    "resource": {
      "resourceType": "MeasureReport",
      "id": "571a2c1b-5baa-42e2-b4d3-2364f3adb335",
      "meta": {
        "profile": [ "http://hl7.org/fhir/us/cqfmeasures/StructureDefinition/test-case-cqfm" ]
      },
      "contained": [ {
        "resourceType": "Parameters",
        "id": "8bc75c07-b03c-4f0f-a476-fd3fce759cda-parameters",
        "parameter": [ {
          "name": "subject",
          "valueString": "ef8cde66-ab81-4a37-8cc2-6b390182b7ac"
        } ]
      } ],
      "extension": [ {
        "url": "http://hl7.org/fhir/StructureDefinition/cqf-inputParameters",
        "valueReference": {
          "reference": "#8bc75c07-b03c-4f0f-a476-fd3fce759cda-parameters"
        }
      }, {
        "url": "http://hl7.org/fhir/us/cqfmeasures/StructureDefinition/cqfm-testCaseDescription",
        "valueMarkdown": "This patient is 20 years old, and with active diabetes diagnosis but no qualifying encounter. This case tests the encounter criteria of the Denom. "
      } ],
      "modifierExtension": [ {
        "url": "http://hl7.org/fhir/us/cqfmeasures/StructureDefinition/cqfm-isTestCase",
        "valueBoolean": true
      } ],
      "status": "complete",
      "type": "individual",
      "measure": "https://madie.cms.gov/Measure/CMS951FHIRKidneyHealthEval",
      "period": {
        "start": "2026-01-01",
        "end": "2026-12-31"
      },
      "group": [ {
        "id": "Group_1",
        "population": [ {
          "id": "InitialPopulation_1",
          "code": {
            "coding": [ {
              "system": "http://terminology.hl7.org/CodeSystem/measure-population",
              "code": "initial-population",
              "display": "Initial Population"
            } ]
          },
          "count": 0
        }, {
          "id": "Denominator_1",
          "code": {
            "coding": [ {
              "system": "http://terminology.hl7.org/CodeSystem/measure-population",
              "code": "denominator",
              "display": "Denominator"
            } ]
          },
          "count": 0
        }, {
          "id": "DenominatorExclusion_1",
          "code": {
            "coding": [ {
              "system": "http://terminology.hl7.org/CodeSystem/measure-population",
              "code": "denominator-exclusion",
              "display": "Denominator Exclusion"
            } ]
          },
          "count": 0
        }, {
          "id": "Numerator_1",
          "code": {
            "coding": [ {
              "system": "http://terminology.hl7.org/CodeSystem/measure-population",
              "code": "numerator",
              "display": "Numerator"
            } ]
          },
          "count": 0
        } ],
        "measureScore": {
          "value": 1.0
        }
      } ],
      "evaluatedResource": [ {
        "reference": "Patient/ef8cde66-ab81-4a37-8cc2-6b390182b7ac"
      }, {
        "reference": "Condition/81d813a2-a8ac-491a-b13e-1de7dfc88e73"
      }, {
        "reference": "Encounter/8114a81f-34a7-43e2-a475-731431bd2672"
      } ]
    },
    "request": {
      "method": "PUT",
      "url": "MeasureReport/571a2c1b-5baa-42e2-b4d3-2364f3adb335"
    }
  } ]
}