{
  "resourceType": "Bundle",
  "id": "62c880ec0111a60120dc2203",
  "type": "transaction",
  "entry": [ {
    "fullUrl": "https://madie.cms.gov/Patient/ea08cba3-e556-496e-8aab-3b1e6f58fda0",
    "resource": {
      "resourceType": "Patient",
      "id": "ea08cba3-e556-496e-8aab-3b1e6f58fda0",
      "meta": {
        "profile": [ "http://hl7.org/fhir/us/qicore/StructureDefinition/qicore-patient" ]
      },
      "text": {
        "status": "generated",
        "div": "<div xmlns=\"http://www.w3.org/1999/xhtml\"><div class=\"hapiHeaderText\">NoChemoPriorEnc<b>IPPFailPop1</b></div><table class=\"hapiPropertyTable\"><tbody><tr><td>Identifier</td><td>ff3925b673f4a036a257dd80aff86021</td></tr><tr><td>Date of birth</td><td><span>16 July 1956</span></td></tr></tbody></table></div>"
      },
      "extension": [ {
        "url": "http://hl7.org/fhir/us/core/StructureDefinition/us-core-race",
        "extension": [ {
          "url": "ombCategory",
          "valueCoding": {
            "system": "urn:oid:2.16.840.1.113883.6.238",
            "code": "1002-5",
            "display": "American Indian or Alaska Native",
            "userSelected": true
          }
        }, {
          "url": "text",
          "valueString": "American Indian or Alaska Native"
        } ]
      }, {
        "url": "http://hl7.org/fhir/us/core/StructureDefinition/us-core-ethnicity",
        "extension": [ {
          "url": "ombCategory",
          "valueCoding": {
            "system": "urn:oid:2.16.840.1.113883.6.238",
            "code": "2135-2",
            "display": "Hispanic or Latino",
            "userSelected": true
          }
        }, {
          "url": "text",
          "valueString": "Hispanic or Latino"
        } ]
      } ],
      "identifier": [ {
        "type": {
          "coding": [ {
            "system": "http://terminology.hl7.org/CodeSystem/v2-0203",
            "code": "MR"
          } ]
        },
        "system": "https://bonnie-fhir.healthit.gov/",
        "value": "62c880ec0111a60120dc2203"
      } ],
      "active": true,
      "name": [ {
        "use": "usual",
        "family": "IPPFailPop1",
        "given": [ "NoChemoPriorEnc" ]
      } ],
      "gender": "male",
      "birthDate": "1957-07-16"
    },
    "request": {
      "method": "PUT",
      "url": "Patient/ea08cba3-e556-496e-8aab-3b1e6f58fda0"
    }
  }, {
    "fullUrl": "https://madie.cms.gov/Condition/a5fec687-c2bb-4bc7-aed1-0d4dd9b69080",
    "resource": {
      "resourceType": "Condition",
      "id": "a5fec687-c2bb-4bc7-aed1-0d4dd9b69080",
      "meta": {
        "profile": [ "http://hl7.org/fhir/us/qicore/StructureDefinition/qicore-condition" ]
      },
      "clinicalStatus": {
        "coding": [ {
          "system": "http://terminology.hl7.org/CodeSystem/condition-clinical",
          "code": "remission",
          "display": "remission"
        } ]
      },
      "verificationStatus": {
        "coding": [ {
          "system": "http://terminology.hl7.org/CodeSystem/condition-ver-status",
          "code": "confirmed",
          "display": "Confirmed"
        } ]
      },
      "category": [ {
        "coding": [ {
          "system": "http://terminology.hl7.org/CodeSystem/condition-category",
          "code": "problem-list-item",
          "display": "Problem List Item"
        } ]
      } ],
      "code": {
        "coding": [ {
          "system": "http://snomed.info/sct",
          "code": "423746001"
        } ]
      },
      "subject": {
        "reference": "Patient/ea08cba3-e556-496e-8aab-3b1e6f58fda0"
      },
      "onsetDateTime": "2022-06-27T13:40:00.000+00:00",
      "abatementDateTime": "2026-03-27T13:40:00.000+00:00"
    },
    "request": {
      "method": "PUT",
      "url": "Condition/a5fec687-c2bb-4bc7-aed1-0d4dd9b69080"
    }
  }, {
    "fullUrl": "https://madie.cms.gov/Encounter/34d6439a-09f5-49ff-9748-658a4ffa8395",
    "resource": {
      "resourceType": "Encounter",
      "id": "34d6439a-09f5-49ff-9748-658a4ffa8395",
      "meta": {
        "profile": [ "http://hl7.org/fhir/us/qicore/StructureDefinition/qicore-encounter" ]
      },
      "status": "finished",
      "class": {
        "system": "http://terminology.hl7.org/CodeSystem/v3-ActCode",
        "code": "AMB",
        "display": "ambulatory",
        "userSelected": true
      },
      "type": [ {
        "coding": [ {
          "system": "http://snomed.info/sct",
          "code": "185463005"
        } ]
      } ],
      "subject": {
        "reference": "Patient/ea08cba3-e556-496e-8aab-3b1e6f58fda0"
      },
      "period": {
        "start": "2026-03-27T13:40:00.000+00:00",
        "end": "2026-03-27T13:40:00.000+00:00"
      }
    },
    "request": {
      "method": "PUT",
      "url": "Encounter/34d6439a-09f5-49ff-9748-658a4ffa8395"
    }
  }, {
    "fullUrl": "https://madie.cms.gov/Coverage/7557fb4c-8a81-4689-828e-065f878cace2",
    "resource": {
      "resourceType": "Coverage",
      "id": "7557fb4c-8a81-4689-828e-065f878cace2",
      "meta": {
        "profile": [ "http://hl7.org/fhir/us/qicore/StructureDefinition/qicore-coverage" ]
      },
      "status": "active",
      "beneficiary": {
        "reference": "Patient/ea08cba3-e556-496e-8aab-3b1e6f58fda0"
      },
      "period": {
        "start": "1957-07-16T08:00:00.000+00:00"
      },
      "payor": [ {
        "reference": "Organization/f1228e5c-fab8-499b-a2d5-9bf123d1361b"
      } ]
    },
    "request": {
      "method": "PUT",
      "url": "Coverage/7557fb4c-8a81-4689-828e-065f878cace2"
    }
  }, {
    "fullUrl": "https://madie.cms.gov/Procedure/ef8663fe-5081-48b4-a871-1a48ec39d85c",
    "resource": {
      "resourceType": "Procedure",
      "id": "ef8663fe-5081-48b4-a871-1a48ec39d85c",
      "meta": {
        "profile": [ "http://hl7.org/fhir/us/qicore/StructureDefinition/qicore-procedure" ]
      },
      "extension": [ {
        "url": "http://hl7.org/fhir/us/qicore/StructureDefinition/qicore-recorded",
        "valueDateTime": "2026-03-28T13:45:00.000+00:00"
      } ],
      "status": "completed",
      "code": {
        "coding": [ {
          "system": "http://snomed.info/sct",
          "code": "169396008"
        } ]
      },
      "subject": {
        "reference": "Patient/ea08cba3-e556-496e-8aab-3b1e6f58fda0"
      },
      "performedPeriod": {
        "start": "2026-03-28T13:40:00.000+00:00",
        "end": "2026-03-28T13:40:00.000+00:00"
      }
    },
    "request": {
      "method": "PUT",
      "url": "Procedure/ef8663fe-5081-48b4-a871-1a48ec39d85c"
    }
  }, {
    "fullUrl": "https://madie.cms.gov/Procedure/5c0dc6c8-cb93-4de1-bf73-47684542ba0f",
    "resource": {
      "resourceType": "Procedure",
      "id": "5c0dc6c8-cb93-4de1-bf73-47684542ba0f",
      "meta": {
        "profile": [ "http://hl7.org/fhir/us/qicore/StructureDefinition/qicore-procedure" ]
      },
      "extension": [ {
        "url": "http://hl7.org/fhir/us/qicore/StructureDefinition/qicore-recorded",
        "valueDateTime": "2026-04-03T15:55:00.000+00:00"
      } ],
      "status": "completed",
      "code": {
        "coding": [ {
          "system": "http://snomed.info/sct",
          "code": "84755001"
        } ]
      },
      "subject": {
        "reference": "Patient/ea08cba3-e556-496e-8aab-3b1e6f58fda0"
      },
      "performedPeriod": {
        "start": "2026-04-03T15:50:00.000+00:00",
        "end": "2026-04-03T15:50:00.000+00:00"
      }
    },
    "request": {
      "method": "PUT",
      "url": "Procedure/5c0dc6c8-cb93-4de1-bf73-47684542ba0f"
    }
  }, {
    "fullUrl": "https://madie.cms.gov/Organization/f1228e5c-fab8-499b-a2d5-9bf123d1361b",
    "resource": {
      "resourceType": "Organization",
      "id": "f1228e5c-fab8-499b-a2d5-9bf123d1361b",
      "meta": {
        "profile": [ "http://hl7.org/fhir/us/qicore/StructureDefinition/qicore-organization" ]
      },
      "identifier": [ {
        "use": "temp",
        "system": "urn:oid:2.16.840.1.113883.4.4",
        "value": "21-3259825"
      } ],
      "active": true,
      "type": [ {
        "coding": [ {
          "system": "http://terminology.hl7.org/CodeSystem/organization-type",
          "code": "pay",
          "display": "Payer"
        } ]
      } ],
      "name": "Blue Cross Blue Shield of Texas",
      "telecom": [ {
        "system": "phone",
        "value": "(+1) 972-766-6900"
      } ],
      "address": [ {
        "use": "billing",
        "type": "postal",
        "line": [ "P.O. Box 660044" ],
        "city": "Dallas",
        "state": "TX",
        "postalCode": "75266-0044",
        "country": "USA"
      } ]
    },
    "request": {
      "method": "PUT",
      "url": "Organization/f1228e5c-fab8-499b-a2d5-9bf123d1361b"
    }
  }, {
    "fullUrl": "https://madie.cms.gov/Practitioner/613926f9-1673-4f92-8d35-a2edde72d02a",
    "resource": {
      "resourceType": "Practitioner",
      "id": "613926f9-1673-4f92-8d35-a2edde72d02a",
      "meta": {
        "profile": [ "http://hl7.org/fhir/us/qicore/StructureDefinition/qicore-practitioner" ]
      },
      "identifier": [ {
        "system": "http://hl7.org/fhir/sid/us-npi",
        "value": "123456"
      } ],
      "name": [ {
        "family": "Evil",
        "prefix": [ "Dr" ]
      } ]
    },
    "request": {
      "method": "PUT",
      "url": "Practitioner/613926f9-1673-4f92-8d35-a2edde72d02a"
    }
  }, {
    "fullUrl": "https://madie.cms.gov/MeasureReport/c082a8ac-a36e-4352-9a24-97b366480e90",
    "resource": {
      "resourceType": "MeasureReport",
      "id": "c082a8ac-a36e-4352-9a24-97b366480e90",
      "meta": {
        "profile": [ "http://hl7.org/fhir/us/cqfmeasures/StructureDefinition/test-case-cqfm" ]
      },
      "contained": [ {
        "resourceType": "Parameters",
        "id": "e866fdbd-485c-4e05-8aea-549f1defabb7-parameters",
        "parameter": [ {
          "name": "subject",
          "valueString": "ea08cba3-e556-496e-8aab-3b1e6f58fda0"
        } ]
      } ],
      "extension": [ {
        "url": "http://hl7.org/fhir/StructureDefinition/cqf-inputParameters",
        "valueReference": {
          "reference": "#e866fdbd-485c-4e05-8aea-549f1defabb7-parameters"
        }
      }, {
        "url": "http://hl7.org/fhir/us/cqfmeasures/StructureDefinition/cqfm-testCaseDescription",
        "valueMarkdown": "Patient with cancer diagnosis ending at the start of the office visit during the measurement period. No chemotherapy administered prior to the office visit. \n"
      } ],
      "modifierExtension": [ {
        "url": "http://hl7.org/fhir/us/cqfmeasures/StructureDefinition/cqfm-isTestCase",
        "valueBoolean": true
      } ],
      "status": "complete",
      "type": "individual",
      "measure": "https://madie.cms.gov/Measure/CMS157FHIRPainIntensityQuantified",
      "period": {
        "start": "2026-01-01",
        "end": "2026-12-31"
      },
      "group": [ {
        "id": "Group_1",
        "population": [ {
          "id": "InitialPopulation_1",
          "code": {
            "coding": [ {
              "system": "http://terminology.hl7.org/CodeSystem/measure-population",
              "code": "initial-population",
              "display": "Initial Population"
            } ]
          },
          "count": 0
        }, {
          "id": "Denominator_1",
          "code": {
            "coding": [ {
              "system": "http://terminology.hl7.org/CodeSystem/measure-population",
              "code": "denominator",
              "display": "Denominator"
            } ]
          },
          "count": 0
        }, {
          "id": "Numerator_1",
          "code": {
            "coding": [ {
              "system": "http://terminology.hl7.org/CodeSystem/measure-population",
              "code": "numerator",
              "display": "Numerator"
            } ]
          },
          "count": 0
        } ],
        "measureScore": {
          "value": 0.0
        }
      }, {
        "id": "Group_2",
        "population": [ {
          "id": "InitialPopulation_2",
          "code": {
            "coding": [ {
              "system": "http://terminology.hl7.org/CodeSystem/measure-population",
              "code": "initial-population",
              "display": "Initial Population"
            } ]
          },
          "count": 0
        }, {
          "id": "Denominator_2",
          "code": {
            "coding": [ {
              "system": "http://terminology.hl7.org/CodeSystem/measure-population",
              "code": "denominator",
              "display": "Denominator"
            } ]
          },
          "count": 0
        }, {
          "id": "Numerator_2",
          "code": {
            "coding": [ {
              "system": "http://terminology.hl7.org/CodeSystem/measure-population",
              "code": "numerator",
              "display": "Numerator"
            } ]
          },
          "count": 0
        } ],
        "measureScore": {
          "value": 0.0
        }
      } ],
      "evaluatedResource": [ {
        "reference": "Patient/ea08cba3-e556-496e-8aab-3b1e6f58fda0"
      }, {
        "reference": "Condition/a5fec687-c2bb-4bc7-aed1-0d4dd9b69080"
      }, {
        "reference": "Encounter/34d6439a-09f5-49ff-9748-658a4ffa8395"
      }, {
        "reference": "Coverage/7557fb4c-8a81-4689-828e-065f878cace2"
      }, {
        "reference": "Procedure/ef8663fe-5081-48b4-a871-1a48ec39d85c"
      }, {
        "reference": "Procedure/5c0dc6c8-cb93-4de1-bf73-47684542ba0f"
      }, {
        "reference": "Organization/f1228e5c-fab8-499b-a2d5-9bf123d1361b"
      }, {
        "reference": "Practitioner/613926f9-1673-4f92-8d35-a2edde72d02a"
      } ]
    },
    "request": {
      "method": "PUT",
      "url": "MeasureReport/c082a8ac-a36e-4352-9a24-97b366480e90"
    }
  } ]
}