{
  "resourceType": "Bundle",
  "id": "Patient-32-NUMPass-LabA1cNoResultInMP",
  "type": "transaction",
  "entry": [ {
    "fullUrl": "https://madie.cms.gov/Patient/ab29ab81-b4fc-4817-bd9c-98d8d4b4a3a3",
    "resource": {
      "resourceType": "Patient",
      "id": "ab29ab81-b4fc-4817-bd9c-98d8d4b4a3a3",
      "meta": {
        "profile": [ "http://hl7.org/fhir/us/qicore/StructureDefinition/qicore-patient" ]
      },
      "extension": [ {
        "url": "http://hl7.org/fhir/us/core/StructureDefinition/us-core-race",
        "extension": [ {
          "url": "ombCategory",
          "valueCoding": {
            "system": "urn:oid:2.16.840.1.113883.6.238",
            "code": "2028-9",
            "display": "Asian"
          }
        }, {
          "url": "text",
          "valueString": "Asian"
        } ]
      }, {
        "url": "http://hl7.org/fhir/us/core/StructureDefinition/us-core-ethnicity",
        "extension": [ {
          "url": "ombCategory",
          "valueCoding": {
            "system": "urn:oid:2.16.840.1.113883.6.238",
            "code": "2135-2",
            "display": "Hispanic or Latino"
          }
        }, {
          "url": "text",
          "valueString": "Hispanic or Latino"
        } ]
      } ],
      "identifier": [ {
        "system": "http://hospital.smarthealthit.org",
        "value": "999999995"
      } ],
      "name": [ {
        "family": "Bertha",
        "given": [ "Betty" ]
      } ],
      "gender": "female",
      "birthDate": "2008-01-01"
    },
    "request": {
      "method": "PUT",
      "url": "Patient/ab29ab81-b4fc-4817-bd9c-98d8d4b4a3a3"
    }
  }, {
    "fullUrl": "https://madie.cms.gov/Encounter/c08fe3e4-850f-493a-958b-1f9b737ed22c",
    "resource": {
      "resourceType": "Encounter",
      "id": "c08fe3e4-850f-493a-958b-1f9b737ed22c",
      "meta": {
        "profile": [ "http://hl7.org/fhir/us/qicore/StructureDefinition/qicore-encounter" ]
      },
      "status": "finished",
      "class": {
        "system": "http://terminology.hl7.org/CodeSystem/v3-ActCode",
        "code": "AMB",
        "display": "ambulatory"
      },
      "type": [ {
        "coding": [ {
          "system": "http://snomed.info/sct",
          "code": "185460008",
          "display": "Home visit request by patient (procedure)"
        } ]
      } ],
      "subject": {
        "reference": "Patient/ab29ab81-b4fc-4817-bd9c-98d8d4b4a3a3"
      },
      "period": {
        "start": "2026-01-01T00:00:00.000+00:00",
        "end": "2026-01-01T00:15:00.000+00:00"
      }
    },
    "request": {
      "method": "PUT",
      "url": "Encounter/c08fe3e4-850f-493a-958b-1f9b737ed22c"
    }
  }, {
    "fullUrl": "https://madie.cms.gov/Condition/d3d89ed6-30ec-4c53-a656-6d6bde539b0f",
    "resource": {
      "resourceType": "Condition",
      "id": "d3d89ed6-30ec-4c53-a656-6d6bde539b0f",
      "meta": {
        "profile": [ "http://hl7.org/fhir/us/qicore/StructureDefinition/qicore-condition-encounter-diagnosis" ]
      },
      "clinicalStatus": {
        "coding": [ {
          "system": "http://terminology.hl7.org/CodeSystem/condition-clinical",
          "code": "active"
        } ]
      },
      "category": [ {
        "coding": [ {
          "system": "http://terminology.hl7.org/CodeSystem/condition-category",
          "code": "encounter-diagnosis",
          "display": "Encounter Diagnosis"
        } ]
      } ],
      "code": {
        "coding": [ {
          "system": "http://snomed.info/sct",
          "code": "102781000119107",
          "display": "Sensory neuropathy due to type 1 diabetes mellitus (disorder)"
        } ]
      },
      "subject": {
        "reference": "Patient/ab29ab81-b4fc-4817-bd9c-98d8d4b4a3a3"
      },
      "onsetDateTime": "2026-01-01T23:59:00.000+00:00"
    },
    "request": {
      "method": "PUT",
      "url": "Condition/d3d89ed6-30ec-4c53-a656-6d6bde539b0f"
    }
  }, {
    "fullUrl": "https://madie.cms.gov/Observation/f1d5808b-2bcc-439a-b23b-f234869ea0af",
    "resource": {
      "resourceType": "Observation",
      "id": "f1d5808b-2bcc-439a-b23b-f234869ea0af",
      "meta": {
        "profile": [ "http://hl7.org/fhir/us/qicore/StructureDefinition/qicore-observation-screening-assessment" ]
      },
      "status": "corrected",
      "category": [ {
        "coding": [ {
          "system": "http://terminology.hl7.org/CodeSystem/observation-category",
          "code": "survey"
        } ]
      } ],
      "code": {
        "coding": [ {
          "system": "http://loinc.org",
          "code": "17855-8",
          "display": "Hemoglobin A1c/Hemoglobin.total in Blood by calculation"
        } ]
      },
      "subject": {
        "reference": "Patient/ab29ab81-b4fc-4817-bd9c-98d8d4b4a3a3"
      },
      "effectivePeriod": {
        "start": "2026-01-01T00:00:00.000+00:00",
        "end": "2026-01-01T00:15:00.000+00:00"
      },
      "dataAbsentReason": {
        "extension": [ {
          "url": "http://hl7.org/fhir/StructureDefinition/data-absent-reason",
          "valueCode": "unknown"
        } ]
      }
    },
    "request": {
      "method": "PUT",
      "url": "Observation/f1d5808b-2bcc-439a-b23b-f234869ea0af"
    }
  }, {
    "fullUrl": "https://madie.cms.gov/MeasureReport/c64e003c-7703-4a6c-85cd-8907e9037fdb",
    "resource": {
      "resourceType": "MeasureReport",
      "id": "c64e003c-7703-4a6c-85cd-8907e9037fdb",
      "meta": {
        "profile": [ "http://hl7.org/fhir/us/cqfmeasures/StructureDefinition/test-case-cqfm" ]
      },
      "contained": [ {
        "resourceType": "Parameters",
        "id": "84437328-d924-401a-bb97-ad9f909ccb74-parameters",
        "parameter": [ {
          "name": "subject",
          "valueString": "ab29ab81-b4fc-4817-bd9c-98d8d4b4a3a3"
        } ]
      } ],
      "extension": [ {
        "url": "http://hl7.org/fhir/StructureDefinition/cqf-inputParameters",
        "valueReference": {
          "reference": "#84437328-d924-401a-bb97-ad9f909ccb74-parameters"
        }
      }, {
        "url": "http://hl7.org/fhir/us/cqfmeasures/StructureDefinition/cqfm-testCaseDescription",
        "valueMarkdown": "HbA1c Lab done with no result in the MP"
      } ],
      "modifierExtension": [ {
        "url": "http://hl7.org/fhir/us/cqfmeasures/StructureDefinition/cqfm-isTestCase",
        "valueBoolean": true
      } ],
      "status": "complete",
      "type": "individual",
      "measure": "https://madie.cms.gov/Measure/CMS122FHIRDiabetesAssessGT9Pct",
      "period": {
        "start": "2026-01-01",
        "end": "2026-12-31"
      },
      "group": [ {
        "id": "Group_1",
        "population": [ {
          "id": "InitialPopulation_1",
          "code": {
            "coding": [ {
              "system": "http://terminology.hl7.org/CodeSystem/measure-population",
              "code": "initial-population",
              "display": "Initial Population"
            } ]
          },
          "count": 1
        }, {
          "id": "Denominator_1",
          "code": {
            "coding": [ {
              "system": "http://terminology.hl7.org/CodeSystem/measure-population",
              "code": "denominator",
              "display": "Denominator"
            } ]
          },
          "count": 1
        }, {
          "id": "DenominatorExclusion_1",
          "code": {
            "coding": [ {
              "system": "http://terminology.hl7.org/CodeSystem/measure-population",
              "code": "denominator-exclusion",
              "display": "Denominator Exclusion"
            } ]
          },
          "count": 0
        }, {
          "id": "Numerator_1",
          "code": {
            "coding": [ {
              "system": "http://terminology.hl7.org/CodeSystem/measure-population",
              "code": "numerator",
              "display": "Numerator"
            } ]
          },
          "count": 1
        } ],
        "measureScore": {
          "value": 1.0
        }
      } ],
      "evaluatedResource": [ {
        "reference": "Patient/ab29ab81-b4fc-4817-bd9c-98d8d4b4a3a3"
      }, {
        "reference": "Encounter/c08fe3e4-850f-493a-958b-1f9b737ed22c"
      }, {
        "reference": "Condition/d3d89ed6-30ec-4c53-a656-6d6bde539b0f"
      }, {
        "reference": "Observation/f1d5808b-2bcc-439a-b23b-f234869ea0af"
      } ]
    },
    "request": {
      "method": "PUT",
      "url": "MeasureReport/c64e003c-7703-4a6c-85cd-8907e9037fdb"
    }
  } ]
}