{
  "resourceType": "Bundle",
  "id": "60f82c2f98086b570510e2b8",
  "type": "transaction",
  "entry": [ {
    "fullUrl": "https://madie.cms.gov/Patient/ab28178c-eadb-41a3-861e-ee22c8f12d16",
    "resource": {
      "resourceType": "Patient",
      "id": "ab28178c-eadb-41a3-861e-ee22c8f12d16",
      "meta": {
        "profile": [ "http://hl7.org/fhir/us/qicore/StructureDefinition/qicore-patient" ]
      },
      "text": {
        "status": "generated",
        "div": "<div xmlns=\"http://www.w3.org/1999/xhtml\"><div class=\"hapiHeaderText\">PharmContraDayOfObs_ED&lt;1hrObs&gt;1hrDayOfBFEncDayAft <b>DENEXCEPFAIL </b></div><table class=\"hapiPropertyTable\"><tbody><tr><td>Identifier</td><td>4cbac458cf08bb3745514cbd98fe57985e238b54828068b187ed271a02fb3bed</td></tr><tr><td>Date of birth</td><td><span>26 September 1975</span></td></tr></tbody></table></div>"
      },
      "extension": [ {
        "url": "http://hl7.org/fhir/us/core/StructureDefinition/us-core-race",
        "extension": [ {
          "url": "ombCategory",
          "valueCoding": {
            "system": "urn:oid:2.16.840.1.113883.6.238",
            "code": "2054-5",
            "display": "Black or African American",
            "userSelected": true
          }
        }, {
          "url": "text",
          "valueString": "Black or African American"
        } ]
      }, {
        "url": "http://hl7.org/fhir/us/core/StructureDefinition/us-core-ethnicity",
        "extension": [ {
          "url": "ombCategory",
          "valueCoding": {
            "system": "urn:oid:2.16.840.1.113883.6.238",
            "code": "2186-5",
            "display": "Not Hispanic or Latino",
            "userSelected": true
          }
        }, {
          "url": "text",
          "valueString": "Not Hispanic or Latino"
        } ]
      } ],
      "identifier": [ {
        "type": {
          "coding": [ {
            "system": "http://terminology.hl7.org/CodeSystem/v2-0203",
            "code": "MR"
          } ]
        },
        "system": "https://bonnie-fhir.healthit.gov/",
        "value": "60f82c2f98086b570510e2b8"
      } ],
      "active": true,
      "name": [ {
        "use": "usual",
        "family": "DENEXCEPFail",
        "given": [ "PharmContraDayOfObs_ED<1hrObs>1hrDayOfBFEncDayAft" ]
      } ],
      "gender": "female",
      "birthDate": "1976-09-26"
    },
    "request": {
      "method": "PUT",
      "url": "Patient/ab28178c-eadb-41a3-861e-ee22c8f12d16"
    }
  }, {
    "fullUrl": "https://madie.cms.gov/Encounter/d4908405-d5f8-4b14-9931-c7d44b800a83",
    "resource": {
      "resourceType": "Encounter",
      "id": "d4908405-d5f8-4b14-9931-c7d44b800a83",
      "meta": {
        "profile": [ "http://hl7.org/fhir/us/qicore/StructureDefinition/qicore-encounter" ]
      },
      "status": "finished",
      "class": {
        "system": "http://terminology.hl7.org/CodeSystem/v3-ActCode",
        "code": "EMER",
        "display": "emergency",
        "userSelected": true
      },
      "type": [ {
        "coding": [ {
          "system": "http://snomed.info/sct",
          "code": "4525004"
        } ]
      } ],
      "subject": {
        "reference": "Patient/ab28178c-eadb-41a3-861e-ee22c8f12d16"
      },
      "period": {
        "start": "2026-10-10T09:00:00.000+00:00",
        "end": "2026-10-10T09:15:00.000+00:00"
      },
      "length": {
        "value": 0,
        "unit": "days"
      }
    },
    "request": {
      "method": "PUT",
      "url": "Encounter/d4908405-d5f8-4b14-9931-c7d44b800a83"
    }
  }, {
    "fullUrl": "https://madie.cms.gov/Encounter/da4df264-beeb-45c8-9419-bf40da4a68d5",
    "resource": {
      "resourceType": "Encounter",
      "id": "da4df264-beeb-45c8-9419-bf40da4a68d5",
      "meta": {
        "profile": [ "http://hl7.org/fhir/us/qicore/StructureDefinition/qicore-encounter" ]
      },
      "status": "finished",
      "class": {
        "system": "http://terminology.hl7.org/CodeSystem/v3-ActCode",
        "code": "OBSENC",
        "display": "observation encounter",
        "userSelected": true
      },
      "type": [ {
        "coding": [ {
          "system": "http://snomed.info/sct",
          "code": "448851000124103"
        } ]
      } ],
      "subject": {
        "reference": "Patient/ab28178c-eadb-41a3-861e-ee22c8f12d16"
      },
      "period": {
        "start": "2026-10-10T09:16:00.000+00:00",
        "end": "2026-10-10T22:59:00.000+00:00"
      },
      "length": {
        "value": 0,
        "unit": "days"
      }
    },
    "request": {
      "method": "PUT",
      "url": "Encounter/da4df264-beeb-45c8-9419-bf40da4a68d5"
    }
  }, {
    "fullUrl": "https://madie.cms.gov/Encounter/dfb0fae7-d4c2-43d5-a212-51729a090415",
    "resource": {
      "resourceType": "Encounter",
      "id": "dfb0fae7-d4c2-43d5-a212-51729a090415",
      "meta": {
        "profile": [ "http://hl7.org/fhir/us/qicore/StructureDefinition/qicore-encounter" ]
      },
      "status": "finished",
      "class": {
        "system": "http://terminology.hl7.org/CodeSystem/v3-ActCode",
        "code": "IMP",
        "display": "inpatient encounter",
        "userSelected": true
      },
      "type": [ {
        "coding": [ {
          "system": "http://snomed.info/sct",
          "code": "32485007"
        } ]
      } ],
      "subject": {
        "reference": "Patient/ab28178c-eadb-41a3-861e-ee22c8f12d16"
      },
      "period": {
        "start": "2026-10-11T00:00:00.000+00:00",
        "end": "2026-10-15T11:15:00.000+00:00"
      },
      "length": {
        "value": 4,
        "unit": "days"
      },
      "reasonReference": [ {
        "reference": "Condition/b126781c-98e8-41cf-839e-c0b370bb59ff"
      } ]
    },
    "request": {
      "method": "PUT",
      "url": "Encounter/dfb0fae7-d4c2-43d5-a212-51729a090415"
    }
  }, {
    "fullUrl": "https://madie.cms.gov/claim/5ca62962b8484628b8de1ec5",
    "resource": {
      "resourceType": "Claim",
      "id": "5ca62962b8484628b8de1ec5",
      "meta": {
        "profile": [ "http://hl7.org/fhir/us/qicore/StructureDefinition/qicore-claim" ]
      },
      "status": "active",
      "type": {
        "coding": [ {
          "system": "http://terminology.hl7.org/CodeSystem/claim-type",
          "code": "institutional"
        } ]
      },
      "use": "claim",
      "patient": {
        "reference": "Patient/d170a0a8-b5ad-4303-b6df-e304dd5f92ad"
      },
      "created": "2026-12-01",
      "provider": {
        "reference": "Practitioner/practitioner-123456"
      },
      "priority": {
        "coding": [ {
          "system": "http://terminology.hl7.org/CodeSystem/processpriority",
          "code": "normal"
        } ]
      },
      "diagnosis": [ {
        "sequence": 1,
        "diagnosisCodeableConcept": {
          "coding": [ {
            "system": "http://hl7.org/fhir/sid/icd-10-cm",
            "code": "I63.00"
          } ]
        },
        "type": [ {
          "coding": [ {
            "system": "http://terminology.hl7.org/CodeSystem/ex-diagnosistype",
            "code": "principal"
          } ]
        } ]
      } ],
      "insurance": [ {
        "sequence": 1,
        "focal": true,
        "coverage": {
          "reference": "Coverage/5fa041661c76ba66d9959367"
        }
      } ],
      "item": [ {
        "sequence": 1,
        "diagnosisSequence": [ 1 ],
        "productOrService": {
          "coding": [ {
            "system": "http://terminology.hl7.org/CodeSystem/ex-USCLS",
            "code": "99555"
          } ]
        },
        "encounter": [ {
          "reference": "Encounter/dfb0fae7-d4c2-43d5-a212-51729a090415"
        } ]
      } ]
    },
    "request": {
      "method": "PUT",
      "url": "Claim/5ca62962b8484628b8de1ec5"
    }
  }, {
    "fullUrl": "https://madie.cms.gov/MedicationAdministration/171d9d8a-b5a1-4d40-9a48-069ecdd315fd",
    "resource": {
      "resourceType": "MedicationAdministration",
      "id": "171d9d8a-b5a1-4d40-9a48-069ecdd315fd",
      "meta": {
        "profile": [ "http://hl7.org/fhir/us/qicore/StructureDefinition/qicore-medicationadministrationnotdone" ]
      },
      "status": "completed",
      "medicationCodeableConcept": {
        "coding": [ {
          "system": "http://www.nlm.nih.gov/research/umls/rxnorm",
          "code": "1116635"
        } ]
      },
      "subject": {
        "reference": "Patient/ab28178c-eadb-41a3-861e-ee22c8f12d16"
      },
      "effectivePeriod": {
        "start": "2026-10-10T22:59:00.000+00:00"
      }
    },
    "request": {
      "method": "PUT",
      "url": "MedicationAdministration/171d9d8a-b5a1-4d40-9a48-069ecdd315fd"
    }
  }, {
    "fullUrl": "https://madie.cms.gov/Coverage/208835f1-fdfd-49cf-ae57-cc6f060cf24a",
    "resource": {
      "resourceType": "Coverage",
      "id": "208835f1-fdfd-49cf-ae57-cc6f060cf24a",
      "status": "active",
      "subscriberId": "523435",
      "beneficiary": {
        "reference": "Patient/ab28178c-eadb-41a3-861e-ee22c8f12d16"
      },
      "relationship": {
        "coding": [ {
          "system": "http://terminology.hl7.org/CodeSystem/subscriber-relationship",
          "code": "self"
        } ]
      },
      "period": {
        "start": "1976-09-26T08:00:00.000+00:00"
      },
      "payor": [ {
        "reference": "Organization/414930c9-af25-4f2b-973a-4fa1c21732b1"
      } ]
    },
    "request": {
      "method": "PUT",
      "url": "Coverage/208835f1-fdfd-49cf-ae57-cc6f060cf24a"
    }
  }, {
    "fullUrl": "https://madie.cms.gov/Condition/b126781c-98e8-41cf-839e-c0b370bb59ff",
    "resource": {
      "resourceType": "Condition",
      "id": "b126781c-98e8-41cf-839e-c0b370bb59ff",
      "meta": {
        "profile": [ "http://hl7.org/fhir/us/qicore/StructureDefinition/qicore-condition-encounter-diagnosis" ]
      },
      "clinicalStatus": {
        "coding": [ {
          "system": "http://terminology.hl7.org/CodeSystem/condition-clinical",
          "code": "active"
        } ]
      },
      "verificationStatus": {
        "coding": [ {
          "system": "http://terminology.hl7.org/CodeSystem/condition-ver-status",
          "code": "confirmed"
        } ]
      },
      "category": [ {
        "coding": [ {
          "system": "http://terminology.hl7.org/CodeSystem/condition-category",
          "code": "encounter-diagnosis",
          "display": "Encounter Diagnosis"
        } ]
      } ],
      "code": {
        "coding": [ {
          "system": "http://snomed.info/sct",
          "version": "2020-09",
          "code": "111297002",
          "display": "Nonparalytic stroke (disorder)",
          "userSelected": true
        } ]
      },
      "subject": {
        "reference": "Patient/ab28178c-eadb-41a3-861e-ee22c8f12d16"
      },
      "recordedDate": "2026-08-03T08:00:00.000+00:00"
    },
    "request": {
      "method": "PUT",
      "url": "Condition/b126781c-98e8-41cf-839e-c0b370bb59ff"
    }
  }, {
    "fullUrl": "https://madie.cms.gov/Organization/414930c9-af25-4f2b-973a-4fa1c21732b1",
    "resource": {
      "resourceType": "Organization",
      "id": "414930c9-af25-4f2b-973a-4fa1c21732b1",
      "meta": {
        "profile": [ "http://hl7.org/fhir/us/qicore/StructureDefinition/qicore-organization" ]
      },
      "identifier": [ {
        "use": "temp",
        "system": "urn:oid:2.16.840.1.113883.4.4",
        "value": "21-3259825"
      } ],
      "active": true,
      "type": [ {
        "coding": [ {
          "system": "http://terminology.hl7.org/CodeSystem/organization-type",
          "code": "pay",
          "display": "Payer"
        } ]
      } ],
      "name": "Blue Cross Blue Shield of Texas",
      "telecom": [ {
        "system": "phone",
        "value": "(+1) 972-766-6900"
      } ],
      "address": [ {
        "use": "billing",
        "type": "postal",
        "line": [ "P.O. Box 660044" ],
        "city": "Dallas",
        "state": "TX",
        "postalCode": "75266-0044",
        "country": "USA"
      } ]
    },
    "request": {
      "method": "PUT",
      "url": "Organization/414930c9-af25-4f2b-973a-4fa1c21732b1"
    }
  }, {
    "fullUrl": "https://madie.cms.gov/MeasureReport/caabb2a6-b406-4b53-9604-8e336a646000",
    "resource": {
      "resourceType": "MeasureReport",
      "id": "caabb2a6-b406-4b53-9604-8e336a646000",
      "meta": {
        "profile": [ "http://hl7.org/fhir/us/cqfmeasures/StructureDefinition/test-case-cqfm" ]
      },
      "contained": [ {
        "resourceType": "Parameters",
        "id": "b352e145-7745-46f6-8188-48ffe2a3bc85-parameters",
        "parameter": [ {
          "name": "subject",
          "valueString": "ab28178c-eadb-41a3-861e-ee22c8f12d16"
        } ]
      } ],
      "extension": [ {
        "url": "http://hl7.org/fhir/StructureDefinition/cqf-inputParameters",
        "valueReference": {
          "reference": "#b352e145-7745-46f6-8188-48ffe2a3bc85-parameters"
        }
      }, {
        "url": "http://hl7.org/fhir/us/cqfmeasures/StructureDefinition/cqfm-testCaseDescription",
        "valueMarkdown": "Patient receives Ticagrelor day of Obs. ED ends 1 min before Obs.Obs ends 61 min before IP start at midnight. Testing Day of operator with HospitalizationWithObservation function.\n"
      } ],
      "modifierExtension": [ {
        "url": "http://hl7.org/fhir/us/cqfmeasures/StructureDefinition/cqfm-isTestCase",
        "valueBoolean": true
      } ],
      "status": "complete",
      "type": "individual",
      "measure": "https://madie.cms.gov/Measure/CMS72FHIRSTKAntithromboticDay2",
      "period": {
        "start": "2026-01-01",
        "end": "2026-12-31"
      },
      "group": [ {
        "id": "Group_1",
        "population": [ {
          "id": "InitialPopulation_1",
          "code": {
            "coding": [ {
              "system": "http://terminology.hl7.org/CodeSystem/measure-population",
              "code": "initial-population",
              "display": "Initial Population"
            } ]
          },
          "count": 1
        }, {
          "id": "Denominator_1",
          "code": {
            "coding": [ {
              "system": "http://terminology.hl7.org/CodeSystem/measure-population",
              "code": "denominator",
              "display": "Denominator"
            } ]
          },
          "count": 1
        }, {
          "id": "DenominatorExclusion_1",
          "code": {
            "coding": [ {
              "system": "http://terminology.hl7.org/CodeSystem/measure-population",
              "code": "denominator-exclusion",
              "display": "Denominator Exclusion"
            } ]
          },
          "count": 0
        }, {
          "id": "Numerator_1",
          "code": {
            "coding": [ {
              "system": "http://terminology.hl7.org/CodeSystem/measure-population",
              "code": "numerator",
              "display": "Numerator"
            } ]
          },
          "count": 0
        }, {
          "id": "DenominatorException_1",
          "code": {
            "coding": [ {
              "system": "http://terminology.hl7.org/CodeSystem/measure-population",
              "code": "denominator-exception",
              "display": "Denominator Exception"
            } ]
          },
          "count": 0
        } ],
        "measureScore": {
          "value": 0.0
        }
      } ],
      "evaluatedResource": [ {
        "reference": "Patient/ab28178c-eadb-41a3-861e-ee22c8f12d16"
      }, {
        "reference": "Encounter/d4908405-d5f8-4b14-9931-c7d44b800a83"
      }, {
        "reference": "Encounter/da4df264-beeb-45c8-9419-bf40da4a68d5"
      }, {
        "reference": "Encounter/dfb0fae7-d4c2-43d5-a212-51729a090415"
      }, {
        "reference": "Claim/5ca62962b8484628b8de1ec5"
      }, {
        "reference": "MedicationAdministration/171d9d8a-b5a1-4d40-9a48-069ecdd315fd"
      }, {
        "reference": "Coverage/208835f1-fdfd-49cf-ae57-cc6f060cf24a"
      }, {
        "reference": "Condition/b126781c-98e8-41cf-839e-c0b370bb59ff"
      }, {
        "reference": "Organization/414930c9-af25-4f2b-973a-4fa1c21732b1"
      } ]
    },
    "request": {
      "method": "PUT",
      "url": "MeasureReport/caabb2a6-b406-4b53-9604-8e336a646000"
    }
  } ]
}