{
  "resourceType": "Bundle",
  "id": "649f333c27a44016bdc566e7",
  "type": "collection",
  "entry": [ {
    "fullUrl": "https://madie.cms.gov/Patient/2384d351-d4e4-4395-bd39-2446e18674e9",
    "resource": {
      "resourceType": "Patient",
      "id": "2384d351-d4e4-4395-bd39-2446e18674e9",
      "meta": {
        "profile": [ "http://hl7.org/fhir/us/qicore/StructureDefinition/qicore-patient" ]
      },
      "extension": [ {
        "url": "http://hl7.org/fhir/us/core/StructureDefinition/us-core-race",
        "extension": [ {
          "url": "ombCategory",
          "valueCoding": {
            "system": "urn:oid:2.16.840.1.113883.6.238",
            "code": "2054-5",
            "display": "Black or African American",
            "userSelected": true
          }
        }, {
          "url": "text",
          "valueString": "Black or African American"
        } ]
      }, {
        "url": "http://hl7.org/fhir/us/core/StructureDefinition/us-core-ethnicity",
        "extension": [ {
          "url": "ombCategory",
          "valueCoding": {
            "system": "urn:oid:2.16.840.1.113883.6.238",
            "code": "2186-5",
            "display": "Not Hispanic or Latino",
            "userSelected": true
          }
        }, {
          "url": "text",
          "valueString": "Not Hispanic or Latino"
        } ]
      } ],
      "identifier": [ {
        "type": {
          "coding": [ {
            "system": "http://terminology.hl7.org/CodeSystem/v2-0203",
            "code": "MR"
          } ]
        },
        "system": "https://bonnie-fhir.healthit.gov/",
        "value": "649f333c27a44016bdc566e7"
      } ],
      "name": [ {
        "family": "NUMFail",
        "given": [ "2LabAfterMP1LabDuringMP" ]
      } ],
      "gender": "female",
      "birthDate": "2001-02-04"
    }
  }, {
    "fullUrl": "https://madie.cms.gov/Condition/9c8bfd86-5dc5-4d38-86de-2b16d57c9ac9",
    "resource": {
      "resourceType": "Condition",
      "id": "9c8bfd86-5dc5-4d38-86de-2b16d57c9ac9",
      "meta": {
        "profile": [ "http://hl7.org/fhir/us/qicore/StructureDefinition/qicore-condition-problems-health-concerns" ]
      },
      "clinicalStatus": {
        "coding": [ {
          "system": "http://terminology.hl7.org/CodeSystem/condition-clinical",
          "code": "active",
          "display": "active",
          "userSelected": true
        } ]
      },
      "category": [ {
        "coding": [ {
          "system": "http://terminology.hl7.org/CodeSystem/condition-category",
          "code": "problem-list-item",
          "display": "Problem List Item"
        } ]
      } ],
      "code": {
        "coding": [ {
          "system": "http://hl7.org/fhir/sid/icd-9-cm",
          "version": "2013",
          "code": "042",
          "display": "Human immunodeficiency virus [HIV] disease",
          "userSelected": true
        }, {
          "system": "http://snomed.info/sct",
          "version": "http://snomed.info/sct/731000124108/version/20250301",
          "code": "165816005",
          "userSelected": true
        } ]
      },
      "subject": {
        "reference": "Patient/2384d351-d4e4-4395-bd39-2446e18674e9"
      },
      "onsetDateTime": "2018-09-28T08:00:00.000+00:00",
      "recordedDate": "2018-09-28T08:00:00.000+00:00"
    }
  }, {
    "fullUrl": "https://madie.cms.gov/Encounter/9a3596b3-d28a-4a61-bd9d-678f721d71f3",
    "resource": {
      "resourceType": "Encounter",
      "id": "9a3596b3-d28a-4a61-bd9d-678f721d71f3",
      "meta": {
        "profile": [ "http://hl7.org/fhir/us/qicore/StructureDefinition/qicore-encounter" ]
      },
      "status": "finished",
      "class": {
        "system": "http://terminology.hl7.org/CodeSystem/v3-ActCode",
        "code": "AMB",
        "display": "ambulatory"
      },
      "type": [ {
        "coding": [ {
          "system": "http://www.ama-assn.org/go/cpt",
          "version": "2023",
          "code": "99391",
          "display": "Periodic comprehensive preventive medicine reevaluation and management of an individual including an age and gender appropriate history, examination, counseling/anticipatory guidance/risk factor reduction interventions, and the ordering of laboratory/diagnostic procedures, established patient; infant (age younger than 1 year)",
          "userSelected": true
        } ]
      } ],
      "subject": {
        "reference": "Patient/2384d351-d4e4-4395-bd39-2446e18674e9"
      },
      "period": {
        "start": "2026-10-31T08:00:00.000+00:00",
        "end": "2026-10-31T08:15:00.000+00:00"
      }
    }
  }, {
    "fullUrl": "https://madie.cms.gov/Observation/e3547ace-16ed-403f-9126-c59369e5d017",
    "resource": {
      "resourceType": "Observation",
      "id": "e3547ace-16ed-403f-9126-c59369e5d017",
      "meta": {
        "profile": [ "http://hl7.org/fhir/us/qicore/StructureDefinition/qicore-observation-lab" ]
      },
      "status": "final",
      "category": [ {
        "coding": [ {
          "system": "http://terminology.hl7.org/CodeSystem/observation-category",
          "code": "laboratory",
          "display": "Laboratory"
        } ]
      }, {
        "coding": [ {
          "system": "http://terminology.hl7.org/CodeSystem/observation-category",
          "code": "survey"
        } ]
      } ],
      "code": {
        "coding": [ {
          "system": "http://loinc.org",
          "version": "2.73",
          "code": "11084-1",
          "display": "Reagin Ab [Titer] in Serum",
          "userSelected": true
        } ]
      },
      "subject": {
        "reference": "Patient/2384d351-d4e4-4395-bd39-2446e18674e9"
      },
      "effectiveDateTime": "2026-01-31T08:16:00.000+00:00",
      "issued": "2026-01-31T08:16:00.000+00:00",
      "dataAbsentReason": {
        "coding": [ {
          "system": "http://terminology.hl7.org/CodeSystem/data-absent-reason",
          "code": "unknown",
          "display": "Unknown"
        } ]
      }
    }
  }, {
    "fullUrl": "https://madie.cms.gov/Observation/25ec1a06-0cf0-47c0-b073-f052d5ea2b2f",
    "resource": {
      "resourceType": "Observation",
      "id": "25ec1a06-0cf0-47c0-b073-f052d5ea2b2f",
      "meta": {
        "profile": [ "http://hl7.org/fhir/us/qicore/StructureDefinition/qicore-observation-lab" ]
      },
      "status": "final",
      "category": [ {
        "coding": [ {
          "system": "http://terminology.hl7.org/CodeSystem/observation-category",
          "code": "laboratory",
          "display": "Laboratory"
        } ]
      }, {
        "coding": [ {
          "system": "http://terminology.hl7.org/CodeSystem/observation-category",
          "code": "survey"
        } ]
      } ],
      "code": {
        "coding": [ {
          "system": "http://loinc.org",
          "version": "2.73",
          "code": "21414-8",
          "display": "Neisseria gonorrhoeae DNA [Presence] in Cervical mucus by NAA with probe detection",
          "userSelected": true
        } ]
      },
      "subject": {
        "reference": "Patient/2384d351-d4e4-4395-bd39-2446e18674e9"
      },
      "effectiveDateTime": "2026-02-28T08:00:00.000+00:00",
      "issued": "2026-02-28T08:00:00.000+00:00",
      "dataAbsentReason": {
        "coding": [ {
          "system": "http://terminology.hl7.org/CodeSystem/data-absent-reason",
          "code": "unknown",
          "display": "Unknown"
        } ]
      }
    }
  }, {
    "fullUrl": "https://madie.cms.gov/Observation/83032a35-11ef-4974-aa1e-6905cfa5850f",
    "resource": {
      "resourceType": "Observation",
      "id": "83032a35-11ef-4974-aa1e-6905cfa5850f",
      "meta": {
        "profile": [ "http://hl7.org/fhir/us/qicore/StructureDefinition/qicore-observation-lab" ]
      },
      "status": "final",
      "category": [ {
        "coding": [ {
          "system": "http://terminology.hl7.org/CodeSystem/observation-category",
          "code": "laboratory",
          "display": "Laboratory"
        } ]
      }, {
        "coding": [ {
          "system": "http://terminology.hl7.org/CodeSystem/observation-category",
          "code": "survey"
        } ]
      } ],
      "code": {
        "coding": [ {
          "system": "http://loinc.org",
          "version": "2.73",
          "code": "14463-4",
          "display": "Chlamydia trachomatis [Presence] in Cervix by Organism specific culture",
          "userSelected": true
        } ]
      },
      "subject": {
        "reference": "Patient/2384d351-d4e4-4395-bd39-2446e18674e9"
      },
      "effectivePeriod": {
        "start": "2026-10-31T08:16:00.000+00:00",
        "end": "2026-10-31T08:17:00.000+00:00"
      },
      "issued": "2026-10-31T08:16:00.000+00:00",
      "dataAbsentReason": {
        "coding": [ {
          "system": "http://terminology.hl7.org/CodeSystem/data-absent-reason",
          "code": "unknown",
          "display": "Unknown"
        } ]
      }
    }
  }, {
    "fullUrl": "https://madie.cms.gov/Coverage/19dfdca4-f407-4d69-8dc2-66fe7889073f",
    "resource": {
      "resourceType": "Coverage",
      "id": "19dfdca4-f407-4d69-8dc2-66fe7889073f",
      "meta": {
        "profile": [ "http://hl7.org/fhir/us/qicore/StructureDefinition/qicore-coverage" ]
      },
      "status": "active",
      "subscriberId": "123456",
      "beneficiary": {
        "reference": "Patient/2384d351-d4e4-4395-bd39-2446e18674e9"
      },
      "relationship": {
        "coding": [ {
          "system": "http://terminology.hl7.org/CodeSystem/subscriber-relationship",
          "code": "self",
          "display": "Self"
        } ]
      },
      "payor": [ {
        "reference": "Organization/e88f7208-515b-465e-b2b4-dfaa4be2e6a2"
      } ]
    }
  }, {
    "fullUrl": "https://madie.cms.gov/Organization/e88f7208-515b-465e-b2b4-dfaa4be2e6a2",
    "resource": {
      "resourceType": "Organization",
      "id": "e88f7208-515b-465e-b2b4-dfaa4be2e6a2",
      "meta": {
        "profile": [ "http://hl7.org/fhir/us/qicore/StructureDefinition/qicore-organization" ]
      },
      "identifier": [ {
        "use": "temp",
        "system": "urn:oid:2.16.840.1.113883.4.4",
        "value": "21-3259825"
      } ],
      "active": true,
      "type": [ {
        "coding": [ {
          "system": "http://terminology.hl7.org/CodeSystem/organization-type",
          "code": "pay",
          "display": "Payer"
        } ]
      } ],
      "name": "Blue Cross Blue Shield of Texas",
      "telecom": [ {
        "system": "phone",
        "value": "(+1) 972-766-6900"
      } ],
      "address": [ {
        "use": "billing",
        "type": "postal",
        "line": [ "P.O. Box 660044" ],
        "city": "Dallas",
        "state": "TX",
        "postalCode": "75266-0044",
        "country": "USA"
      } ]
    }
  }, {
    "fullUrl": "https://madie.cms.gov/Practitioner/2ce42a92-35d4-418b-b049-e84c6e843eef",
    "resource": {
      "resourceType": "Practitioner",
      "id": "2ce42a92-35d4-418b-b049-e84c6e843eef",
      "meta": {
        "profile": [ "http://hl7.org/fhir/us/qicore/StructureDefinition/qicore-practitioner" ]
      },
      "identifier": [ {
        "system": "http://hl7.org/fhir/sid/us-npi",
        "value": "1689411712"
      } ],
      "name": [ {
        "family": "Evil",
        "prefix": [ "Dr" ]
      } ]
    }
  }, {
    "fullUrl": "https://madie.cms.gov/MeasureReport/1a2f82e7-8368-4455-bc65-a7458da4acc3",
    "resource": {
      "resourceType": "MeasureReport",
      "id": "1a2f82e7-8368-4455-bc65-a7458da4acc3",
      "meta": {
        "profile": [ "http://hl7.org/fhir/us/cqfmeasures/StructureDefinition/test-case-cqfm" ]
      },
      "contained": [ {
        "resourceType": "Parameters",
        "id": "a26e50f2-2ee9-44c8-921a-6d89756dd4c7-parameters",
        "parameter": [ {
          "name": "subject",
          "valueString": "2384d351-d4e4-4395-bd39-2446e18674e9"
        } ]
      } ],
      "extension": [ {
        "url": "http://hl7.org/fhir/StructureDefinition/cqf-inputParameters",
        "valueReference": {
          "reference": "#a26e50f2-2ee9-44c8-921a-6d89756dd4c7-parameters"
        }
      }, {
        "url": "http://hl7.org/fhir/us/cqfmeasures/StructureDefinition/cqfm-testCaseDescription",
        "valueMarkdown": "Patient is over 13 years old with an encounter - 2 STI screen after MP, 1 STI screen during MP"
      } ],
      "modifierExtension": [ {
        "url": "http://hl7.org/fhir/us/cqfmeasures/StructureDefinition/cqfm-isTestCase",
        "valueBoolean": true
      } ],
      "status": "complete",
      "type": "individual",
      "measure": "https://madie.cms.gov/Measure/CMS1188FHIRHIVSTITesting",
      "period": {
        "start": "2026-01-01",
        "end": "2026-12-31"
      },
      "group": [ {
        "id": "Group_1",
        "population": [ {
          "id": "InitialPopulation_1",
          "code": {
            "coding": [ {
              "system": "http://terminology.hl7.org/CodeSystem/measure-population",
              "code": "initial-population",
              "display": "Initial Population"
            } ]
          },
          "count": 1
        }, {
          "id": "Denominator_1",
          "code": {
            "coding": [ {
              "system": "http://terminology.hl7.org/CodeSystem/measure-population",
              "code": "denominator",
              "display": "Denominator"
            } ]
          },
          "count": 1
        }, {
          "id": "Numerator_1",
          "code": {
            "coding": [ {
              "system": "http://terminology.hl7.org/CodeSystem/measure-population",
              "code": "numerator",
              "display": "Numerator"
            } ]
          },
          "count": 0
        } ],
        "measureScore": {
          "value": 1.0
        }
      } ],
      "evaluatedResource": [ {
        "reference": "Patient/2384d351-d4e4-4395-bd39-2446e18674e9"
      }, {
        "reference": "Condition/9c8bfd86-5dc5-4d38-86de-2b16d57c9ac9"
      }, {
        "reference": "Encounter/9a3596b3-d28a-4a61-bd9d-678f721d71f3"
      }, {
        "reference": "Observation/e3547ace-16ed-403f-9126-c59369e5d017"
      }, {
        "reference": "Observation/25ec1a06-0cf0-47c0-b073-f052d5ea2b2f"
      }, {
        "reference": "Observation/83032a35-11ef-4974-aa1e-6905cfa5850f"
      }, {
        "reference": "Coverage/19dfdca4-f407-4d69-8dc2-66fe7889073f"
      }, {
        "reference": "Organization/e88f7208-515b-465e-b2b4-dfaa4be2e6a2"
      }, {
        "reference": "Practitioner/2ce42a92-35d4-418b-b049-e84c6e843eef"
      } ]
    }
  } ]
}