{
  "resourceType": "Bundle",
  "id": "612e6b5002c62a011f2ed433",
  "type": "transaction",
  "entry": [ {
    "fullUrl": "https://madie.cms.gov/Patient/88086c39-a440-43ae-b015-f399190c9589",
    "resource": {
      "resourceType": "Patient",
      "id": "88086c39-a440-43ae-b015-f399190c9589",
      "meta": {
        "profile": [ "http://hl7.org/fhir/us/qicore/StructureDefinition/qicore-patient" ]
      },
      "text": {
        "status": "generated",
        "div": "<div xmlns=\"http://www.w3.org/1999/xhtml\"><div class=\"hapiHeaderText\">PtRefMOWarfEDendTimeEQEncStartTime <b>NUMERPASS </b></div><table class=\"hapiPropertyTable\"><tbody><tr><td>Identifier</td><td>35e854fe06e36e7e02449812c3316da3</td></tr><tr><td>Date of birth</td><td><span>02 January 1974</span></td></tr></tbody></table></div>"
      },
      "extension": [ {
        "url": "http://hl7.org/fhir/us/core/StructureDefinition/us-core-race",
        "extension": [ {
          "url": "ombCategory",
          "valueCoding": {
            "system": "urn:oid:2.16.840.1.113883.6.238",
            "code": "1002-5",
            "display": "American Indian or Alaska Native",
            "userSelected": true
          }
        }, {
          "url": "text",
          "valueString": "American Indian or Alaska Native"
        } ]
      }, {
        "url": "http://hl7.org/fhir/us/core/StructureDefinition/us-core-ethnicity",
        "extension": [ {
          "url": "ombCategory",
          "valueCoding": {
            "system": "urn:oid:2.16.840.1.113883.6.238",
            "code": "2135-2",
            "display": "Hispanic or Latino",
            "userSelected": true
          }
        }, {
          "url": "text",
          "valueString": "Hispanic or Latino"
        } ]
      } ],
      "identifier": [ {
        "type": {
          "coding": [ {
            "system": "http://terminology.hl7.org/CodeSystem/v2-0203",
            "code": "MR"
          } ]
        },
        "system": "https://bonnie-fhir.healthit.gov/",
        "value": "612e6b5002c62a011f2ed433"
      } ],
      "active": true,
      "name": [ {
        "use": "usual",
        "family": "NUMERPass",
        "given": [ "PtRefMOWarfEDendTimeEQEncStartTime" ]
      } ],
      "gender": "male",
      "birthDate": "1975-01-02"
    },
    "request": {
      "method": "PUT",
      "url": "Patient/88086c39-a440-43ae-b015-f399190c9589"
    }
  }, {
    "fullUrl": "https://madie.cms.gov/Encounter/093e0830-b3c7-4f2a-88ac-08a8b008fb42",
    "resource": {
      "resourceType": "Encounter",
      "id": "093e0830-b3c7-4f2a-88ac-08a8b008fb42",
      "meta": {
        "profile": [ "http://hl7.org/fhir/us/qicore/StructureDefinition/qicore-encounter" ]
      },
      "status": "finished",
      "class": {
        "system": "http://terminology.hl7.org/CodeSystem/v3-ActCode",
        "code": "EMER",
        "display": "emergency"
      },
      "type": [ {
        "coding": [ {
          "system": "http://snomed.info/sct",
          "code": "4525004"
        } ]
      } ],
      "subject": {
        "reference": "Patient/88086c39-a440-43ae-b015-f399190c9589"
      },
      "period": {
        "start": "2026-10-31T05:00:00.000+00:00",
        "end": "2026-11-01T08:00:00.000+00:00"
      },
      "length": {
        "value": 1,
        "unit": "days"
      }
    },
    "request": {
      "method": "PUT",
      "url": "Encounter/093e0830-b3c7-4f2a-88ac-08a8b008fb42"
    }
  }, {
    "fullUrl": "https://madie.cms.gov/Encounter/05918547-c4f9-4862-824e-62339168c452",
    "resource": {
      "resourceType": "Encounter",
      "id": "05918547-c4f9-4862-824e-62339168c452",
      "meta": {
        "profile": [ "http://hl7.org/fhir/us/qicore/StructureDefinition/qicore-encounter" ]
      },
      "status": "finished",
      "class": {
        "system": "http://terminology.hl7.org/CodeSystem/v3-ActCode",
        "code": "IMP",
        "display": "inpatient encounter"
      },
      "type": [ {
        "coding": [ {
          "system": "http://snomed.info/sct",
          "code": "8715000"
        } ]
      } ],
      "subject": {
        "reference": "Patient/88086c39-a440-43ae-b015-f399190c9589"
      },
      "period": {
        "start": "2026-11-01T08:00:00.000+00:00",
        "end": "2026-11-26T08:15:00.000+00:00"
      },
      "length": {
        "value": 25,
        "unit": "days"
      },
      "location": [ {
        "location": {
          "reference": "Location/5464aabf-9d32-4f27-a3c2-fda0b8b7c3df"
        },
        "period": {
          "start": "2026-11-04T09:00:00.000+00:00",
          "end": "2026-11-06T08:15:00.000+00:00"
        }
      } ]
    },
    "request": {
      "method": "PUT",
      "url": "Encounter/05918547-c4f9-4862-824e-62339168c452"
    }
  }, {
    "fullUrl": "https://madie.cms.gov/Coverage/7fdf444f-9e71-4026-8eee-af0de7ee8eec",
    "resource": {
      "resourceType": "Coverage",
      "id": "7fdf444f-9e71-4026-8eee-af0de7ee8eec",
      "status": "active",
      "beneficiary": {
        "reference": "Patient/88086c39-a440-43ae-b015-f399190c9589"
      },
      "period": {
        "start": "1975-01-02T08:00:00.000+00:00"
      },
      "payor": [ {
        "reference": "Organization/a5c88a20-2a25-4942-bc95-98f964907912"
      } ]
    },
    "request": {
      "method": "PUT",
      "url": "Coverage/7fdf444f-9e71-4026-8eee-af0de7ee8eec"
    }
  }, {
    "fullUrl": "https://madie.cms.gov/MedicationRequest/64fed9c1-549f-451c-802e-d96a98761514",
    "resource": {
      "resourceType": "MedicationRequest",
      "id": "64fed9c1-549f-451c-802e-d96a98761514",
      "meta": {
        "profile": [ "http://hl7.org/fhir/us/qicore/StructureDefinition/qicore-medicationnotrequested" ]
      },
      "status": "completed",
      "intent": "order",
      "category": [ {
        "coding": [ {
          "system": "http://terminology.hl7.org/CodeSystem/medicationrequest-category",
          "code": "community"
        } ]
      } ],
      "doNotPerform": true,
      "medicationCodeableConcept": {
        "coding": [ {
          "system": "http://www.nlm.nih.gov/research/umls/rxnorm",
          "code": "855288"
        } ]
      },
      "subject": {
        "reference": "Patient/88086c39-a440-43ae-b015-f399190c9589"
      },
      "authoredOn": "2026-11-01T07:00:00.000+00:00",
      "requester": {
        "reference": "Practitioner/123456"
      },
      "reasonCode": [ {
        "coding": [ {
          "system": "http://snomed.info/sct",
          "code": "443390004",
          "display": "Refusal of treatment by patient (situation)",
          "userSelected": true
        } ]
      } ]
    },
    "request": {
      "method": "PUT",
      "url": "MedicationRequest/64fed9c1-549f-451c-802e-d96a98761514"
    }
  }, {
    "fullUrl": "https://madie.cms.gov/Location/5464aabf-9d32-4f27-a3c2-fda0b8b7c3df",
    "resource": {
      "resourceType": "Location",
      "id": "5464aabf-9d32-4f27-a3c2-fda0b8b7c3df",
      "meta": {
        "profile": [ "http://hl7.org/fhir/us/qicore/StructureDefinition/qicore-location" ]
      },
      "identifier": [ {
        "use": "usual",
        "system": "http://exampleoflocation.com",
        "value": "B1-S.F2"
      } ],
      "name": "Medical Surgical East, first floor",
      "type": [ {
        "coding": [ {
          "system": "https://www.cdc.gov/nhsn/cdaportal/terminology/codesystem/hsloc.html",
          "code": "1025-6",
          "display": "Trauma Critical Care",
          "userSelected": true
        } ]
      } ]
    },
    "request": {
      "method": "PUT",
      "url": "Location/5464aabf-9d32-4f27-a3c2-fda0b8b7c3df"
    }
  }, {
    "fullUrl": "https://madie.cms.gov/Organization/a5c88a20-2a25-4942-bc95-98f964907912",
    "resource": {
      "resourceType": "Organization",
      "id": "a5c88a20-2a25-4942-bc95-98f964907912",
      "meta": {
        "profile": [ "http://hl7.org/fhir/us/qicore/StructureDefinition/qicore-organization" ]
      },
      "identifier": [ {
        "use": "temp",
        "system": "urn:oid:2.16.840.1.113883.4.4",
        "value": "21-3259825"
      } ],
      "active": true,
      "type": [ {
        "coding": [ {
          "system": "http://terminology.hl7.org/CodeSystem/organization-type",
          "code": "pay",
          "display": "Payer"
        } ]
      } ],
      "name": "Blue Cross Blue Shield of Texas",
      "telecom": [ {
        "system": "phone",
        "value": "(+1) 972-766-6900"
      } ],
      "address": [ {
        "use": "billing",
        "type": "postal",
        "line": [ "P.O. Box 660044" ],
        "city": "Dallas",
        "state": "TX",
        "postalCode": "75266-0044",
        "country": "USA"
      } ]
    },
    "request": {
      "method": "PUT",
      "url": "Organization/a5c88a20-2a25-4942-bc95-98f964907912"
    }
  }, {
    "fullUrl": "https://madie.cms.gov/Practitioner/97a08b71-f647-4680-9548-527413617511",
    "resource": {
      "resourceType": "Practitioner",
      "id": "97a08b71-f647-4680-9548-527413617511",
      "identifier": [ {
        "system": "http://hl7.org/fhir/sid/us-npi",
        "value": "123456"
      } ],
      "name": [ {
        "family": "Evil",
        "prefix": [ "Dr" ]
      } ]
    },
    "request": {
      "method": "PUT",
      "url": "Practitioner/97a08b71-f647-4680-9548-527413617511"
    }
  }, {
    "fullUrl": "https://madie.cms.gov/MeasureReport/21fa0ad5-23a1-4e35-9c37-80e666429153",
    "resource": {
      "resourceType": "MeasureReport",
      "id": "21fa0ad5-23a1-4e35-9c37-80e666429153",
      "meta": {
        "profile": [ "http://hl7.org/fhir/us/cqfmeasures/StructureDefinition/test-case-cqfm" ]
      },
      "contained": [ {
        "resourceType": "Parameters",
        "id": "d98264db-809f-4d70-bd94-18f07ca169ca-parameters",
        "parameter": [ {
          "name": "subject",
          "valueString": "88086c39-a440-43ae-b015-f399190c9589"
        } ]
      } ],
      "extension": [ {
        "url": "http://hl7.org/fhir/StructureDefinition/cqf-inputParameters",
        "valueReference": {
          "reference": "#d98264db-809f-4d70-bd94-18f07ca169ca-parameters"
        }
      }, {
        "url": "http://hl7.org/fhir/us/cqfmeasures/StructureDefinition/cqfm-testCaseDescription",
        "valueMarkdown": "meets IPP, meets Denominator, Warfarin order not requested patient Refusal - during ED\n"
      } ],
      "modifierExtension": [ {
        "url": "http://hl7.org/fhir/us/cqfmeasures/StructureDefinition/cqfm-isTestCase",
        "valueBoolean": true
      } ],
      "status": "complete",
      "type": "individual",
      "measure": "https://madie.cms.gov/Measure/CMS190FHIRVTEProphylaxisICU",
      "period": {
        "start": "2026-01-01",
        "end": "2026-12-31"
      },
      "group": [ {
        "id": "Group_1",
        "population": [ {
          "id": "InitialPopulation_1",
          "code": {
            "coding": [ {
              "system": "http://terminology.hl7.org/CodeSystem/measure-population",
              "code": "initial-population",
              "display": "Initial Population"
            } ]
          },
          "count": 1
        }, {
          "id": "Denominator_1",
          "code": {
            "coding": [ {
              "system": "http://terminology.hl7.org/CodeSystem/measure-population",
              "code": "denominator",
              "display": "Denominator"
            } ]
          },
          "count": 1
        }, {
          "id": "DenominatorExclusion_1",
          "code": {
            "coding": [ {
              "system": "http://terminology.hl7.org/CodeSystem/measure-population",
              "code": "denominator-exclusion",
              "display": "Denominator Exclusion"
            } ]
          },
          "count": 0
        }, {
          "id": "Numerator_1",
          "code": {
            "coding": [ {
              "system": "http://terminology.hl7.org/CodeSystem/measure-population",
              "code": "numerator",
              "display": "Numerator"
            } ]
          },
          "count": 1
        }, {
          "id": "DenominatorException_1",
          "code": {
            "coding": [ {
              "system": "http://terminology.hl7.org/CodeSystem/measure-population",
              "code": "denominator-exception",
              "display": "Denominator Exception"
            } ]
          },
          "count": 0
        } ],
        "measureScore": {
          "value": 0.0
        }
      } ],
      "evaluatedResource": [ {
        "reference": "Patient/88086c39-a440-43ae-b015-f399190c9589"
      }, {
        "reference": "Encounter/093e0830-b3c7-4f2a-88ac-08a8b008fb42"
      }, {
        "reference": "Encounter/05918547-c4f9-4862-824e-62339168c452"
      }, {
        "reference": "Coverage/7fdf444f-9e71-4026-8eee-af0de7ee8eec"
      }, {
        "reference": "MedicationRequest/64fed9c1-549f-451c-802e-d96a98761514"
      }, {
        "reference": "Location/5464aabf-9d32-4f27-a3c2-fda0b8b7c3df"
      }, {
        "reference": "Organization/a5c88a20-2a25-4942-bc95-98f964907912"
      }, {
        "reference": "Practitioner/97a08b71-f647-4680-9548-527413617511"
      } ]
    },
    "request": {
      "method": "PUT",
      "url": "MeasureReport/21fa0ad5-23a1-4e35-9c37-80e666429153"
    }
  } ]
}