{
  "resourceType": "Bundle",
  "id": "62fd2f9d32e2f917c3627d8c",
  "type": "collection",
  "entry": [ {
    "fullUrl": "https://madie.cms.gov/Patient/187cc99d-9cb5-442f-8201-3695e5358101",
    "resource": {
      "resourceType": "Patient",
      "id": "187cc99d-9cb5-442f-8201-3695e5358101",
      "meta": {
        "profile": [ "http://hl7.org/fhir/us/qicore/StructureDefinition/qicore-patient" ]
      },
      "extension": [ {
        "url": "http://hl7.org/fhir/us/core/StructureDefinition/us-core-race",
        "extension": [ {
          "url": "ombCategory",
          "valueCoding": {
            "system": "urn:oid:2.16.840.1.113883.6.238",
            "code": "2106-3",
            "display": "White",
            "userSelected": true
          }
        }, {
          "url": "text",
          "valueString": "White"
        } ]
      }, {
        "url": "http://hl7.org/fhir/us/core/StructureDefinition/us-core-ethnicity",
        "extension": [ {
          "url": "ombCategory",
          "valueCoding": {
            "system": "urn:oid:2.16.840.1.113883.6.238",
            "code": "2135-2",
            "display": "Hispanic or Latino",
            "userSelected": true
          }
        }, {
          "url": "text",
          "valueString": "Hispanic or Latino"
        } ]
      } ],
      "identifier": [ {
        "type": {
          "coding": [ {
            "system": "http://terminology.hl7.org/CodeSystem/v2-0203",
            "code": "MR"
          } ]
        },
        "system": "https://bonnie-fhir.healthit.gov/",
        "value": "62fd2f9d32e2f917c3627d8c"
      } ],
      "name": [ {
        "family": "DENEXCEPPass",
        "given": [ "SalvageTxAfterPrCaDx" ]
      } ],
      "gender": "male",
      "birthDate": "1989-08-18"
    }
  }, {
    "fullUrl": "https://madie.cms.gov/Condition/e9657e50-cc93-4375-aca9-eed900481791",
    "resource": {
      "resourceType": "Condition",
      "id": "e9657e50-cc93-4375-aca9-eed900481791",
      "meta": {
        "profile": [ "http://hl7.org/fhir/us/qicore/StructureDefinition/qicore-condition-problems-health-concerns" ]
      },
      "clinicalStatus": {
        "coding": [ {
          "system": "http://terminology.hl7.org/CodeSystem/condition-clinical",
          "code": "active",
          "display": "active",
          "userSelected": true
        } ]
      },
      "category": [ {
        "coding": [ {
          "system": "http://terminology.hl7.org/CodeSystem/condition-category",
          "code": "problem-list-item",
          "display": "Problem List Item"
        } ]
      } ],
      "code": {
        "coding": [ {
          "system": "http://snomed.info/sct",
          "code": "254900004",
          "display": "Carcinoma of prostate (disorder)",
          "userSelected": true
        } ]
      },
      "subject": {
        "reference": "Patient/187cc99d-9cb5-442f-8201-3695e5358101"
      },
      "onsetDateTime": "2026-01-07T08:00:00.000+00:00",
      "recordedDate": "2026-06-02T08:00:00.000+00:00"
    }
  }, {
    "fullUrl": "https://madie.cms.gov/Procedure/a86d44e6-54f0-49ba-b1d8-8e1b57b5404a",
    "resource": {
      "resourceType": "Procedure",
      "id": "a86d44e6-54f0-49ba-b1d8-8e1b57b5404a",
      "meta": {
        "profile": [ "http://hl7.org/fhir/us/qicore/StructureDefinition/qicore-procedure" ]
      },
      "extension": [ {
        "url": "http://hl7.org/fhir/us/qicore/StructureDefinition/qicore-recorded",
        "valueDateTime": "2024-02-01T09:00:00.000+00:00"
      } ],
      "status": "completed",
      "code": {
        "coding": [ {
          "system": "http://snomed.info/sct",
          "code": "38915000",
          "display": "Radionuclide therapy for gland ablation (procedure)",
          "userSelected": true
        } ]
      },
      "subject": {
        "reference": "Patient/187cc99d-9cb5-442f-8201-3695e5358101"
      },
      "performedDateTime": "2026-06-02T08:00:00.000+00:00"
    }
  }, {
    "fullUrl": "https://madie.cms.gov/Observation/37efaeb4-29b7-45f6-b2d5-089b3d9378ba",
    "resource": {
      "resourceType": "Observation",
      "id": "37efaeb4-29b7-45f6-b2d5-089b3d9378ba",
      "meta": {
        "profile": [ "http://hl7.org/fhir/us/qicore/StructureDefinition/qicore-observation-lab" ]
      },
      "status": "final",
      "category": [ {
        "coding": [ {
          "system": "http://terminology.hl7.org/CodeSystem/observation-category",
          "code": "laboratory",
          "display": "Laboratory"
        } ]
      } ],
      "code": {
        "coding": [ {
          "system": "http://loinc.org",
          "version": "2.72",
          "code": "2857-1",
          "display": "Prostate specific Ag [Mass/volume] in Serum or Plasma",
          "userSelected": true
        } ]
      },
      "subject": {
        "reference": "Patient/187cc99d-9cb5-442f-8201-3695e5358101"
      },
      "effectiveDateTime": "2026-01-07T08:00:00.000+00:00",
      "issued": "2026-04-02T08:00:00.000+00:00",
      "valueQuantity": {
        "value": 8.0,
        "system": "http://unitsofmeasure.org",
        "code": "ng/mL"
      }
    }
  }, {
    "fullUrl": "https://madie.cms.gov/Observation/0048c4a9-70b1-4e4e-b2e5-98c5822024ec",
    "resource": {
      "resourceType": "Observation",
      "id": "0048c4a9-70b1-4e4e-b2e5-98c5822024ec",
      "meta": {
        "profile": [ "http://hl7.org/fhir/us/qicore/StructureDefinition/qicore-observation-clinical-result" ]
      },
      "status": "final",
      "category": [ {
        "coding": [ {
          "system": "http://terminology.hl7.org/CodeSystem/observation-category",
          "code": "procedure",
          "display": "Procedure"
        } ]
      } ],
      "code": {
        "coding": [ {
          "system": "http://loinc.org",
          "code": "35266-6",
          "display": "Gleason score in Specimen Qualitative",
          "userSelected": true
        } ]
      },
      "subject": {
        "reference": "Patient/187cc99d-9cb5-442f-8201-3695e5358101"
      },
      "effectivePeriod": {
        "start": "2026-04-02T08:00:00.000+00:00"
      },
      "issued": "2026-04-02T08:00:00.000+00:00",
      "valueInteger": 5
    }
  }, {
    "fullUrl": "https://madie.cms.gov/Observation/e0a7d986-58bd-4351-bc8e-1fbd9a46a014",
    "resource": {
      "resourceType": "Observation",
      "id": "e0a7d986-58bd-4351-bc8e-1fbd9a46a014",
      "meta": {
        "profile": [ "http://hl7.org/fhir/us/qicore/StructureDefinition/qicore-observation-clinical-result" ]
      },
      "status": "final",
      "category": [ {
        "coding": [ {
          "system": "http://terminology.hl7.org/CodeSystem/observation-category",
          "code": "procedure",
          "display": "Procedure"
        } ]
      } ],
      "code": {
        "coding": [ {
          "system": "http://snomed.info/sct",
          "code": "254292007",
          "display": "Tumor staging (tumor staging)",
          "userSelected": true
        } ]
      },
      "subject": {
        "reference": "Patient/187cc99d-9cb5-442f-8201-3695e5358101"
      },
      "focus": [ {
        "reference": "Condition/e9657e50-cc93-4375-aca9-eed900481791"
      } ],
      "effectivePeriod": {
        "start": "2026-02-07T08:00:00.000+00:00"
      },
      "issued": "2026-02-02T08:00:00.000+00:00",
      "valueCodeableConcept": {
        "coding": [ {
          "system": "http://snomed.info/sct",
          "code": "1228892002",
          "display": "American Joint Committee on Cancer cT1a (qualifier value)",
          "userSelected": true
        } ]
      }
    }
  }, {
    "fullUrl": "https://madie.cms.gov/Observation/53ca6113-2e83-4b48-98b6-4b8b5f7e3759",
    "resource": {
      "resourceType": "Observation",
      "id": "53ca6113-2e83-4b48-98b6-4b8b5f7e3759",
      "meta": {
        "profile": [ "http://hl7.org/fhir/us/qicore/StructureDefinition/qicore-observation-clinical-result" ]
      },
      "status": "final",
      "category": [ {
        "coding": [ {
          "system": "http://terminology.hl7.org/CodeSystem/observation-category",
          "code": "procedure",
          "display": "Procedure"
        } ]
      } ],
      "code": {
        "coding": [ {
          "system": "http://loinc.org",
          "version": "2.72",
          "code": "25031-6",
          "display": "NM Bone Views",
          "userSelected": true
        } ]
      },
      "subject": {
        "reference": "Patient/187cc99d-9cb5-442f-8201-3695e5358101"
      },
      "effectivePeriod": {
        "start": "2026-06-14T08:00:00.000+00:00",
        "end": "2026-06-14T09:15:00.000+00:00"
      },
      "issued": "2026-06-14T08:00:00.000+00:00",
      "valueString": "Normal results found"
    }
  }, {
    "fullUrl": "https://madie.cms.gov/Procedure/ecb3ba17-4f0f-4a5a-a3fb-5876ddf7ccb8",
    "resource": {
      "resourceType": "Procedure",
      "id": "ecb3ba17-4f0f-4a5a-a3fb-5876ddf7ccb8",
      "meta": {
        "profile": [ "http://hl7.org/fhir/us/qicore/StructureDefinition/qicore-procedure" ]
      },
      "extension": [ {
        "url": "http://hl7.org/fhir/us/qicore/StructureDefinition/qicore-recorded",
        "valueDateTime": "2024-02-01T09:00:00.000+00:00"
      } ],
      "status": "completed",
      "code": {
        "coding": [ {
          "system": "http://snomed.info/sct",
          "code": "236209003",
          "display": "Salvage cystoprostatourethrectomy (procedure)",
          "userSelected": true
        } ]
      },
      "subject": {
        "reference": "Patient/187cc99d-9cb5-442f-8201-3695e5358101"
      },
      "performedDateTime": "2026-08-17T08:00:00.000+00:00"
    }
  }, {
    "fullUrl": "https://madie.cms.gov/Coverage/4acdf800-ec7f-40ad-9241-452282e41d92",
    "resource": {
      "resourceType": "Coverage",
      "id": "4acdf800-ec7f-40ad-9241-452282e41d92",
      "meta": {
        "profile": [ "http://hl7.org/fhir/us/qicore/StructureDefinition/qicore-coverage" ]
      },
      "status": "active",
      "subscriberId": "123456789",
      "beneficiary": {
        "reference": "Patient/187cc99d-9cb5-442f-8201-3695e5358101"
      },
      "relationship": {
        "coding": [ {
          "system": "http://terminology.hl7.org/CodeSystem/subscriber-relationship",
          "code": "self",
          "display": "Self",
          "userSelected": true
        } ]
      },
      "payor": [ {
        "reference": "Organization/a37280d9-fd39-475f-af4a-18494e73bf45"
      } ]
    }
  }, {
    "fullUrl": "https://madie.cms.gov/Organization/a37280d9-fd39-475f-af4a-18494e73bf45",
    "resource": {
      "resourceType": "Organization",
      "id": "a37280d9-fd39-475f-af4a-18494e73bf45",
      "meta": {
        "profile": [ "http://hl7.org/fhir/us/qicore/StructureDefinition/qicore-organization" ]
      },
      "identifier": [ {
        "use": "temp",
        "system": "urn:oid:2.16.840.1.113883.4.4",
        "value": "21-3259825"
      } ],
      "active": true,
      "type": [ {
        "coding": [ {
          "system": "http://terminology.hl7.org/CodeSystem/organization-type",
          "code": "pay",
          "display": "Payer"
        } ]
      } ],
      "name": "Blue Cross Blue Shield of Texas",
      "telecom": [ {
        "system": "phone",
        "value": "(+1) 972-766-6900"
      } ],
      "address": [ {
        "use": "billing",
        "type": "postal",
        "line": [ "P.O. Box 660044" ],
        "city": "Dallas",
        "state": "TX",
        "postalCode": "75266-0044",
        "country": "USA"
      } ]
    }
  }, {
    "fullUrl": "https://madie.cms.gov/Practitioner/6a7728df-971b-4c78-b55c-19cb26781b63",
    "resource": {
      "resourceType": "Practitioner",
      "id": "6a7728df-971b-4c78-b55c-19cb26781b63",
      "meta": {
        "profile": [ "http://hl7.org/fhir/us/qicore/StructureDefinition/qicore-practitioner" ]
      },
      "identifier": [ {
        "system": "http://hl7.org/fhir/sid/us-npi",
        "value": "1234567893"
      } ],
      "name": [ {
        "family": "Evil",
        "prefix": [ "Dr" ]
      } ]
    }
  }, {
    "fullUrl": "https://madie.cms.gov/MeasureReport/608152c6-688a-4bfb-bcdf-6f411e6fbd1e",
    "resource": {
      "resourceType": "MeasureReport",
      "id": "608152c6-688a-4bfb-bcdf-6f411e6fbd1e",
      "meta": {
        "profile": [ "http://hl7.org/fhir/us/cqfmeasures/StructureDefinition/test-case-cqfm" ]
      },
      "contained": [ {
        "resourceType": "Parameters",
        "id": "dd261307-a2f0-42ef-9d5a-eb6d9f140b0c-parameters",
        "parameter": [ {
          "name": "subject",
          "valueString": "187cc99d-9cb5-442f-8201-3695e5358101"
        } ]
      } ],
      "extension": [ {
        "url": "http://hl7.org/fhir/StructureDefinition/cqf-inputParameters",
        "valueReference": {
          "reference": "#dd261307-a2f0-42ef-9d5a-eb6d9f140b0c-parameters"
        }
      }, {
        "url": "http://hl7.org/fhir/us/cqfmeasures/StructureDefinition/cqfm-testCaseDescription",
        "valueMarkdown": "Patient with prostate cancer diagnosis with salvage therapy. Procedure after start of diagnosis."
      } ],
      "modifierExtension": [ {
        "url": "http://hl7.org/fhir/us/cqfmeasures/StructureDefinition/cqfm-isTestCase",
        "valueBoolean": true
      } ],
      "status": "complete",
      "type": "individual",
      "measure": "https://madie.cms.gov/Measure/CMS129FHIRProstCaBoneScanUse",
      "period": {
        "start": "2026-01-01",
        "end": "2026-12-31"
      },
      "group": [ {
        "id": "Group_1",
        "population": [ {
          "id": "InitialPopulation_1",
          "code": {
            "coding": [ {
              "system": "http://terminology.hl7.org/CodeSystem/measure-population",
              "code": "initial-population",
              "display": "Initial Population"
            } ]
          },
          "count": 1
        }, {
          "id": "Denominator_1",
          "code": {
            "coding": [ {
              "system": "http://terminology.hl7.org/CodeSystem/measure-population",
              "code": "denominator",
              "display": "Denominator"
            } ]
          },
          "count": 1
        }, {
          "id": "Numerator_1",
          "code": {
            "coding": [ {
              "system": "http://terminology.hl7.org/CodeSystem/measure-population",
              "code": "numerator",
              "display": "Numerator"
            } ]
          },
          "count": 0
        }, {
          "id": "DenominatorException_1",
          "code": {
            "coding": [ {
              "system": "http://terminology.hl7.org/CodeSystem/measure-population",
              "code": "denominator-exception",
              "display": "Denominator Exception"
            } ]
          },
          "count": 1
        } ],
        "measureScore": {
          "value": 1.0
        }
      } ],
      "evaluatedResource": [ {
        "reference": "Patient/187cc99d-9cb5-442f-8201-3695e5358101"
      }, {
        "reference": "Condition/e9657e50-cc93-4375-aca9-eed900481791"
      }, {
        "reference": "Procedure/a86d44e6-54f0-49ba-b1d8-8e1b57b5404a"
      }, {
        "reference": "Observation/37efaeb4-29b7-45f6-b2d5-089b3d9378ba"
      }, {
        "reference": "Observation/0048c4a9-70b1-4e4e-b2e5-98c5822024ec"
      }, {
        "reference": "Observation/e0a7d986-58bd-4351-bc8e-1fbd9a46a014"
      }, {
        "reference": "Observation/53ca6113-2e83-4b48-98b6-4b8b5f7e3759"
      }, {
        "reference": "Procedure/ecb3ba17-4f0f-4a5a-a3fb-5876ddf7ccb8"
      }, {
        "reference": "Coverage/4acdf800-ec7f-40ad-9241-452282e41d92"
      }, {
        "reference": "Organization/a37280d9-fd39-475f-af4a-18494e73bf45"
      }, {
        "reference": "Practitioner/6a7728df-971b-4c78-b55c-19cb26781b63"
      } ]
    }
  } ]
}