{
  "resourceType": "Bundle",
  "id": "NUMEXPass-FallPOA2ndFallWithInjuryDuringEnc",
  "type": "transaction",
  "entry": [ {
    "fullUrl": "https://madie.cms.gov/Patient/a2630a47-3cd8-470c-9fe2-8f4e1066a2d0",
    "resource": {
      "resourceType": "Patient",
      "id": "a2630a47-3cd8-470c-9fe2-8f4e1066a2d0",
      "meta": {
        "profile": [ "http://hl7.org/fhir/us/qicore/StructureDefinition/qicore-patient" ]
      },
      "extension": [ {
        "url": "http://hl7.org/fhir/us/core/StructureDefinition/us-core-race",
        "extension": [ {
          "url": "ombCategory",
          "valueCoding": {
            "system": "urn:oid:2.16.840.1.113883.6.238",
            "code": "2028-9",
            "display": "Asian",
            "userSelected": true
          }
        }, {
          "url": "text",
          "valueString": "Asian"
        } ]
      }, {
        "url": "http://hl7.org/fhir/us/core/StructureDefinition/us-core-ethnicity",
        "extension": [ {
          "url": "ombCategory",
          "valueCoding": {
            "system": "urn:oid:2.16.840.1.113883.6.238",
            "code": "2186-5",
            "display": "Not Hispanic or Latino",
            "userSelected": true
          }
        }, {
          "url": "text",
          "valueString": "Not Hispanic or Latino"
        } ]
      } ],
      "identifier": [ {
        "type": {
          "coding": [ {
            "system": "http://terminology.hl7.org/CodeSystem/v2-0203",
            "code": "MR"
          } ]
        },
        "system": "https://bonnie-fhir.healthit.gov/",
        "value": "61152a3b98086b7a79cbd7c1"
      } ],
      "active": true,
      "name": [ {
        "use": "usual",
        "family": "NUMEXPass",
        "given": [ "FallPOA2ndFallWithInjuryDuringEnc" ]
      } ],
      "gender": "male",
      "birthDate": "1992-09-09"
    },
    "request": {
      "method": "PUT",
      "url": "Patient/a2630a47-3cd8-470c-9fe2-8f4e1066a2d0"
    }
  }, {
    "fullUrl": "https://madie.cms.gov/Encounter/d6ce8c7f-87d1-48e6-8f2c-a36e582d3b1d",
    "resource": {
      "resourceType": "Encounter",
      "id": "d6ce8c7f-87d1-48e6-8f2c-a36e582d3b1d",
      "meta": {
        "profile": [ "http://hl7.org/fhir/us/qicore/StructureDefinition/qicore-encounter" ]
      },
      "status": "finished",
      "class": {
        "system": "http://terminology.hl7.org/CodeSystem/v3-ActCode",
        "code": "IMP",
        "display": "inpatient encounter"
      },
      "type": [ {
        "coding": [ {
          "system": "http://snomed.info/sct",
          "code": "183452005"
        } ]
      } ],
      "subject": {
        "reference": "Patient/a2630a47-3cd8-470c-9fe2-8f4e1066a2d0"
      },
      "period": {
        "start": "2026-11-09T11:00:00.000+00:00",
        "end": "2026-11-12T08:15:00.000+00:00"
      },
      "reasonCode": [ {
        "coding": [ {
          "system": "http://snomed.info/sct",
          "code": "14047009"
        } ]
      }, {
        "coding": [ {
          "system": "http://hl7.org/fhir/sid/icd-10-cm",
          "code": "W08.XXXA"
        } ]
      }, {
        "coding": [ {
          "system": "http://hl7.org/fhir/sid/icd-10-cm",
          "code": "S01.00XA"
        } ]
      } ]
    },
    "request": {
      "method": "PUT",
      "url": "Encounter/d6ce8c7f-87d1-48e6-8f2c-a36e582d3b1d"
    }
  }, {
    "fullUrl": "https://madie.cms.gov/Encounter/45d7ed73-5441-4b6c-b6f5-c2ef9f87630d",
    "resource": {
      "resourceType": "Encounter",
      "id": "45d7ed73-5441-4b6c-b6f5-c2ef9f87630d",
      "meta": {
        "profile": [ "http://hl7.org/fhir/us/qicore/StructureDefinition/qicore-encounter" ]
      },
      "status": "finished",
      "class": {
        "system": "http://terminology.hl7.org/CodeSystem/v3-ActCode",
        "code": "IMP",
        "display": "inpatient encounter"
      },
      "type": [ {
        "coding": [ {
          "system": "http://snomed.info/sct",
          "code": "4525004"
        } ]
      } ],
      "subject": {
        "reference": "Patient/a2630a47-3cd8-470c-9fe2-8f4e1066a2d0"
      },
      "period": {
        "start": "2026-11-09T08:00:00.000+00:00",
        "end": "2026-11-09T10:15:00.000+00:00"
      }
    },
    "request": {
      "method": "PUT",
      "url": "Encounter/45d7ed73-5441-4b6c-b6f5-c2ef9f87630d"
    }
  }, {
    "fullUrl": "https://madie.cms.gov/AdverseEvent/217e8274-7d5c-438e-b74b-a0d1c97f0fd5",
    "resource": {
      "resourceType": "AdverseEvent",
      "id": "217e8274-7d5c-438e-b74b-a0d1c97f0fd5",
      "meta": {
        "profile": [ "http://hl7.org/fhir/us/qicore/StructureDefinition/qicore-adverseevent" ]
      },
      "actuality": "actual",
      "event": {
        "coding": [ {
          "system": "http://hl7.org/fhir/sid/icd-10-cm",
          "code": "W08.XXXA"
        } ]
      },
      "subject": {
        "reference": "Patient/a2630a47-3cd8-470c-9fe2-8f4e1066a2d0"
      },
      "encounter": {
        "reference": "Encounter/d6ce8c7f-87d1-48e6-8f2c-a36e582d3b1d"
      },
      "date": "2026-11-10T11:00:00.000+00:00"
    },
    "request": {
      "method": "PUT",
      "url": "AdverseEvent/217e8274-7d5c-438e-b74b-a0d1c97f0fd5"
    }
  }, {
    "fullUrl": "https://madie.cms.gov/Claim/26c6ad6b-e0a4-400e-bf30-5f05a25f17fc",
    "resource": {
      "resourceType": "Claim",
      "id": "26c6ad6b-e0a4-400e-bf30-5f05a25f17fc",
      "meta": {
        "profile": [ "http://hl7.org/fhir/us/qicore/StructureDefinition/qicore-claim" ]
      },
      "status": "active",
      "type": {
        "coding": [ {
          "system": "http://terminology.hl7.org/CodeSystem/claim-type",
          "code": "professional",
          "display": "Professional"
        } ]
      },
      "use": "claim",
      "patient": {
        "reference": "Patient/a2630a47-3cd8-470c-9fe2-8f4e1066a2d0"
      },
      "created": "2026-11-12",
      "provider": {
        "reference": "Practitioner/32f0083c-4232-4252-832a-fbcd779131c1"
      },
      "priority": {
        "coding": [ {
          "system": "http://terminology.hl7.org/CodeSystem/processpriority",
          "code": "normal"
        } ]
      },
      "diagnosis": [ {
        "sequence": 1,
        "diagnosisCodeableConcept": {
          "coding": [ {
            "system": "http://snomed.info/sct",
            "code": "14047009"
          } ]
        },
        "onAdmission": {
          "coding": [ {
            "system": "https://www.cms.gov/Medicare/Medicare-Fee-for-Service-Payment/HospitalAcqCond/Coding",
            "code": "Y"
          } ]
        }
      } ],
      "insurance": [ {
        "sequence": 1,
        "focal": true,
        "coverage": {
          "reference": "Coverage/75ed6888-c7ce-41ce-873e-7978cb701bd9"
        }
      } ],
      "item": [ {
        "sequence": 1,
        "diagnosisSequence": [ 1, 2, 3 ],
        "productOrService": {
          "coding": [ {
            "system": "http://terminology.hl7.org/CodeSystem/ex-USCLS",
            "code": "1101"
          } ]
        },
        "encounter": [ {
          "reference": "Encounter/d6ce8c7f-87d1-48e6-8f2c-a36e582d3b1d"
        } ]
      } ]
    },
    "request": {
      "method": "PUT",
      "url": "Claim/26c6ad6b-e0a4-400e-bf30-5f05a25f17fc"
    }
  }, {
    "fullUrl": "https://madie.cms.gov/Claim/39759634-62c0-46fd-9ddd-b36c09986621",
    "resource": {
      "resourceType": "Claim",
      "id": "39759634-62c0-46fd-9ddd-b36c09986621",
      "meta": {
        "profile": [ "http://hl7.org/fhir/us/qicore/StructureDefinition/qicore-claim" ]
      },
      "status": "active",
      "type": {
        "coding": [ {
          "system": "http://terminology.hl7.org/CodeSystem/claim-type",
          "code": "professional",
          "display": "Professional"
        } ]
      },
      "use": "claim",
      "patient": {
        "reference": "Patient/a2630a47-3cd8-470c-9fe2-8f4e1066a2d0"
      },
      "created": "2026-11-12",
      "provider": {
        "reference": "Practitioner/32f0083c-4232-4252-832a-fbcd779131c1"
      },
      "priority": {
        "coding": [ {
          "system": "http://terminology.hl7.org/CodeSystem/processpriority",
          "code": "normal"
        } ]
      },
      "diagnosis": [ {
        "sequence": 2,
        "diagnosisCodeableConcept": {
          "coding": [ {
            "system": "http://hl7.org/fhir/sid/icd-10-cm",
            "code": "W08.XXXA"
          } ]
        },
        "onAdmission": {
          "coding": [ {
            "system": "https://www.cms.gov/Medicare/Medicare-Fee-for-Service-Payment/HospitalAcqCond/Coding",
            "code": "N"
          } ]
        }
      } ],
      "insurance": [ {
        "sequence": 1,
        "focal": true,
        "coverage": {
          "reference": "Coverage/75ed6888-c7ce-41ce-873e-7978cb701bd9"
        }
      } ],
      "item": [ {
        "sequence": 1,
        "diagnosisSequence": [ 1, 2 ],
        "productOrService": {
          "coding": [ {
            "system": "http://terminology.hl7.org/CodeSystem/ex-USCLS",
            "code": "1101"
          } ]
        },
        "encounter": [ {
          "reference": "Encounter/d6ce8c7f-87d1-48e6-8f2c-a36e582d3b1d"
        } ]
      } ]
    },
    "request": {
      "method": "PUT",
      "url": "Claim/39759634-62c0-46fd-9ddd-b36c09986621"
    }
  }, {
    "fullUrl": "https://madie.cms.gov/Claim/dca3e187-0f83-41fc-bfce-92ce4e994c12",
    "resource": {
      "resourceType": "Claim",
      "id": "dca3e187-0f83-41fc-bfce-92ce4e994c12",
      "meta": {
        "profile": [ "http://hl7.org/fhir/us/qicore/StructureDefinition/qicore-claim" ]
      },
      "status": "active",
      "type": {
        "coding": [ {
          "system": "http://terminology.hl7.org/CodeSystem/claim-type",
          "code": "professional",
          "display": "Professional"
        } ]
      },
      "use": "claim",
      "patient": {
        "reference": "Patient/a2630a47-3cd8-470c-9fe2-8f4e1066a2d0"
      },
      "created": "2026-11-12",
      "provider": {
        "reference": "Practitioner/32f0083c-4232-4252-832a-fbcd779131c1"
      },
      "priority": {
        "coding": [ {
          "system": "http://terminology.hl7.org/CodeSystem/processpriority",
          "code": "normal"
        } ]
      },
      "diagnosis": [ {
        "sequence": 3,
        "diagnosisCodeableConcept": {
          "coding": [ {
            "system": "http://hl7.org/fhir/sid/icd-10-cm",
            "code": "S01.00XA"
          } ]
        },
        "onAdmission": {
          "coding": [ {
            "system": "https://www.cms.gov/Medicare/Medicare-Fee-for-Service-Payment/HospitalAcqCond/Coding",
            "code": "N"
          } ]
        }
      } ],
      "insurance": [ {
        "sequence": 1,
        "focal": true,
        "coverage": {
          "reference": "Coverage/75ed6888-c7ce-41ce-873e-7978cb701bd9"
        }
      } ],
      "item": [ {
        "sequence": 1,
        "diagnosisSequence": [ 1, 2, 3 ],
        "productOrService": {
          "coding": [ {
            "system": "http://terminology.hl7.org/CodeSystem/ex-USCLS",
            "code": "1101"
          } ]
        },
        "encounter": [ {
          "reference": "Encounter/d6ce8c7f-87d1-48e6-8f2c-a36e582d3b1d"
        } ]
      } ]
    },
    "request": {
      "method": "PUT",
      "url": "Claim/dca3e187-0f83-41fc-bfce-92ce4e994c12"
    }
  }, {
    "fullUrl": "https://madie.cms.gov/Practitioner/32f0083c-4232-4252-832a-fbcd779131c1",
    "resource": {
      "resourceType": "Practitioner",
      "id": "32f0083c-4232-4252-832a-fbcd779131c1",
      "identifier": [ {
        "system": "http://www.cms.gov/identifiers/pracitioners",
        "value": "P12345"
      } ],
      "name": [ {
        "use": "official",
        "family": "Smith",
        "given": [ "John" ]
      } ],
      "qualification": [ {
        "identifier": [ {
          "system": "http://hl7.org/fhir/sid/us-npi",
          "value": "1234567890"
        } ],
        "code": {
          "coding": [ {
            "system": "http://terminology.hl7.org/CodeSystem/v2-0203",
            "code": "MD",
            "display": "Medical License number"
          } ]
        }
      } ]
    },
    "request": {
      "method": "PUT",
      "url": "Practitioner/32f0083c-4232-4252-832a-fbcd779131c1"
    }
  }, {
    "fullUrl": "https://madie.cms.gov/Coverage/75ed6888-c7ce-41ce-873e-7978cb701bd9",
    "resource": {
      "resourceType": "Coverage",
      "id": "75ed6888-c7ce-41ce-873e-7978cb701bd9",
      "status": "active",
      "beneficiary": {
        "reference": "Patient/a2630a47-3cd8-470c-9fe2-8f4e1066a2d0"
      },
      "payor": [ {
        "reference": "Organization/a1f6817d-9ec8-4251-9738-b840dd5600e5"
      } ]
    },
    "request": {
      "method": "PUT",
      "url": "Coverage/75ed6888-c7ce-41ce-873e-7978cb701bd9"
    }
  }, {
    "fullUrl": "https://madie.cms.gov/Organization/a1f6817d-9ec8-4251-9738-b840dd5600e5",
    "resource": {
      "resourceType": "Organization",
      "id": "a1f6817d-9ec8-4251-9738-b840dd5600e5",
      "identifier": [ {
        "system": "http://cms.gov/insurance-ids",
        "value": "AET12345"
      } ],
      "type": [ {
        "coding": [ {
          "system": "http://terminology.hl7.org/CodeSystem/organization-type",
          "code": "prov",
          "display": "Healthcare Provider"
        } ]
      } ],
      "name": "Aetna Insurance",
      "telecom": [ {
        "system": "phone",
        "value": "+1-800-123-4567"
      } ],
      "address": [ {
        "line": [ "123 Main Street" ],
        "city": "Cityville",
        "state": "CA",
        "postalCode": "12345",
        "country": "USA"
      } ]
    },
    "request": {
      "method": "PUT",
      "url": "Organization/a1f6817d-9ec8-4251-9738-b840dd5600e5"
    }
  }, {
    "fullUrl": "https://madie.cms.gov/MeasureReport/72b0c813-b97f-4a57-a57f-b333acf14b3b",
    "resource": {
      "resourceType": "MeasureReport",
      "id": "72b0c813-b97f-4a57-a57f-b333acf14b3b",
      "meta": {
        "profile": [ "http://hl7.org/fhir/us/cqfmeasures/StructureDefinition/test-case-cqfm" ]
      },
      "contained": [ {
        "resourceType": "Parameters",
        "id": "e4b6fb55-7475-4147-acda-53111d385a90-parameters",
        "parameter": [ {
          "name": "subject",
          "valueString": "a2630a47-3cd8-470c-9fe2-8f4e1066a2d0"
        } ]
      } ],
      "extension": [ {
        "url": "http://hl7.org/fhir/StructureDefinition/cqf-inputParameters",
        "valueReference": {
          "reference": "#e4b6fb55-7475-4147-acda-53111d385a90-parameters"
        }
      }, {
        "url": "http://hl7.org/fhir/us/cqfmeasures/StructureDefinition/cqfm-testCaseDescription",
        "valueMarkdown": "Encounter diagnoses include: Fall POA and Moderate injury NPOA. Patient has adverse event fall later in encounter (which meets Numerator), but is excluded from both MOs since Fall POA meets Num and Denom Exclusion."
      } ],
      "modifierExtension": [ {
        "url": "http://hl7.org/fhir/us/cqfmeasures/StructureDefinition/cqfm-isTestCase",
        "valueBoolean": true
      } ],
      "status": "complete",
      "type": "individual",
      "measure": "https://madie.cms.gov/Measure/CMS1017FHIRHHFI",
      "period": {
        "start": "2026-01-01",
        "end": "2026-12-31"
      },
      "group": [ {
        "id": "Group_1",
        "population": [ {
          "id": "InitialPopulation_1",
          "code": {
            "coding": [ {
              "system": "http://terminology.hl7.org/CodeSystem/measure-population",
              "code": "initial-population",
              "display": "Initial Population"
            } ]
          },
          "count": 1
        }, {
          "id": "Denominator_1",
          "code": {
            "coding": [ {
              "system": "http://terminology.hl7.org/CodeSystem/measure-population",
              "code": "denominator",
              "display": "Denominator"
            } ]
          },
          "count": 1
        }, {
          "id": "DenominatorExclusion_1",
          "code": {
            "coding": [ {
              "system": "http://terminology.hl7.org/CodeSystem/measure-population",
              "code": "denominator-exclusion",
              "display": "Denominator Exclusion"
            } ]
          },
          "count": 1
        }, {
          "id": "Numerator_1",
          "code": {
            "coding": [ {
              "system": "http://terminology.hl7.org/CodeSystem/measure-population",
              "code": "numerator",
              "display": "Numerator"
            } ]
          },
          "count": 1
        }, {
          "id": "NumeratorExclusion_1",
          "code": {
            "coding": [ {
              "system": "http://terminology.hl7.org/CodeSystem/measure-population",
              "code": "numerator-exclusion",
              "display": "Numerator Exclusion"
            } ]
          },
          "count": 1
        } ],
        "measureScore": {
          "value": 0.0
        }
      } ],
      "evaluatedResource": [ {
        "reference": "Patient/a2630a47-3cd8-470c-9fe2-8f4e1066a2d0"
      }, {
        "reference": "Encounter/d6ce8c7f-87d1-48e6-8f2c-a36e582d3b1d"
      }, {
        "reference": "Encounter/45d7ed73-5441-4b6c-b6f5-c2ef9f87630d"
      }, {
        "reference": "AdverseEvent/217e8274-7d5c-438e-b74b-a0d1c97f0fd5"
      }, {
        "reference": "Claim/26c6ad6b-e0a4-400e-bf30-5f05a25f17fc"
      }, {
        "reference": "Claim/39759634-62c0-46fd-9ddd-b36c09986621"
      }, {
        "reference": "Claim/dca3e187-0f83-41fc-bfce-92ce4e994c12"
      }, {
        "reference": "Practitioner/32f0083c-4232-4252-832a-fbcd779131c1"
      }, {
        "reference": "Coverage/75ed6888-c7ce-41ce-873e-7978cb701bd9"
      }, {
        "reference": "Organization/a1f6817d-9ec8-4251-9738-b840dd5600e5"
      } ]
    },
    "request": {
      "method": "PUT",
      "url": "MeasureReport/72b0c813-b97f-4a57-a57f-b333acf14b3b"
    }
  } ]
}