{
  "resourceType": "Bundle",
  "id": "62b1e15a3968556e5150cf3b",
  "type": "collection",
  "entry": [ {
    "fullUrl": "https://madie.cms.gov/Patient/cf76e904-95bd-445d-8384-62be012b76f6",
    "resource": {
      "resourceType": "Patient",
      "id": "cf76e904-95bd-445d-8384-62be012b76f6",
      "meta": {
        "profile": [ "http://hl7.org/fhir/us/qicore/StructureDefinition/qicore-patient" ]
      },
      "extension": [ {
        "url": "http://hl7.org/fhir/us/core/StructureDefinition/us-core-race",
        "extension": [ {
          "url": "ombCategory",
          "valueCoding": {
            "system": "urn:oid:2.16.840.1.113883.6.238",
            "code": "1002-5",
            "display": "American Indian or Alaska Native",
            "userSelected": true
          }
        }, {
          "url": "text",
          "valueString": "American Indian or Alaska Native"
        } ]
      }, {
        "url": "http://hl7.org/fhir/us/core/StructureDefinition/us-core-ethnicity",
        "extension": [ {
          "url": "ombCategory",
          "valueCoding": {
            "system": "urn:oid:2.16.840.1.113883.6.238",
            "code": "2135-2",
            "display": "Hispanic or Latino",
            "userSelected": true
          }
        }, {
          "url": "text",
          "valueString": "Hispanic or Latino"
        } ]
      }, {
        "url": "http://hl7.org/fhir/us/core/StructureDefinition/us-core-sex",
        "valueCode": "248153007"
      } ],
      "identifier": [ {
        "type": {
          "coding": [ {
            "system": "http://terminology.hl7.org/CodeSystem/v2-0203",
            "code": "MR"
          } ]
        },
        "system": "https://bonnie-fhir.healthit.gov/",
        "value": "62b1e15a3968556e5150cf3b"
      } ],
      "name": [ {
        "family": "DENOMEXPass",
        "given": [ "AdolescentHistoryOfBipolarRemission" ]
      } ],
      "gender": "male",
      "birthDate": "2009-01-01"
    }
  }, {
    "fullUrl": "https://madie.cms.gov/Encounter/cb82b74a-4e23-4e8d-8a7e-4dbf30bee748",
    "resource": {
      "resourceType": "Encounter",
      "id": "cb82b74a-4e23-4e8d-8a7e-4dbf30bee748",
      "meta": {
        "profile": [ "http://hl7.org/fhir/us/qicore/StructureDefinition/qicore-encounter" ]
      },
      "status": "finished",
      "class": {
        "system": "http://terminology.hl7.org/CodeSystem/v3-ActCode",
        "code": "AMB",
        "display": "ambulatory"
      },
      "type": [ {
        "coding": [ {
          "system": "http://snomed.info/sct",
          "code": "10197000",
          "display": "Psychiatric interview and evaluation (procedure)",
          "userSelected": true
        } ]
      } ],
      "subject": {
        "reference": "Patient/cf76e904-95bd-445d-8384-62be012b76f6"
      },
      "period": {
        "start": "2026-01-01T08:00:00.000Z",
        "end": "2026-01-01T08:15:00.000Z"
      }
    }
  }, {
    "fullUrl": "https://madie.cms.gov/Condition/e85a7860-ead5-413c-88b6-b737876cbe66",
    "resource": {
      "resourceType": "Condition",
      "id": "e85a7860-ead5-413c-88b6-b737876cbe66",
      "meta": {
        "profile": [ "http://hl7.org/fhir/us/qicore/StructureDefinition/qicore-condition-problems-health-concerns" ]
      },
      "clinicalStatus": {
        "coding": [ {
          "system": "http://terminology.hl7.org/CodeSystem/condition-clinical",
          "code": "active",
          "display": "active",
          "userSelected": true
        } ]
      },
      "category": [ {
        "coding": [ {
          "system": "http://terminology.hl7.org/CodeSystem/condition-category",
          "code": "problem-list-item",
          "display": "Problem List Item"
        } ]
      } ],
      "code": {
        "coding": [ {
          "system": "http://snomed.info/sct",
          "code": "12969000",
          "display": "Severe bipolar II disorder, most recent episode major depressive, in full remission (disorder)",
          "userSelected": true
        } ]
      },
      "subject": {
        "reference": "Patient/cf76e904-95bd-445d-8384-62be012b76f6"
      },
      "onsetDateTime": "2021-12-31T23:59:00.000Z"
    }
  }, {
    "fullUrl": "https://madie.cms.gov/Coverage/12f9d9bd-559b-4478-b0ac-23fd8ed18408",
    "resource": {
      "resourceType": "Coverage",
      "id": "12f9d9bd-559b-4478-b0ac-23fd8ed18408",
      "meta": {
        "profile": [ "http://hl7.org/fhir/us/qicore/StructureDefinition/qicore-coverage" ]
      },
      "status": "active",
      "type": {
        "coding": [ {
          "system": "https://nahdo.org/sopt",
          "code": "123",
          "display": "Medicare Medical Savings Account (MSA)",
          "userSelected": true
        } ]
      },
      "subscriberId": "123456789",
      "beneficiary": {
        "reference": "Patient/cf76e904-95bd-445d-8384-62be012b76f6"
      },
      "relationship": {
        "coding": [ {
          "system": "http://terminology.hl7.org/CodeSystem/subscriber-relationship",
          "code": "self",
          "display": "Self",
          "userSelected": true
        } ]
      },
      "period": {
        "start": "2021-01-01T08:00:00.000Z",
        "end": "2026-01-01T08:15:00.000Z"
      },
      "payor": [ {
        "reference": "Organization/a08afc74-36ac-4065-9339-97fa4607dc4a"
      } ]
    }
  }, {
    "fullUrl": "https://madie.cms.gov/Organization/a08afc74-36ac-4065-9339-97fa4607dc4a",
    "resource": {
      "resourceType": "Organization",
      "id": "a08afc74-36ac-4065-9339-97fa4607dc4a",
      "meta": {
        "profile": [ "http://hl7.org/fhir/us/qicore/StructureDefinition/qicore-organization" ]
      },
      "identifier": [ {
        "use": "temp",
        "system": "urn:oid:2.16.840.1.113883.4.4",
        "value": "21-3259825"
      } ],
      "active": true,
      "type": [ {
        "coding": [ {
          "system": "http://terminology.hl7.org/CodeSystem/organization-type",
          "code": "pay",
          "display": "Payer"
        } ]
      } ],
      "name": "Blue Cross Blue Shield of Texas",
      "telecom": [ {
        "system": "phone",
        "value": "(+1) 972-766-6900"
      } ],
      "address": [ {
        "use": "billing",
        "type": "postal",
        "line": [ "P.O. Box 660044" ],
        "city": "Dallas",
        "state": "TX",
        "postalCode": "75266-0044",
        "country": "USA"
      } ]
    }
  }, {
    "fullUrl": "https://madie.cms.gov/Practitioner/1c994a6d-7668-4f16-af3a-d0bcab803be5",
    "resource": {
      "resourceType": "Practitioner",
      "id": "1c994a6d-7668-4f16-af3a-d0bcab803be5",
      "meta": {
        "profile": [ "http://hl7.org/fhir/us/qicore/StructureDefinition/qicore-practitioner" ]
      },
      "identifier": [ {
        "system": "http://hl7.org/fhir/sid/us-npi",
        "value": "1234567893"
      } ],
      "name": [ {
        "family": "Evil",
        "prefix": [ "Dr" ]
      } ]
    }
  }, {
    "fullUrl": "https://madie.cms.gov/MeasureReport/0167b60a-8e6c-439e-afc4-1b7771cadbb5",
    "resource": {
      "resourceType": "MeasureReport",
      "id": "0167b60a-8e6c-439e-afc4-1b7771cadbb5",
      "meta": {
        "profile": [ "http://hl7.org/fhir/us/cqfmeasures/StructureDefinition/test-case-cqfm" ]
      },
      "contained": [ {
        "resourceType": "Parameters",
        "id": "5e5a132e-4068-449b-9d02-0b267168d95c-parameters",
        "parameter": [ {
          "name": "subject",
          "valueString": "cf76e904-95bd-445d-8384-62be012b76f6"
        } ]
      } ],
      "extension": [ {
        "url": "http://hl7.org/fhir/StructureDefinition/cqf-inputParameters",
        "valueReference": {
          "reference": "#5e5a132e-4068-449b-9d02-0b267168d95c-parameters"
        }
      }, {
        "url": "http://hl7.org/fhir/us/cqfmeasures/StructureDefinition/cqfm-testCaseDescription",
        "valueMarkdown": "17 yo patient on first day of MP with history of bipolar – remission day before MP starts"
      } ],
      "modifierExtension": [ {
        "url": "http://hl7.org/fhir/us/cqfmeasures/StructureDefinition/cqfm-isTestCase",
        "valueBoolean": true
      } ],
      "status": "complete",
      "type": "individual",
      "measure": "https://madie.cms.gov/Measure/CMS2FHIRPCSDepScreenAndFollowUp",
      "period": {
        "start": "2026-01-01",
        "end": "2026-12-31"
      },
      "group": [ {
        "id": "Group_1",
        "population": [ {
          "id": "InitialPopulation_1",
          "code": {
            "coding": [ {
              "system": "http://terminology.hl7.org/CodeSystem/measure-population",
              "code": "initial-population",
              "display": "Initial Population"
            } ]
          },
          "count": 1
        }, {
          "id": "Denominator_1",
          "code": {
            "coding": [ {
              "system": "http://terminology.hl7.org/CodeSystem/measure-population",
              "code": "denominator",
              "display": "Denominator"
            } ]
          },
          "count": 1
        }, {
          "id": "DenominatorExclusion_1",
          "code": {
            "coding": [ {
              "system": "http://terminology.hl7.org/CodeSystem/measure-population",
              "code": "denominator-exclusion",
              "display": "Denominator Exclusion"
            } ]
          },
          "count": 1
        }, {
          "id": "Numerator_1",
          "code": {
            "coding": [ {
              "system": "http://terminology.hl7.org/CodeSystem/measure-population",
              "code": "numerator",
              "display": "Numerator"
            } ]
          },
          "count": 0
        }, {
          "id": "DenominatorException_1",
          "code": {
            "coding": [ {
              "system": "http://terminology.hl7.org/CodeSystem/measure-population",
              "code": "denominator-exception",
              "display": "Denominator Exception"
            } ]
          },
          "count": 0
        } ],
        "measureScore": {
          "value": 1.0
        }
      } ],
      "evaluatedResource": [ {
        "reference": "Patient/cf76e904-95bd-445d-8384-62be012b76f6"
      }, {
        "reference": "Encounter/cb82b74a-4e23-4e8d-8a7e-4dbf30bee748"
      }, {
        "reference": "Condition/e85a7860-ead5-413c-88b6-b737876cbe66"
      }, {
        "reference": "Coverage/12f9d9bd-559b-4478-b0ac-23fd8ed18408"
      }, {
        "reference": "Organization/a08afc74-36ac-4065-9339-97fa4607dc4a"
      }, {
        "reference": "Practitioner/1c994a6d-7668-4f16-af3a-d0bcab803be5"
      } ]
    }
  } ]
}