{
  "resourceType": "Bundle",
  "id": "633c9d030968f8012250fc71",
  "type": "transaction",
  "entry": [ {
    "fullUrl": "https://madie.cms.gov/Patient/de0b5b09-c285-4e02-b82c-ad23eb00febf",
    "resource": {
      "resourceType": "Patient",
      "id": "de0b5b09-c285-4e02-b82c-ad23eb00febf",
      "meta": {
        "profile": [ "http://hl7.org/fhir/us/qicore/StructureDefinition/qicore-patient" ]
      },
      "text": {
        "status": "generated",
        "div": "<div xmlns=\"http://www.w3.org/1999/xhtml\"><div class=\"hapiHeaderText\">Age=18ondayOfEnc <b>IPPPASS </b></div><table class=\"hapiPropertyTable\"><tbody><tr><td>Identifier</td><td>384b0a61298e7a9ca56a87b5bee0a043</td></tr><tr><td>Date of birth</td><td><span>08 February 1994</span></td></tr></tbody></table></div>"
      },
      "extension": [ {
        "url": "http://hl7.org/fhir/us/core/StructureDefinition/us-core-race",
        "extension": [ {
          "url": "ombCategory",
          "valueCoding": {
            "system": "urn:oid:2.16.840.1.113883.6.238",
            "code": "1002-5",
            "display": "American Indian or Alaska Native",
            "userSelected": true
          }
        }, {
          "url": "text",
          "valueString": "American Indian or Alaska Native"
        } ]
      }, {
        "url": "http://hl7.org/fhir/us/core/StructureDefinition/us-core-ethnicity",
        "extension": [ {
          "url": "ombCategory",
          "valueCoding": {
            "system": "urn:oid:2.16.840.1.113883.6.238",
            "code": "2135-2",
            "display": "Hispanic or Latino",
            "userSelected": true
          }
        }, {
          "url": "text",
          "valueString": "Hispanic or Latino"
        } ]
      } ],
      "identifier": [ {
        "type": {
          "coding": [ {
            "system": "http://terminology.hl7.org/CodeSystem/v2-0203",
            "code": "MR"
          } ]
        },
        "system": "https://bonnie-fhir.healthit.gov/",
        "value": "633c9d030968f8012250fc71"
      } ],
      "active": true,
      "name": [ {
        "use": "usual",
        "family": "IPPPass",
        "given": [ "Ageeq18" ]
      } ],
      "gender": "male",
      "birthDate": "2007-02-08"
    },
    "request": {
      "method": "PUT",
      "url": "Patient/de0b5b09-c285-4e02-b82c-ad23eb00febf"
    }
  }, {
    "fullUrl": "https://madie.cms.gov/Encounter/74ef1d1f-0a0d-4828-bf65-493af57125c3",
    "resource": {
      "resourceType": "Encounter",
      "id": "74ef1d1f-0a0d-4828-bf65-493af57125c3",
      "meta": {
        "profile": [ "http://hl7.org/fhir/us/qicore/StructureDefinition/qicore-encounter" ]
      },
      "status": "finished",
      "class": {
        "system": "http://terminology.hl7.org/CodeSystem/v3-ActCode",
        "code": "IMP",
        "display": "inpatient encounter"
      },
      "type": [ {
        "coding": [ {
          "system": "http://snomed.info/sct",
          "code": "32485007"
        } ]
      } ],
      "subject": {
        "reference": "Patient/de0b5b09-c285-4e02-b82c-ad23eb00febf"
      },
      "period": {
        "start": "2026-02-08T08:00:00.000+00:00",
        "end": "2026-02-10T08:15:00.000+00:00"
      },
      "length": {
        "value": 2,
        "unit": "days"
      },
      "diagnosis": [ {
        "condition": {
          "reference": "Condition/6fc5b4f0-2eec-4885-97fb-cea88f5d1fe5"
        },
        "use": {
          "coding": [ {
            "system": "http://terminology.hl7.org/CodeSystem/diagnosis-role",
            "code": "billing",
            "display": "Billing"
          } ]
        },
        "rank": 1
      } ]
    },
    "request": {
      "method": "PUT",
      "url": "Encounter/74ef1d1f-0a0d-4828-bf65-493af57125c3"
    }
  }, {
    "fullUrl": "https://madie.cms.gov/claim/5ca62962b8484628b8de1ec5",
    "resource": {
      "resourceType": "Claim",
      "id": "5ca62962b8484628b8de1ec5",
      "meta": {
        "profile": [ "http://hl7.org/fhir/us/qicore/StructureDefinition/qicore-claim" ]
      },
      "status": "active",
      "type": {
        "coding": [ {
          "system": "http://terminology.hl7.org/CodeSystem/claim-type",
          "code": "institutional"
        } ]
      },
      "use": "claim",
      "patient": {
        "reference": "Patient/d170a0a8-b5ad-4303-b6df-e304dd5f92ad"
      },
      "created": "2026-12-01",
      "provider": {
        "reference": "Practitioner/99f1b067-9de9-4fd2-b58e-405b6d54611a"
      },
      "priority": {
        "coding": [ {
          "system": "http://terminology.hl7.org/CodeSystem/processpriority",
          "code": "normal"
        } ]
      },
      "diagnosis": [ {
        "sequence": 1,
        "diagnosisCodeableConcept": {
          "coding": [ {
            "system": "http://hl7.org/fhir/sid/icd-10-cm",
            "code": "I63.00"
          } ]
        },
        "type": [ {
          "coding": [ {
            "system": "http://terminology.hl7.org/CodeSystem/ex-diagnosistype",
            "code": "principal"
          } ]
        } ]
      } ],
      "insurance": [ {
        "sequence": 1,
        "focal": true,
        "coverage": {
          "reference": "Coverage/5fa041661c76ba66d9959367"
        }
      } ],
      "item": [ {
        "sequence": 1,
        "diagnosisSequence": [ 1 ],
        "productOrService": {
          "coding": [ {
            "system": "http://terminology.hl7.org/CodeSystem/ex-USCLS",
            "code": "99555"
          } ]
        },
        "encounter": [ {
          "reference": "Encounter/74ef1d1f-0a0d-4828-bf65-493af57125c3"
        } ]
      } ]
    },
    "request": {
      "method": "PUT",
      "url": "Claim/5ca62962b8484628b8de1ec5"
    }
  }, {
    "fullUrl": "https://madie.cms.gov/Coverage/c61c59e9-46d2-4cc2-86ff-ed7855ef1d19",
    "resource": {
      "resourceType": "Coverage",
      "id": "c61c59e9-46d2-4cc2-86ff-ed7855ef1d19",
      "status": "active",
      "beneficiary": {
        "reference": "Patient/de0b5b09-c285-4e02-b82c-ad23eb00febf"
      },
      "period": {
        "start": "1995-02-08T08:00:00.000+00:00"
      },
      "payor": [ {
        "reference": "Organization/4d812b00-54b1-4462-aa03-48b04c659a7b"
      } ]
    },
    "request": {
      "method": "PUT",
      "url": "Coverage/c61c59e9-46d2-4cc2-86ff-ed7855ef1d19"
    }
  }, {
    "fullUrl": "https://madie.cms.gov/Condition/6fc5b4f0-2eec-4885-97fb-cea88f5d1fe5",
    "resource": {
      "resourceType": "Condition",
      "id": "6fc5b4f0-2eec-4885-97fb-cea88f5d1fe5",
      "meta": {
        "profile": [ "http://hl7.org/fhir/us/qicore/StructureDefinition/qicore-condition" ]
      },
      "clinicalStatus": {
        "coding": [ {
          "system": "http://terminology.hl7.org/CodeSystem/condition-clinical",
          "code": "active"
        } ]
      },
      "verificationStatus": {
        "coding": [ {
          "system": "http://terminology.hl7.org/CodeSystem/condition-ver-status",
          "code": "confirmed"
        } ]
      },
      "category": [ {
        "coding": [ {
          "system": "http://terminology.hl7.org/CodeSystem/condition-category",
          "code": "encounter-diagnosis",
          "display": "Encounter Diagnosis"
        } ]
      } ],
      "code": {
        "coding": [ {
          "system": "http://snomed.info/sct",
          "version": "2021-09",
          "code": "111297002",
          "display": "Nonparalytic stroke (disorder)",
          "userSelected": true
        } ]
      },
      "subject": {
        "reference": "Patient/de0b5b09-c285-4e02-b82c-ad23eb00febf"
      },
      "recordedDate": "2026-10-13T08:00:00.000+00:00"
    },
    "request": {
      "method": "PUT",
      "url": "Condition/6fc5b4f0-2eec-4885-97fb-cea88f5d1fe5"
    }
  }, {
    "fullUrl": "https://madie.cms.gov/Organization/4d812b00-54b1-4462-aa03-48b04c659a7b",
    "resource": {
      "resourceType": "Organization",
      "id": "4d812b00-54b1-4462-aa03-48b04c659a7b",
      "meta": {
        "profile": [ "http://hl7.org/fhir/us/qicore/StructureDefinition/qicore-organization" ]
      },
      "identifier": [ {
        "use": "temp",
        "system": "urn:oid:2.16.840.1.113883.4.4",
        "value": "21-3259825"
      } ],
      "active": true,
      "type": [ {
        "coding": [ {
          "system": "http://terminology.hl7.org/CodeSystem/organization-type",
          "code": "pay",
          "display": "Payer"
        } ]
      } ],
      "name": "Blue Cross Blue Shield of Texas",
      "telecom": [ {
        "system": "phone",
        "value": "(+1) 972-766-6900"
      } ],
      "address": [ {
        "use": "billing",
        "type": "postal",
        "line": [ "P.O. Box 660044" ],
        "city": "Dallas",
        "state": "TX",
        "postalCode": "75266-0044",
        "country": "USA"
      } ]
    },
    "request": {
      "method": "PUT",
      "url": "Organization/4d812b00-54b1-4462-aa03-48b04c659a7b"
    }
  }, {
    "fullUrl": "https://madie.cms.gov/Practitioner/99f1b067-9de9-4fd2-b58e-405b6d54611a",
    "resource": {
      "resourceType": "Practitioner",
      "id": "99f1b067-9de9-4fd2-b58e-405b6d54611a",
      "identifier": [ {
        "system": "http://hl7.org/fhir/sid/us-npi",
        "value": "123456"
      } ],
      "name": [ {
        "family": "Evil",
        "prefix": [ "Dr" ]
      } ]
    },
    "request": {
      "method": "PUT",
      "url": "Practitioner/99f1b067-9de9-4fd2-b58e-405b6d54611a"
    }
  }, {
    "fullUrl": "https://madie.cms.gov/MeasureReport/6adcc4c3-ce11-42b3-95b7-5ebb3677abe3",
    "resource": {
      "resourceType": "MeasureReport",
      "id": "6adcc4c3-ce11-42b3-95b7-5ebb3677abe3",
      "meta": {
        "profile": [ "http://hl7.org/fhir/us/cqfmeasures/StructureDefinition/test-case-cqfm" ]
      },
      "contained": [ {
        "resourceType": "Parameters",
        "id": "a94322e4-64b6-41f0-a04f-dc0fd282bd2f-parameters",
        "parameter": [ {
          "name": "subject",
          "valueString": "de0b5b09-c285-4e02-b82c-ad23eb00febf"
        } ]
      } ],
      "extension": [ {
        "url": "http://hl7.org/fhir/StructureDefinition/cqf-inputParameters",
        "valueReference": {
          "reference": "#a94322e4-64b6-41f0-a04f-dc0fd282bd2f-parameters"
        }
      }, {
        "url": "http://hl7.org/fhir/us/cqfmeasures/StructureDefinition/cqfm-testCaseDescription",
        "valueMarkdown": "Principal diagnosis = ischemic stroke, patient turns 18 on OccurA starts\n"
      } ],
      "modifierExtension": [ {
        "url": "http://hl7.org/fhir/us/cqfmeasures/StructureDefinition/cqfm-isTestCase",
        "valueBoolean": true
      } ],
      "status": "complete",
      "type": "individual",
      "measure": "https://madie.cms.gov/Measure/CMS71FHIRSTKAnticoagAFFlutter",
      "period": {
        "start": "2026-01-01",
        "end": "2026-12-31"
      },
      "group": [ {
        "id": "Group_1",
        "population": [ {
          "id": "InitialPopulation_1",
          "code": {
            "coding": [ {
              "system": "http://terminology.hl7.org/CodeSystem/measure-population",
              "code": "initial-population",
              "display": "Initial Population"
            } ]
          },
          "count": 1
        }, {
          "id": "Denominator_1",
          "code": {
            "coding": [ {
              "system": "http://terminology.hl7.org/CodeSystem/measure-population",
              "code": "denominator",
              "display": "Denominator"
            } ]
          },
          "count": 0
        }, {
          "id": "DenominatorExclusion_1",
          "code": {
            "coding": [ {
              "system": "http://terminology.hl7.org/CodeSystem/measure-population",
              "code": "denominator-exclusion",
              "display": "Denominator Exclusion"
            } ]
          },
          "count": 0
        }, {
          "id": "Numerator_1",
          "code": {
            "coding": [ {
              "system": "http://terminology.hl7.org/CodeSystem/measure-population",
              "code": "numerator",
              "display": "Numerator"
            } ]
          },
          "count": 0
        }, {
          "id": "DenominatorException_1",
          "code": {
            "coding": [ {
              "system": "http://terminology.hl7.org/CodeSystem/measure-population",
              "code": "denominator-exception",
              "display": "Denominator Exception"
            } ]
          },
          "count": 0
        } ],
        "measureScore": {
          "value": 0.0
        }
      } ],
      "evaluatedResource": [ {
        "reference": "Patient/de0b5b09-c285-4e02-b82c-ad23eb00febf"
      }, {
        "reference": "Encounter/74ef1d1f-0a0d-4828-bf65-493af57125c3"
      }, {
        "reference": "Claim/5ca62962b8484628b8de1ec5"
      }, {
        "reference": "Coverage/c61c59e9-46d2-4cc2-86ff-ed7855ef1d19"
      }, {
        "reference": "Condition/6fc5b4f0-2eec-4885-97fb-cea88f5d1fe5"
      }, {
        "reference": "Organization/4d812b00-54b1-4462-aa03-48b04c659a7b"
      }, {
        "reference": "Practitioner/99f1b067-9de9-4fd2-b58e-405b6d54611a"
      } ]
    },
    "request": {
      "method": "PUT",
      "url": "MeasureReport/6adcc4c3-ce11-42b3-95b7-5ebb3677abe3"
    }
  } ]
}