{
  "resourceType": "Bundle",
  "id": "63f628d8d289cd498bb84238",
  "type": "collection",
  "entry": [ {
    "fullUrl": "https://madie.cms.gov/Patient/3df53f41-2dd3-4f7c-9745-0566541661c4",
    "resource": {
      "resourceType": "Patient",
      "id": "3df53f41-2dd3-4f7c-9745-0566541661c4",
      "meta": {
        "profile": [ "http://hl7.org/fhir/us/qicore/StructureDefinition/qicore-patient" ]
      },
      "extension": [ {
        "url": "http://hl7.org/fhir/us/core/StructureDefinition/us-core-race",
        "extension": [ {
          "url": "ombCategory",
          "valueCoding": {
            "system": "urn:oid:2.16.840.1.113883.6.238",
            "code": "2028-9",
            "display": "Asian",
            "userSelected": true
          }
        }, {
          "url": "text",
          "valueString": "Asian"
        } ]
      }, {
        "url": "http://hl7.org/fhir/us/core/StructureDefinition/us-core-ethnicity",
        "extension": [ {
          "url": "ombCategory",
          "valueCoding": {
            "system": "urn:oid:2.16.840.1.113883.6.238",
            "code": "2135-2",
            "display": "Hispanic or Latino",
            "userSelected": true
          }
        }, {
          "url": "text",
          "valueString": "Hispanic or Latino"
        } ]
      } ],
      "identifier": [ {
        "type": {
          "coding": [ {
            "system": "http://terminology.hl7.org/CodeSystem/v2-0203",
            "code": "MR"
          } ]
        },
        "system": "https://bonnie-fhir.healthit.gov/",
        "value": "63f628d8d289cd498bb84238"
      } ],
      "name": [ {
        "family": "DENOMFail",
        "given": [ "FundusExam1MinB4EncStart" ]
      } ],
      "gender": "female",
      "birthDate": "1989-08-01"
    }
  }, {
    "fullUrl": "https://madie.cms.gov/Encounter/90232a94-1c56-418b-88f2-712f1be11700",
    "resource": {
      "resourceType": "Encounter",
      "id": "90232a94-1c56-418b-88f2-712f1be11700",
      "meta": {
        "profile": [ "http://hl7.org/fhir/us/qicore/StructureDefinition/qicore-encounter" ]
      },
      "status": "finished",
      "class": {
        "system": "http://terminology.hl7.org/CodeSystem/v3-ActCode",
        "code": "AMB",
        "display": "ambulatory",
        "userSelected": true
      },
      "type": [ {
        "coding": [ {
          "system": "http://snomed.info/sct",
          "version": "http://snomed.info/sct/731000124108/version/202303",
          "code": "18170008",
          "display": "Subsequent nursing facility visit (procedure)",
          "userSelected": true
        } ]
      } ],
      "subject": {
        "reference": "Patient/3df53f41-2dd3-4f7c-9745-0566541661c4"
      },
      "period": {
        "start": "2026-03-09T08:00:00.000+00:00",
        "end": "2026-03-09T08:15:00.000+00:00"
      }
    }
  }, {
    "fullUrl": "https://madie.cms.gov/Condition/aaf5db23-103d-4c95-866f-3bb851a53409",
    "resource": {
      "resourceType": "Condition",
      "id": "aaf5db23-103d-4c95-866f-3bb851a53409",
      "meta": {
        "profile": [ "http://hl7.org/fhir/us/qicore/StructureDefinition/qicore-condition-problems-health-concerns" ]
      },
      "clinicalStatus": {
        "coding": [ {
          "system": "http://terminology.hl7.org/CodeSystem/condition-clinical",
          "code": "active",
          "display": "active",
          "userSelected": true
        } ]
      },
      "category": [ {
        "coding": [ {
          "system": "http://terminology.hl7.org/CodeSystem/condition-category",
          "code": "problem-list-item",
          "display": "Problem List Item"
        } ]
      }, {
        "coding": [ {
          "system": "http://terminology.hl7.org/CodeSystem/condition-ver-status",
          "code": "confirmed",
          "display": "confirmed",
          "userSelected": true
        } ]
      } ],
      "code": {
        "coding": [ {
          "system": "http://snomed.info/sct",
          "version": "http://snomed.info/sct/731000124108/version/20250301",
          "code": "193349004",
          "display": "Preproliferative retinopathy due to diabetes mellitus (disorder)",
          "userSelected": true
        } ]
      },
      "subject": {
        "reference": "Patient/3df53f41-2dd3-4f7c-9745-0566541661c4"
      },
      "onsetDateTime": "2026-01-09T08:00:00.000+00:00"
    }
  }, {
    "fullUrl": "https://madie.cms.gov/Observation/69dfd79c-935a-45f6-9c00-33be75537459",
    "resource": {
      "resourceType": "Observation",
      "id": "69dfd79c-935a-45f6-9c00-33be75537459",
      "meta": {
        "profile": [ "http://hl7.org/fhir/us/qicore/StructureDefinition/qicore-observation-clinical-result" ]
      },
      "status": "final",
      "category": [ {
        "coding": [ {
          "system": "http://terminology.hl7.org/CodeSystem/condition-ver-status",
          "code": "confirmed",
          "display": "confirmed",
          "userSelected": true
        } ]
      }, {
        "coding": [ {
          "system": "http://terminology.hl7.org/CodeSystem/observation-category",
          "code": "survey"
        } ]
      } ],
      "code": {
        "coding": [ {
          "system": "http://loinc.org",
          "version": "2.73",
          "code": "32451-7",
          "display": "Physical findings of Macula",
          "userSelected": true
        } ]
      },
      "subject": {
        "reference": "Patient/3df53f41-2dd3-4f7c-9745-0566541661c4"
      },
      "effectiveDateTime": "2026-03-09T07:59:00.000+00:00",
      "issued": "2026-03-09T07:59:00.000+00:00",
      "valueBoolean": true
    }
  }, {
    "fullUrl": "https://madie.cms.gov/Coverage/addef219-820e-4f74-8ee8-ae29ebfc866b",
    "resource": {
      "resourceType": "Coverage",
      "id": "addef219-820e-4f74-8ee8-ae29ebfc866b",
      "meta": {
        "profile": [ "http://hl7.org/fhir/us/qicore/StructureDefinition/qicore-coverage" ]
      },
      "status": "active",
      "subscriberId": "123456",
      "beneficiary": {
        "reference": "Patient/3df53f41-2dd3-4f7c-9745-0566541661c4"
      },
      "relationship": {
        "coding": [ {
          "system": "http://terminology.hl7.org/CodeSystem/subscriber-relationship",
          "code": "self",
          "display": "Self"
        } ]
      },
      "payor": [ {
        "reference": "Organization/4daeaebb-c170-434b-81e1-48485364efa5"
      } ]
    }
  }, {
    "fullUrl": "https://madie.cms.gov/Organization/4daeaebb-c170-434b-81e1-48485364efa5",
    "resource": {
      "resourceType": "Organization",
      "id": "4daeaebb-c170-434b-81e1-48485364efa5",
      "meta": {
        "profile": [ "http://hl7.org/fhir/us/qicore/StructureDefinition/qicore-organization" ]
      },
      "identifier": [ {
        "use": "temp",
        "system": "urn:oid:2.16.840.1.113883.4.4",
        "value": "21-3259825"
      } ],
      "active": true,
      "type": [ {
        "coding": [ {
          "system": "http://terminology.hl7.org/CodeSystem/organization-type",
          "code": "pay",
          "display": "Payer"
        } ]
      } ],
      "name": "Blue Cross Blue Shield of Texas",
      "telecom": [ {
        "system": "phone",
        "value": "(+1) 972-766-6900"
      } ],
      "address": [ {
        "use": "billing",
        "type": "postal",
        "line": [ "P.O. Box 660044" ],
        "city": "Dallas",
        "state": "TX",
        "postalCode": "75266-0044",
        "country": "USA"
      } ]
    }
  }, {
    "fullUrl": "https://madie.cms.gov/Practitioner/eca3a83a-3388-45eb-812d-755600a7428d",
    "resource": {
      "resourceType": "Practitioner",
      "id": "eca3a83a-3388-45eb-812d-755600a7428d",
      "meta": {
        "profile": [ "http://hl7.org/fhir/us/qicore/StructureDefinition/qicore-practitioner" ]
      },
      "identifier": [ {
        "system": "http://hl7.org/fhir/sid/us-npi",
        "value": "1689411712"
      } ],
      "name": [ {
        "family": "Evil",
        "prefix": [ "Dr" ]
      } ]
    }
  }, {
    "fullUrl": "https://madie.cms.gov/MeasureReport/2b9adf9f-e289-41e4-ac96-37a9d5bd5629",
    "resource": {
      "resourceType": "MeasureReport",
      "id": "2b9adf9f-e289-41e4-ac96-37a9d5bd5629",
      "meta": {
        "profile": [ "http://hl7.org/fhir/us/cqfmeasures/StructureDefinition/test-case-cqfm" ]
      },
      "contained": [ {
        "resourceType": "Parameters",
        "id": "3cbefa1f-de82-4897-91a2-d8b42e183820-parameters",
        "parameter": [ {
          "name": "subject",
          "valueString": "3df53f41-2dd3-4f7c-9745-0566541661c4"
        } ]
      } ],
      "extension": [ {
        "url": "http://hl7.org/fhir/StructureDefinition/cqf-inputParameters",
        "valueReference": {
          "reference": "#3cbefa1f-de82-4897-91a2-d8b42e183820-parameters"
        }
      }, {
        "url": "http://hl7.org/fhir/us/cqfmeasures/StructureDefinition/cqfm-testCaseDescription",
        "valueMarkdown": "Fundus Exam is performed 1 minute before start of encounter and will not pass Denominator"
      } ],
      "modifierExtension": [ {
        "url": "http://hl7.org/fhir/us/cqfmeasures/StructureDefinition/cqfm-isTestCase",
        "valueBoolean": true
      } ],
      "status": "complete",
      "type": "individual",
      "measure": "https://madie.cms.gov/Measure/CMS142FHIRCommWithDrManagingDiab",
      "period": {
        "start": "2026-01-01",
        "end": "2026-12-31"
      },
      "group": [ {
        "id": "Group_1",
        "population": [ {
          "id": "InitialPopulation_1",
          "code": {
            "coding": [ {
              "system": "http://terminology.hl7.org/CodeSystem/measure-population",
              "code": "initial-population",
              "display": "Initial Population"
            } ]
          },
          "count": 1
        }, {
          "id": "Denominator_1",
          "code": {
            "coding": [ {
              "system": "http://terminology.hl7.org/CodeSystem/measure-population",
              "code": "denominator",
              "display": "Denominator"
            } ]
          },
          "count": 0
        }, {
          "id": "Numerator_1",
          "code": {
            "coding": [ {
              "system": "http://terminology.hl7.org/CodeSystem/measure-population",
              "code": "numerator",
              "display": "Numerator"
            } ]
          },
          "count": 0
        }, {
          "id": "DenominatorException_1",
          "code": {
            "coding": [ {
              "system": "http://terminology.hl7.org/CodeSystem/measure-population",
              "code": "denominator-exception",
              "display": "Denominator Exception"
            } ]
          },
          "count": 0
        } ],
        "measureScore": {
          "value": 1.0
        }
      } ],
      "evaluatedResource": [ {
        "reference": "Patient/3df53f41-2dd3-4f7c-9745-0566541661c4"
      }, {
        "reference": "Encounter/90232a94-1c56-418b-88f2-712f1be11700"
      }, {
        "reference": "Condition/aaf5db23-103d-4c95-866f-3bb851a53409"
      }, {
        "reference": "Observation/69dfd79c-935a-45f6-9c00-33be75537459"
      }, {
        "reference": "Coverage/addef219-820e-4f74-8ee8-ae29ebfc866b"
      }, {
        "reference": "Organization/4daeaebb-c170-434b-81e1-48485364efa5"
      }, {
        "reference": "Practitioner/eca3a83a-3388-45eb-812d-755600a7428d"
      } ]
    }
  } ]
}