{
  "resourceType": "Bundle",
  "id": "tests-NumerPass-RVwithAntihypertensiveOrderAtAdmission-bundle",
  "type": "transaction",
  "entry": [ {
    "fullUrl": "https://madie.cms.gov/Encounter/83ecaad2-b612-4d9a-b075-7112103385c4",
    "resource": {
      "resourceType": "Encounter",
      "id": "83ecaad2-b612-4d9a-b075-7112103385c4",
      "meta": {
        "profile": [ "http://hl7.org/fhir/us/qicore/StructureDefinition/qicore-encounter" ]
      },
      "status": "finished",
      "class": {
        "system": "http://terminology.hl7.org/CodeSystem/v3-ActCode",
        "code": "IMP",
        "display": "inpatient encounter"
      },
      "type": [ {
        "coding": [ {
          "system": "http://snomed.info/sct",
          "code": "183452005"
        } ]
      } ],
      "subject": {
        "reference": "Patient/56d5fe48-53b2-4599-870c-58bfc4ba0145"
      },
      "period": {
        "start": "2026-10-19T08:30:00.000+00:00",
        "end": "2026-10-31T08:15:00.000+00:00"
      },
      "reasonCode": [ {
        "coding": [ {
          "system": "http://snomed.info/sct",
          "code": "14047009"
        } ]
      }, {
        "coding": [ {
          "system": "http://snomed.info/sct",
          "code": "64859006"
        } ]
      } ]
    },
    "request": {
      "method": "PUT",
      "url": "Encounter/83ecaad2-b612-4d9a-b075-7112103385c4"
    }
  }, {
    "fullUrl": "https://madie.cms.gov/Encounter/61bcf92b-0a95-4151-a29e-137c1246141f",
    "resource": {
      "resourceType": "Encounter",
      "id": "61bcf92b-0a95-4151-a29e-137c1246141f",
      "meta": {
        "profile": [ "http://hl7.org/fhir/us/qicore/StructureDefinition/qicore-encounter" ]
      },
      "status": "finished",
      "class": {
        "system": "http://terminology.hl7.org/CodeSystem/v3-ActCode",
        "code": "EMER",
        "display": "emergency encounter"
      },
      "type": [ {
        "coding": [ {
          "system": "http://snomed.info/sct",
          "code": "4525004"
        } ]
      } ],
      "subject": {
        "reference": "Patient/56d5fe48-53b2-4599-870c-58bfc4ba0145"
      },
      "period": {
        "start": "2026-10-18T09:15:00.000+00:00",
        "end": "2026-10-19T08:15:00.000+00:00"
      }
    },
    "request": {
      "method": "PUT",
      "url": "Encounter/61bcf92b-0a95-4151-a29e-137c1246141f"
    }
  }, {
    "fullUrl": "https://madie.cms.gov/Patient/56d5fe48-53b2-4599-870c-58bfc4ba0145",
    "resource": {
      "resourceType": "Patient",
      "id": "56d5fe48-53b2-4599-870c-58bfc4ba0145",
      "meta": {
        "profile": [ "http://hl7.org/fhir/us/qicore/StructureDefinition/qicore-patient" ]
      },
      "extension": [ {
        "url": "http://hl7.org/fhir/us/core/StructureDefinition/us-core-race",
        "extension": [ {
          "url": "ombCategory",
          "valueCoding": {
            "system": "urn:oid:2.16.840.1.113883.6.238",
            "code": "2106-3",
            "display": "White"
          }
        }, {
          "url": "text",
          "valueString": "White"
        } ]
      }, {
        "url": "http://hl7.org/fhir/us/core/StructureDefinition/us-core-ethnicity",
        "extension": [ {
          "url": "ombCategory",
          "valueCoding": {
            "system": "urn:oid:2.16.840.1.113883.6.238",
            "code": "2135-2",
            "display": "Hispanic or Latino"
          }
        }, {
          "url": "text",
          "valueString": "Hispanic or Latino"
        } ]
      }, {
        "url": "http://hl7.org/fhir/us/core/StructureDefinition/us-core-sex",
        "valueCode": "248153007"
      } ],
      "identifier": [ {
        "system": "http://hospital.smarthealthit.org",
        "value": "999999999"
      } ],
      "name": [ {
        "family": "Example",
        "given": [ "Patient" ]
      } ],
      "gender": "female",
      "birthDate": "1956-01-01"
    },
    "request": {
      "method": "PUT",
      "url": "Patient/56d5fe48-53b2-4599-870c-58bfc4ba0145"
    }
  }, {
    "fullUrl": "https://madie.cms.gov/Claim/84843af0-fcd7-4983-9b75-2cceb04146a5",
    "resource": {
      "resourceType": "Claim",
      "id": "84843af0-fcd7-4983-9b75-2cceb04146a5",
      "meta": {
        "profile": [ "http://hl7.org/fhir/us/qicore/StructureDefinition/qicore-claim" ]
      },
      "status": "active",
      "type": {
        "coding": [ {
          "system": "http://terminology.hl7.org/CodeSystem/claim-type",
          "code": "institutional",
          "display": "Institutional"
        } ]
      },
      "use": "claim",
      "patient": {
        "reference": "Patient/56d5fe48-53b2-4599-870c-58bfc4ba0145"
      },
      "created": "2026-10-22",
      "provider": {
        "reference": "Practitioner/practitioner-1"
      },
      "priority": {
        "coding": [ {
          "system": "http://terminology.hl7.org/CodeSystem/processpriority",
          "code": "normal"
        } ]
      },
      "diagnosis": [ {
        "sequence": 1,
        "diagnosisCodeableConcept": {
          "coding": [ {
            "system": "http://snomed.info/sct",
            "code": "14047009"
          } ]
        }
      } ],
      "insurance": [ {
        "sequence": 1,
        "focal": true,
        "coverage": {
          "reference": "Coverage/coverage-1"
        }
      } ],
      "item": [ {
        "sequence": 1,
        "diagnosisSequence": [ 1, 2 ],
        "productOrService": {
          "coding": [ {
            "system": "http://terminology.hl7.org/CodeSystem/ex-USCLS",
            "code": "1101"
          } ]
        },
        "encounter": [ {
          "reference": "Encounter/83ecaad2-b612-4d9a-b075-7112103385c4"
        } ]
      } ]
    },
    "request": {
      "method": "PUT",
      "url": "Claim/84843af0-fcd7-4983-9b75-2cceb04146a5"
    }
  }, {
    "fullUrl": "https://madie.cms.gov/Claim/89fbc718-01ea-4dd8-b8bc-dafe85752f87",
    "resource": {
      "resourceType": "Claim",
      "id": "89fbc718-01ea-4dd8-b8bc-dafe85752f87",
      "meta": {
        "profile": [ "http://hl7.org/fhir/us/qicore/StructureDefinition/qicore-claim" ]
      },
      "status": "active",
      "type": {
        "coding": [ {
          "system": "http://terminology.hl7.org/CodeSystem/claim-type",
          "code": "institutional",
          "display": "Institutional"
        } ]
      },
      "use": "claim",
      "patient": {
        "reference": "Patient/56d5fe48-53b2-4599-870c-58bfc4ba0145"
      },
      "created": "2026-11-01",
      "provider": {
        "reference": "Practitioner/practitioner-1"
      },
      "priority": {
        "coding": [ {
          "system": "http://terminology.hl7.org/CodeSystem/processpriority",
          "code": "normal"
        } ]
      },
      "diagnosis": [ {
        "sequence": 1,
        "diagnosisCodeableConcept": {
          "coding": [ {
            "system": "http://hl7.org/fhir/sid/icd-10-cm",
            "code": "M80.00XA",
            "display": "Age-related osteoporosis with current pathological fracture, unspecified site, initial encounter for fracture"
          } ]
        }
      } ],
      "insurance": [ {
        "sequence": 1,
        "focal": true,
        "coverage": {
          "reference": "Coverage/coverage-1"
        }
      } ],
      "item": [ {
        "sequence": 1,
        "diagnosisSequence": [ 1, 2 ],
        "productOrService": {
          "coding": [ {
            "system": "http://terminology.hl7.org/CodeSystem/ex-USCLS",
            "code": "1101"
          } ]
        },
        "encounter": [ {
          "reference": "Encounter/83ecaad2-b612-4d9a-b075-7112103385c4"
        } ]
      } ]
    },
    "request": {
      "method": "PUT",
      "url": "Claim/89fbc718-01ea-4dd8-b8bc-dafe85752f87"
    }
  }, {
    "fullUrl": "https://madie.cms.gov/MedicationRequest/ab2d8474-64e9-48ad-9afa-f2cc5d823afd",
    "resource": {
      "resourceType": "MedicationRequest",
      "id": "ab2d8474-64e9-48ad-9afa-f2cc5d823afd",
      "meta": {
        "profile": [ "http://hl7.org/fhir/us/qicore/StructureDefinition/qicore-medicationrequest" ]
      },
      "status": "active",
      "intent": "order",
      "category": [ {
        "coding": [ {
          "system": "http://terminology.hl7.org/CodeSystem/medicationrequest-category",
          "code": "community",
          "display": "Community"
        } ]
      } ],
      "medicationCodeableConcept": {
        "coding": [ {
          "system": "http://www.nlm.nih.gov/research/umls/rxnorm",
          "code": "1000001"
        } ]
      },
      "subject": {
        "reference": "Patient/56d5fe48-53b2-4599-870c-58bfc4ba0145"
      },
      "authoredOn": "2026-10-15",
      "requester": {
        "reference": "Practitioner/practitioner-1"
      },
      "dispenseRequest": {
        "quantity": {
          "value": 14,
          "unit": "tablet",
          "system": "http://unitsofmeasure.org",
          "code": "{tablet}"
        },
        "expectedSupplyDuration": {
          "value": 14,
          "unit": "days",
          "system": "http://unitsofmeasure.org",
          "code": "d"
        }
      }
    },
    "request": {
      "method": "PUT",
      "url": "MedicationRequest/ab2d8474-64e9-48ad-9afa-f2cc5d823afd"
    }
  }, {
    "fullUrl": "https://madie.cms.gov/Practitioner/3baed03c-1cce-4821-94d4-a66c8f1afb18",
    "resource": {
      "resourceType": "Practitioner",
      "id": "3baed03c-1cce-4821-94d4-a66c8f1afb18",
      "identifier": [ {
        "system": "http://www.cms.gov/identifiers/pracitioners",
        "value": "P12345"
      } ],
      "name": [ {
        "use": "official",
        "family": "Smith",
        "given": [ "John" ]
      } ],
      "qualification": [ {
        "identifier": [ {
          "system": "http://hl7.org/fhir/sid/us-npi",
          "value": "1234567890"
        } ],
        "code": {
          "coding": [ {
            "system": "http://terminology.hl7.org/CodeSystem/v2-0203",
            "code": "MD",
            "display": "Medical License number"
          } ]
        }
      } ]
    },
    "request": {
      "method": "PUT",
      "url": "Practitioner/3baed03c-1cce-4821-94d4-a66c8f1afb18"
    }
  }, {
    "fullUrl": "https://madie.cms.gov/Coverage/2c89580e-107a-476d-994e-4ca9c65372d0",
    "resource": {
      "resourceType": "Coverage",
      "id": "2c89580e-107a-476d-994e-4ca9c65372d0",
      "status": "active",
      "beneficiary": {
        "reference": "Patient/56d5fe48-53b2-4599-870c-58bfc4ba0145"
      },
      "payor": [ {
        "reference": "Organization/24868cbc-8041-43a1-b8de-093b37873867"
      } ]
    },
    "request": {
      "method": "PUT",
      "url": "Coverage/2c89580e-107a-476d-994e-4ca9c65372d0"
    }
  }, {
    "fullUrl": "https://madie.cms.gov/Organization/24868cbc-8041-43a1-b8de-093b37873867",
    "resource": {
      "resourceType": "Organization",
      "id": "24868cbc-8041-43a1-b8de-093b37873867",
      "identifier": [ {
        "system": "http://cms.gov/insurance-ids",
        "value": "AET12345"
      } ],
      "type": [ {
        "coding": [ {
          "system": "http://terminology.hl7.org/CodeSystem/organization-type",
          "code": "prov",
          "display": "Healthcare Provider"
        } ]
      } ],
      "name": "Aetna Insurance",
      "telecom": [ {
        "system": "phone",
        "value": "+1-800-123-4567"
      } ],
      "address": [ {
        "line": [ "123 Main Street" ],
        "city": "Cityville",
        "state": "CA",
        "postalCode": "12345",
        "country": "USA"
      } ]
    },
    "request": {
      "method": "PUT",
      "url": "Organization/24868cbc-8041-43a1-b8de-093b37873867"
    }
  }, {
    "fullUrl": "https://madie.cms.gov/MeasureReport/b2feea6f-8dcc-47d3-97ed-0b8ce61fdbb7",
    "resource": {
      "resourceType": "MeasureReport",
      "id": "b2feea6f-8dcc-47d3-97ed-0b8ce61fdbb7",
      "meta": {
        "profile": [ "http://hl7.org/fhir/us/cqfmeasures/StructureDefinition/test-case-cqfm" ]
      },
      "contained": [ {
        "resourceType": "Parameters",
        "id": "17fdec22-f96f-4bcf-9991-b3491e839f75-parameters",
        "parameter": [ {
          "name": "subject",
          "valueString": "56d5fe48-53b2-4599-870c-58bfc4ba0145"
        } ]
      } ],
      "extension": [ {
        "url": "http://hl7.org/fhir/StructureDefinition/cqf-inputParameters",
        "valueReference": {
          "reference": "#17fdec22-f96f-4bcf-9991-b3491e839f75-parameters"
        }
      }, {
        "url": "http://hl7.org/fhir/us/cqfmeasures/StructureDefinition/cqfm-testCaseDescription",
        "valueMarkdown": "RVariable Encounter With Antihypertensive Order At Admission"
      } ],
      "modifierExtension": [ {
        "url": "http://hl7.org/fhir/us/cqfmeasures/StructureDefinition/cqfm-isTestCase",
        "valueBoolean": true
      } ],
      "status": "complete",
      "type": "individual",
      "measure": "https://madie.cms.gov/Measure/CMS1017FHIRHHFI",
      "period": {
        "start": "2026-01-01",
        "end": "2026-12-31"
      },
      "group": [ {
        "id": "Group_1",
        "population": [ {
          "id": "InitialPopulation_1",
          "code": {
            "coding": [ {
              "system": "http://terminology.hl7.org/CodeSystem/measure-population",
              "code": "initial-population",
              "display": "Initial Population"
            } ]
          },
          "count": 1
        }, {
          "id": "Denominator_1",
          "code": {
            "coding": [ {
              "system": "http://terminology.hl7.org/CodeSystem/measure-population",
              "code": "denominator",
              "display": "Denominator"
            } ]
          },
          "count": 1
        }, {
          "id": "DenominatorExclusion_1",
          "code": {
            "coding": [ {
              "system": "http://terminology.hl7.org/CodeSystem/measure-population",
              "code": "denominator-exclusion",
              "display": "Denominator Exclusion"
            } ]
          },
          "count": 0
        }, {
          "id": "Numerator_1",
          "code": {
            "coding": [ {
              "system": "http://terminology.hl7.org/CodeSystem/measure-population",
              "code": "numerator",
              "display": "Numerator"
            } ]
          },
          "count": 1
        }, {
          "id": "NumeratorExclusion_1",
          "code": {
            "coding": [ {
              "system": "http://terminology.hl7.org/CodeSystem/measure-population",
              "code": "numerator-exclusion",
              "display": "Numerator Exclusion"
            } ]
          },
          "count": 0
        }, {
          "id": "MeasureObservation_1_1_1",
          "code": {
            "coding": [ {
              "system": "http://terminology.hl7.org/CodeSystem/measure-population",
              "code": "measure-observation",
              "display": "Measure Observation"
            } ]
          },
          "count": 12
        }, {
          "id": "MeasureObservation_1_2_1",
          "code": {
            "coding": [ {
              "system": "http://terminology.hl7.org/CodeSystem/measure-population",
              "code": "measure-observation",
              "display": "Measure Observation"
            } ]
          },
          "count": 1
        } ],
        "measureScore": {
          "value": 0.0
        }
      } ],
      "evaluatedResource": [ {
        "reference": "Encounter/83ecaad2-b612-4d9a-b075-7112103385c4"
      }, {
        "reference": "Encounter/61bcf92b-0a95-4151-a29e-137c1246141f"
      }, {
        "reference": "Patient/56d5fe48-53b2-4599-870c-58bfc4ba0145"
      }, {
        "reference": "Claim/84843af0-fcd7-4983-9b75-2cceb04146a5"
      }, {
        "reference": "Claim/89fbc718-01ea-4dd8-b8bc-dafe85752f87"
      }, {
        "reference": "MedicationRequest/ab2d8474-64e9-48ad-9afa-f2cc5d823afd"
      }, {
        "reference": "Practitioner/3baed03c-1cce-4821-94d4-a66c8f1afb18"
      }, {
        "reference": "Coverage/2c89580e-107a-476d-994e-4ca9c65372d0"
      }, {
        "reference": "Organization/24868cbc-8041-43a1-b8de-093b37873867"
      } ]
    },
    "request": {
      "method": "PUT",
      "url": "MeasureReport/b2feea6f-8dcc-47d3-97ed-0b8ce61fdbb7"
    }
  } ]
}