{
  "resourceType": "Bundle",
  "id": "NUMERPass-KCCQDomain180Days",
  "type": "collection",
  "entry": [ {
    "fullUrl": "https://madie.cms.gov/Patient/519d1935-5a15-4179-833f-ae10d5732753",
    "resource": {
      "resourceType": "Patient",
      "id": "519d1935-5a15-4179-833f-ae10d5732753",
      "meta": {
        "profile": [ "http://hl7.org/fhir/us/qicore/StructureDefinition/qicore-patient" ]
      },
      "extension": [ {
        "url": "http://hl7.org/fhir/us/core/StructureDefinition/us-core-race",
        "extension": [ {
          "url": "ombCategory",
          "valueCoding": {
            "system": "urn:oid:2.16.840.1.113883.6.238",
            "code": "2028-9",
            "display": "Asian"
          }
        }, {
          "url": "text",
          "valueString": "Asian"
        } ]
      }, {
        "url": "http://hl7.org/fhir/us/core/StructureDefinition/us-core-ethnicity",
        "extension": [ {
          "url": "ombCategory",
          "valueCoding": {
            "system": "urn:oid:2.16.840.1.113883.6.238",
            "code": "2135-2",
            "display": "Hispanic or Latino"
          }
        }, {
          "url": "text",
          "valueString": "Hispanic or Latino"
        } ]
      } ],
      "identifier": [ {
        "system": "http://hospital.smarthealthit.org",
        "value": "999999995"
      } ],
      "name": [ {
        "family": "Bertha",
        "given": [ "Betty" ]
      } ],
      "gender": "female",
      "birthDate": "2008-01-01"
    }
  }, {
    "fullUrl": "https://madie.cms.gov/Encounter/b53e1507-ade3-4562-9c03-9cc6ff5b82fb",
    "resource": {
      "resourceType": "Encounter",
      "id": "b53e1507-ade3-4562-9c03-9cc6ff5b82fb",
      "meta": {
        "profile": [ "http://hl7.org/fhir/us/qicore/StructureDefinition/qicore-encounter" ]
      },
      "status": "finished",
      "class": {
        "system": "http://terminology.hl7.org/CodeSystem/v3-ActCode",
        "code": "AMB",
        "display": "ambulatory"
      },
      "type": [ {
        "coding": [ {
          "system": "http://snomed.info/sct",
          "code": "185317003",
          "display": "Telephone encounter (procedure)"
        } ]
      } ],
      "subject": {
        "reference": "Patient/519d1935-5a15-4179-833f-ae10d5732753"
      },
      "period": {
        "start": "2026-01-01T01:00:00.000+00:00",
        "end": "2026-01-01T01:15:00.000+00:00"
      }
    }
  }, {
    "fullUrl": "https://madie.cms.gov/Encounter/b91810c6-2dea-483b-bad5-ec24a7e8d944",
    "resource": {
      "resourceType": "Encounter",
      "id": "b91810c6-2dea-483b-bad5-ec24a7e8d944",
      "meta": {
        "profile": [ "http://hl7.org/fhir/us/qicore/StructureDefinition/qicore-encounter" ]
      },
      "status": "finished",
      "class": {
        "system": "http://terminology.hl7.org/CodeSystem/v3-ActCode",
        "code": "AMB",
        "display": "ambulatory"
      },
      "type": [ {
        "coding": [ {
          "system": "http://snomed.info/sct",
          "code": "185317003",
          "display": "Telephone encounter (procedure)"
        } ]
      } ],
      "subject": {
        "reference": "Patient/519d1935-5a15-4179-833f-ae10d5732753"
      },
      "period": {
        "start": "2026-01-02T01:00:00.000+00:00",
        "end": "2026-01-02T01:15:00.000+00:00"
      }
    }
  }, {
    "fullUrl": "https://madie.cms.gov/Condition/28838e2b-5976-46de-a88c-dc70a7c4f7f5",
    "resource": {
      "resourceType": "Condition",
      "id": "28838e2b-5976-46de-a88c-dc70a7c4f7f5",
      "meta": {
        "profile": [ "http://hl7.org/fhir/us/qicore/StructureDefinition/qicore-condition-problems-health-concerns" ]
      },
      "clinicalStatus": {
        "coding": [ {
          "system": "http://terminology.hl7.org/CodeSystem/condition-clinical",
          "code": "active"
        } ]
      },
      "category": [ {
        "coding": [ {
          "system": "http://terminology.hl7.org/CodeSystem/condition-category",
          "code": "problem-list-item",
          "display": "Problem List Item"
        } ]
      } ],
      "code": {
        "coding": [ {
          "system": "http://snomed.info/sct",
          "version": "http://snomed.info/sct/731000124108/version/20250301",
          "code": "10091002",
          "display": "High output heart failure (disorder)"
        } ]
      },
      "subject": {
        "reference": "Patient/519d1935-5a15-4179-833f-ae10d5732753"
      },
      "onsetDateTime": "2025-12-31T23:59:00.000+00:00"
    }
  }, {
    "fullUrl": "https://madie.cms.gov/Observation/6d4722b5-0ac3-4546-81d6-de153419a3a4",
    "resource": {
      "resourceType": "Observation",
      "id": "6d4722b5-0ac3-4546-81d6-de153419a3a4",
      "meta": {
        "profile": [ "http://hl7.org/fhir/us/qicore/StructureDefinition/qicore-observation-screening-assessment" ]
      },
      "status": "final",
      "category": [ {
        "coding": [ {
          "system": "http://terminology.hl7.org/CodeSystem/observation-category",
          "code": "survey",
          "display": "survey"
        } ],
        "text": "survey"
      } ],
      "code": {
        "coding": [ {
          "system": "http://loinc.org",
          "code": "72189-4",
          "display": "Quality of life score [KCCQ]"
        } ]
      },
      "subject": {
        "reference": "Patient/519d1935-5a15-4179-833f-ae10d5732753"
      },
      "effectivePeriod": {
        "start": "2026-01-01T23:00:00.000+00:00",
        "end": "2026-01-01T23:59:00.000+00:00"
      },
      "valueInteger": 4
    }
  }, {
    "fullUrl": "https://madie.cms.gov/Observation/13a8bdda-9957-4f9a-99c7-c1a33e41ef87",
    "resource": {
      "resourceType": "Observation",
      "id": "13a8bdda-9957-4f9a-99c7-c1a33e41ef87",
      "meta": {
        "profile": [ "http://hl7.org/fhir/us/qicore/StructureDefinition/qicore-observation-screening-assessment" ]
      },
      "status": "final",
      "category": [ {
        "coding": [ {
          "system": "http://terminology.hl7.org/CodeSystem/observation-category",
          "code": "survey",
          "display": "survey"
        } ],
        "text": "survey"
      } ],
      "code": {
        "coding": [ {
          "system": "http://loinc.org",
          "code": "72189-4",
          "display": "Quality of life score [KCCQ]"
        } ]
      },
      "subject": {
        "reference": "Patient/519d1935-5a15-4179-833f-ae10d5732753"
      },
      "effectivePeriod": {
        "start": "2026-06-29T23:00:00.000+00:00",
        "end": "2026-06-29T23:59:00.000+00:00"
      },
      "valueInteger": 4
    }
  }, {
    "fullUrl": "https://madie.cms.gov/Observation/0904d46c-28d6-4fcc-8502-5f05c031bf70",
    "resource": {
      "resourceType": "Observation",
      "id": "0904d46c-28d6-4fcc-8502-5f05c031bf70",
      "meta": {
        "profile": [ "http://hl7.org/fhir/us/qicore/StructureDefinition/qicore-observation-screening-assessment" ]
      },
      "status": "final",
      "category": [ {
        "coding": [ {
          "system": "http://terminology.hl7.org/CodeSystem/observation-category",
          "code": "survey",
          "display": "survey"
        } ],
        "text": "survey"
      } ],
      "code": {
        "coding": [ {
          "system": "http://loinc.org",
          "code": "72194-4",
          "display": "Symptom stability score [KCCQ]"
        } ]
      },
      "subject": {
        "reference": "Patient/519d1935-5a15-4179-833f-ae10d5732753"
      },
      "effectivePeriod": {
        "start": "2026-01-01T23:00:00.000+00:00",
        "end": "2026-01-01T23:59:00.000+00:00"
      },
      "valueInteger": 4
    }
  }, {
    "fullUrl": "https://madie.cms.gov/Observation/aedc449e-4353-4f61-b27c-fb82b1350bcc",
    "resource": {
      "resourceType": "Observation",
      "id": "aedc449e-4353-4f61-b27c-fb82b1350bcc",
      "meta": {
        "profile": [ "http://hl7.org/fhir/us/qicore/StructureDefinition/qicore-observation-screening-assessment" ]
      },
      "status": "final",
      "category": [ {
        "coding": [ {
          "system": "http://terminology.hl7.org/CodeSystem/observation-category",
          "code": "survey",
          "display": "survey"
        } ],
        "text": "survey"
      } ],
      "code": {
        "coding": [ {
          "system": "http://loinc.org",
          "code": "72194-4",
          "display": "Symptom stability score [KCCQ]"
        } ]
      },
      "subject": {
        "reference": "Patient/519d1935-5a15-4179-833f-ae10d5732753"
      },
      "effectivePeriod": {
        "start": "2026-06-29T23:00:00.000+00:00",
        "end": "2026-06-29T23:59:00.000+00:00"
      },
      "valueInteger": 4
    }
  }, {
    "fullUrl": "https://madie.cms.gov/Observation/2c8e48e6-579a-4252-bc9d-1e868b8afd20",
    "resource": {
      "resourceType": "Observation",
      "id": "2c8e48e6-579a-4252-bc9d-1e868b8afd20",
      "meta": {
        "profile": [ "http://hl7.org/fhir/us/qicore/StructureDefinition/qicore-observation-screening-assessment" ]
      },
      "status": "final",
      "category": [ {
        "coding": [ {
          "system": "http://terminology.hl7.org/CodeSystem/observation-category",
          "code": "survey",
          "display": "survey"
        } ],
        "text": "survey"
      } ],
      "code": {
        "coding": [ {
          "system": "http://loinc.org",
          "code": "72190-2",
          "display": "Self-efficacy score [KCCQ]"
        } ]
      },
      "subject": {
        "reference": "Patient/519d1935-5a15-4179-833f-ae10d5732753"
      },
      "effectivePeriod": {
        "start": "2026-01-01T23:00:00.000+00:00",
        "end": "2026-01-01T23:59:00.000+00:00"
      },
      "valueInteger": 4
    }
  }, {
    "fullUrl": "https://madie.cms.gov/Observation/8aaf2418-8a77-4584-a4a6-f7d4be5fc013",
    "resource": {
      "resourceType": "Observation",
      "id": "8aaf2418-8a77-4584-a4a6-f7d4be5fc013",
      "meta": {
        "profile": [ "http://hl7.org/fhir/us/qicore/StructureDefinition/qicore-observation-screening-assessment" ]
      },
      "status": "final",
      "category": [ {
        "coding": [ {
          "system": "http://terminology.hl7.org/CodeSystem/observation-category",
          "code": "survey",
          "display": "survey"
        } ],
        "text": "survey"
      } ],
      "code": {
        "coding": [ {
          "system": "http://loinc.org",
          "code": "72190-2",
          "display": "Self-efficacy score [KCCQ]"
        } ]
      },
      "subject": {
        "reference": "Patient/519d1935-5a15-4179-833f-ae10d5732753"
      },
      "effectivePeriod": {
        "start": "2026-06-29T23:00:00.000+00:00",
        "end": "2026-06-29T23:59:00.000+00:00"
      },
      "valueInteger": 4
    }
  }, {
    "fullUrl": "https://madie.cms.gov/Observation/9035952b-cfa0-481c-bad1-47a5e548b35b",
    "resource": {
      "resourceType": "Observation",
      "id": "9035952b-cfa0-481c-bad1-47a5e548b35b",
      "meta": {
        "profile": [ "http://hl7.org/fhir/us/qicore/StructureDefinition/qicore-observation-screening-assessment" ]
      },
      "status": "final",
      "category": [ {
        "coding": [ {
          "system": "http://terminology.hl7.org/CodeSystem/observation-category",
          "code": "survey",
          "display": "survey"
        } ],
        "text": "survey"
      } ],
      "code": {
        "coding": [ {
          "system": "http://loinc.org",
          "code": "72191-0",
          "display": "Total symptom score [KCCQ]"
        } ]
      },
      "subject": {
        "reference": "Patient/519d1935-5a15-4179-833f-ae10d5732753"
      },
      "effectivePeriod": {
        "start": "2026-01-01T23:00:00.000+00:00",
        "end": "2026-01-01T23:59:00.000+00:00"
      },
      "valueInteger": 4
    }
  }, {
    "fullUrl": "https://madie.cms.gov/Observation/1c825bad-c424-4408-beb9-174a5d36dc36",
    "resource": {
      "resourceType": "Observation",
      "id": "1c825bad-c424-4408-beb9-174a5d36dc36",
      "meta": {
        "profile": [ "http://hl7.org/fhir/us/qicore/StructureDefinition/qicore-observation-screening-assessment" ]
      },
      "status": "final",
      "category": [ {
        "coding": [ {
          "system": "http://terminology.hl7.org/CodeSystem/observation-category",
          "code": "survey",
          "display": "survey"
        } ],
        "text": "survey"
      } ],
      "code": {
        "coding": [ {
          "system": "http://loinc.org",
          "code": "72191-0",
          "display": "Total symptom score [KCCQ]"
        } ]
      },
      "subject": {
        "reference": "Patient/519d1935-5a15-4179-833f-ae10d5732753"
      },
      "effectivePeriod": {
        "start": "2026-06-29T23:00:00.000+00:00",
        "end": "2026-06-29T23:59:00.000+00:00"
      },
      "valueInteger": 4
    }
  }, {
    "fullUrl": "https://madie.cms.gov/Observation/a8f585de-91c7-478a-b2f2-2e03f2ad95bf",
    "resource": {
      "resourceType": "Observation",
      "id": "a8f585de-91c7-478a-b2f2-2e03f2ad95bf",
      "meta": {
        "profile": [ "http://hl7.org/fhir/us/qicore/StructureDefinition/qicore-observation-screening-assessment" ]
      },
      "status": "final",
      "category": [ {
        "coding": [ {
          "system": "http://terminology.hl7.org/CodeSystem/observation-category",
          "code": "survey",
          "display": "survey"
        } ],
        "text": "survey"
      } ],
      "code": {
        "coding": [ {
          "system": "http://loinc.org",
          "code": "72195-1",
          "display": "Physical limitation score [KCCQ]"
        } ]
      },
      "subject": {
        "reference": "Patient/519d1935-5a15-4179-833f-ae10d5732753"
      },
      "effectivePeriod": {
        "start": "2026-01-01T23:00:00.000+00:00",
        "end": "2026-01-01T23:59:00.000+00:00"
      },
      "valueInteger": 4
    }
  }, {
    "fullUrl": "https://madie.cms.gov/Observation/4e68c642-e2c0-4591-b164-39bc0a483a1f",
    "resource": {
      "resourceType": "Observation",
      "id": "4e68c642-e2c0-4591-b164-39bc0a483a1f",
      "meta": {
        "profile": [ "http://hl7.org/fhir/us/qicore/StructureDefinition/qicore-observation-screening-assessment" ]
      },
      "status": "final",
      "category": [ {
        "coding": [ {
          "system": "http://terminology.hl7.org/CodeSystem/observation-category",
          "code": "survey",
          "display": "survey"
        } ],
        "text": "survey"
      } ],
      "code": {
        "coding": [ {
          "system": "http://loinc.org",
          "code": "72195-1",
          "display": "Physical limitation score [KCCQ]"
        } ]
      },
      "subject": {
        "reference": "Patient/519d1935-5a15-4179-833f-ae10d5732753"
      },
      "effectivePeriod": {
        "start": "2026-06-29T23:00:00.000+00:00",
        "end": "2026-06-29T23:59:00.000+00:00"
      },
      "valueInteger": 4
    }
  }, {
    "fullUrl": "https://madie.cms.gov/Observation/de5a7c4c-e209-4894-bf66-09b745209297",
    "resource": {
      "resourceType": "Observation",
      "id": "de5a7c4c-e209-4894-bf66-09b745209297",
      "meta": {
        "profile": [ "http://hl7.org/fhir/us/qicore/StructureDefinition/qicore-observation-screening-assessment" ]
      },
      "status": "final",
      "category": [ {
        "coding": [ {
          "system": "http://terminology.hl7.org/CodeSystem/observation-category",
          "code": "survey",
          "display": "survey"
        } ],
        "text": "survey"
      } ],
      "code": {
        "coding": [ {
          "system": "http://loinc.org",
          "code": "72196-9",
          "display": "Social limitation score [KCCQ]"
        } ]
      },
      "subject": {
        "reference": "Patient/519d1935-5a15-4179-833f-ae10d5732753"
      },
      "effectivePeriod": {
        "start": "2026-01-01T23:00:00.000+00:00",
        "end": "2026-01-01T23:59:00.000+00:00"
      },
      "valueInteger": 4
    }
  }, {
    "fullUrl": "https://madie.cms.gov/Observation/688ab0ff-67ea-41c4-bd97-ff17e98884ce",
    "resource": {
      "resourceType": "Observation",
      "id": "688ab0ff-67ea-41c4-bd97-ff17e98884ce",
      "meta": {
        "profile": [ "http://hl7.org/fhir/us/qicore/StructureDefinition/qicore-observation-screening-assessment" ]
      },
      "status": "final",
      "category": [ {
        "coding": [ {
          "system": "http://terminology.hl7.org/CodeSystem/observation-category",
          "code": "survey",
          "display": "survey"
        } ],
        "text": "survey"
      } ],
      "code": {
        "coding": [ {
          "system": "http://loinc.org",
          "code": "72196-9",
          "display": "Social limitation score [KCCQ]"
        } ]
      },
      "subject": {
        "reference": "Patient/519d1935-5a15-4179-833f-ae10d5732753"
      },
      "effectivePeriod": {
        "start": "2026-06-29T23:00:00.000+00:00",
        "end": "2026-06-29T23:59:00.000+00:00"
      },
      "valueInteger": 4
    }
  }, {
    "fullUrl": "https://madie.cms.gov/MeasureReport/2f3a5f63-8456-425e-adfd-653dd2ae2936",
    "resource": {
      "resourceType": "MeasureReport",
      "id": "2f3a5f63-8456-425e-adfd-653dd2ae2936",
      "meta": {
        "profile": [ "http://hl7.org/fhir/us/cqfmeasures/StructureDefinition/test-case-cqfm" ]
      },
      "contained": [ {
        "resourceType": "Parameters",
        "id": "4c8d9879-da41-48fe-b780-1df347990df3-parameters",
        "parameter": [ {
          "name": "subject",
          "valueString": "519d1935-5a15-4179-833f-ae10d5732753"
        } ]
      } ],
      "extension": [ {
        "url": "http://hl7.org/fhir/StructureDefinition/cqf-inputParameters",
        "valueReference": {
          "reference": "#4c8d9879-da41-48fe-b780-1df347990df3-parameters"
        }
      }, {
        "url": "http://hl7.org/fhir/us/cqfmeasures/StructureDefinition/cqfm-testCaseDescription",
        "valueMarkdown": "Patient has all KCCQ Domain assessments with results during the correct timeframe. Testing the 180 days boundary."
      } ],
      "modifierExtension": [ {
        "url": "http://hl7.org/fhir/us/cqfmeasures/StructureDefinition/cqfm-isTestCase",
        "valueBoolean": true
      } ],
      "status": "complete",
      "type": "individual",
      "measure": "https://madie.cms.gov/Measure/CMS90FHIRFSAforHeartFailure",
      "period": {
        "start": "2026-01-01",
        "end": "2026-12-31"
      },
      "group": [ {
        "id": "Group_1",
        "population": [ {
          "id": "InitialPopulation_1",
          "code": {
            "coding": [ {
              "system": "http://terminology.hl7.org/CodeSystem/measure-population",
              "code": "initial-population",
              "display": "Initial Population"
            } ]
          },
          "count": 1
        }, {
          "id": "Denominator_1",
          "code": {
            "coding": [ {
              "system": "http://terminology.hl7.org/CodeSystem/measure-population",
              "code": "denominator",
              "display": "Denominator"
            } ]
          },
          "count": 1
        }, {
          "id": "DenominatorExclusion_1",
          "code": {
            "coding": [ {
              "system": "http://terminology.hl7.org/CodeSystem/measure-population",
              "code": "denominator-exclusion",
              "display": "Denominator Exclusion"
            } ]
          },
          "count": 0
        }, {
          "id": "Numerator_1",
          "code": {
            "coding": [ {
              "system": "http://terminology.hl7.org/CodeSystem/measure-population",
              "code": "numerator",
              "display": "Numerator"
            } ]
          },
          "count": 1
        } ],
        "measureScore": {
          "value": 1.0
        }
      } ],
      "evaluatedResource": [ {
        "reference": "Patient/519d1935-5a15-4179-833f-ae10d5732753"
      }, {
        "reference": "Encounter/b53e1507-ade3-4562-9c03-9cc6ff5b82fb"
      }, {
        "reference": "Encounter/b91810c6-2dea-483b-bad5-ec24a7e8d944"
      }, {
        "reference": "Condition/28838e2b-5976-46de-a88c-dc70a7c4f7f5"
      }, {
        "reference": "Observation/6d4722b5-0ac3-4546-81d6-de153419a3a4"
      }, {
        "reference": "Observation/13a8bdda-9957-4f9a-99c7-c1a33e41ef87"
      }, {
        "reference": "Observation/0904d46c-28d6-4fcc-8502-5f05c031bf70"
      }, {
        "reference": "Observation/aedc449e-4353-4f61-b27c-fb82b1350bcc"
      }, {
        "reference": "Observation/2c8e48e6-579a-4252-bc9d-1e868b8afd20"
      }, {
        "reference": "Observation/8aaf2418-8a77-4584-a4a6-f7d4be5fc013"
      }, {
        "reference": "Observation/9035952b-cfa0-481c-bad1-47a5e548b35b"
      }, {
        "reference": "Observation/1c825bad-c424-4408-beb9-174a5d36dc36"
      }, {
        "reference": "Observation/a8f585de-91c7-478a-b2f2-2e03f2ad95bf"
      }, {
        "reference": "Observation/4e68c642-e2c0-4591-b164-39bc0a483a1f"
      }, {
        "reference": "Observation/de5a7c4c-e209-4894-bf66-09b745209297"
      }, {
        "reference": "Observation/688ab0ff-67ea-41c4-bd97-ff17e98884ce"
      } ]
    }
  } ]
}