{
  "resourceType": "Bundle",
  "id": "612e6b1702c62a011f2ec653",
  "type": "transaction",
  "entry": [ {
    "fullUrl": "https://madie.cms.gov/Patient/1d907390-04db-46f5-b429-955aa427e815",
    "resource": {
      "resourceType": "Patient",
      "id": "1d907390-04db-46f5-b429-955aa427e815",
      "meta": {
        "profile": [ "http://hl7.org/fhir/us/qicore/StructureDefinition/qicore-patient" ]
      },
      "text": {
        "status": "generated",
        "div": "<div xmlns=\"http://www.w3.org/1999/xhtml\"><div class=\"hapiHeaderText\">NOccur1FailIP1NumMAWarfSameDayBFAdmit <b>NUMERPASS </b></div><table class=\"hapiPropertyTable\"><tbody><tr><td>Identifier</td><td>f6b3ce4fb2b87a4aa5f00ca8118e0e9a</td></tr><tr><td>Date of birth</td><td><span>02 January 1974</span></td></tr></tbody></table></div>"
      },
      "extension": [ {
        "url": "http://hl7.org/fhir/us/core/StructureDefinition/us-core-race",
        "extension": [ {
          "url": "ombCategory",
          "valueCoding": {
            "system": "urn:oid:2.16.840.1.113883.6.238",
            "code": "1002-5",
            "display": "American Indian or Alaska Native",
            "userSelected": true
          }
        }, {
          "url": "text",
          "valueString": "American Indian or Alaska Native"
        } ]
      }, {
        "url": "http://hl7.org/fhir/us/core/StructureDefinition/us-core-ethnicity",
        "extension": [ {
          "url": "ombCategory",
          "valueCoding": {
            "system": "urn:oid:2.16.840.1.113883.6.238",
            "code": "2135-2",
            "display": "Hispanic or Latino",
            "userSelected": true
          }
        }, {
          "url": "text",
          "valueString": "Hispanic or Latino"
        } ]
      } ],
      "identifier": [ {
        "type": {
          "coding": [ {
            "system": "http://terminology.hl7.org/CodeSystem/v2-0203",
            "code": "MR"
          } ]
        },
        "system": "https://bonnie-fhir.healthit.gov/",
        "value": "612e6b1702c62a011f2ec653"
      } ],
      "active": true,
      "name": [ {
        "use": "usual",
        "family": "NUMERPass",
        "given": [ "NOccur1FailIP1NumMAWarfSameDayBFAdmit" ]
      } ],
      "gender": "male",
      "birthDate": "1975-01-02"
    },
    "request": {
      "method": "PUT",
      "url": "Patient/1d907390-04db-46f5-b429-955aa427e815"
    }
  }, {
    "fullUrl": "https://madie.cms.gov/Encounter/2c80a3dd-6d02-4703-af5c-53d03446e96b",
    "resource": {
      "resourceType": "Encounter",
      "id": "2c80a3dd-6d02-4703-af5c-53d03446e96b",
      "meta": {
        "profile": [ "http://hl7.org/fhir/us/qicore/StructureDefinition/qicore-encounter" ]
      },
      "status": "finished",
      "class": {
        "system": "http://terminology.hl7.org/CodeSystem/v3-ActCode",
        "code": "IMP",
        "display": "inpatient encounter"
      },
      "type": [ {
        "coding": [ {
          "system": "http://snomed.info/sct",
          "code": "8715000"
        } ]
      } ],
      "subject": {
        "reference": "Patient/1d907390-04db-46f5-b429-955aa427e815"
      },
      "period": {
        "start": "2026-10-03T08:00:00.000+00:00",
        "end": "2026-10-05T08:15:00.000+00:00"
      },
      "length": {
        "value": 2,
        "unit": "days"
      },
      "reasonReference": [ {
        "reference": "Condition/89b43327-f694-4d8d-b4cf-9635fc331aba"
      } ]
    },
    "request": {
      "method": "PUT",
      "url": "Encounter/2c80a3dd-6d02-4703-af5c-53d03446e96b"
    }
  }, {
    "fullUrl": "https://madie.cms.gov/Encounter/f33dcccc-e03d-45b1-ae5a-02781dee78bc",
    "resource": {
      "resourceType": "Encounter",
      "id": "f33dcccc-e03d-45b1-ae5a-02781dee78bc",
      "meta": {
        "profile": [ "http://hl7.org/fhir/us/qicore/StructureDefinition/qicore-encounter" ]
      },
      "status": "finished",
      "class": {
        "system": "http://terminology.hl7.org/CodeSystem/v3-ActCode",
        "code": "IMP",
        "display": "inpatient encounter"
      },
      "type": [ {
        "coding": [ {
          "system": "http://snomed.info/sct",
          "code": "8715000"
        } ]
      } ],
      "subject": {
        "reference": "Patient/1d907390-04db-46f5-b429-955aa427e815"
      },
      "period": {
        "start": "2026-11-01T08:00:00.000+00:00",
        "end": "2026-11-26T08:15:00.000+00:00"
      },
      "length": {
        "value": 25,
        "unit": "days"
      }
    },
    "request": {
      "method": "PUT",
      "url": "Encounter/f33dcccc-e03d-45b1-ae5a-02781dee78bc"
    }
  }, {
    "fullUrl": "https://madie.cms.gov/Coverage/9c94160f-4bd1-4a98-95c0-00330190dbab",
    "resource": {
      "resourceType": "Coverage",
      "id": "9c94160f-4bd1-4a98-95c0-00330190dbab",
      "status": "active",
      "beneficiary": {
        "reference": "Patient/1d907390-04db-46f5-b429-955aa427e815"
      },
      "period": {
        "start": "1975-01-02T08:00:00.000+00:00"
      },
      "payor": [ {
        "reference": "Organization/77f3ba87-d5a5-47ca-904d-bc2ac7e78dcf"
      } ]
    },
    "request": {
      "method": "PUT",
      "url": "Coverage/9c94160f-4bd1-4a98-95c0-00330190dbab"
    }
  }, {
    "fullUrl": "https://madie.cms.gov/MedicationAdministration/ac572fbc-9a4a-4c0a-8759-89ab1d438401",
    "resource": {
      "resourceType": "MedicationAdministration",
      "id": "ac572fbc-9a4a-4c0a-8759-89ab1d438401",
      "meta": {
        "profile": [ "http://hl7.org/fhir/us/qicore/StructureDefinition/qicore-medicationadministration" ]
      },
      "status": "completed",
      "medicationCodeableConcept": {
        "coding": [ {
          "system": "http://www.nlm.nih.gov/research/umls/rxnorm",
          "code": "855288"
        } ]
      },
      "subject": {
        "reference": "Patient/1d907390-04db-46f5-b429-955aa427e815"
      },
      "effectivePeriod": {
        "start": "2026-11-01T06:00:00.000+00:00",
        "end": "2026-11-01T06:15:00.000+00:00"
      }
    },
    "request": {
      "method": "PUT",
      "url": "MedicationAdministration/ac572fbc-9a4a-4c0a-8759-89ab1d438401"
    }
  }, {
    "fullUrl": "https://madie.cms.gov/Condition/89b43327-f694-4d8d-b4cf-9635fc331aba",
    "resource": {
      "resourceType": "Condition",
      "id": "89b43327-f694-4d8d-b4cf-9635fc331aba",
      "meta": {
        "profile": [ "http://hl7.org/fhir/us/qicore/StructureDefinition/qicore-condition-encounter-diagnosis" ]
      },
      "category": [ {
        "coding": [ {
          "system": "http://terminology.hl7.org/CodeSystem/condition-category",
          "code": "encounter-diagnosis",
          "display": "Encounter Diagnosis"
        } ]
      } ],
      "code": {
        "coding": [ {
          "system": "http://snomed.info/sct",
          "code": "10217006",
          "display": "Third degree perineal laceration (disorder)",
          "userSelected": true
        } ]
      },
      "subject": {
        "reference": "Patient/1d907390-04db-46f5-b429-955aa427e815"
      },
      "recordedDate": "2026-07-20T08:00:00.000+00:00"
    },
    "request": {
      "method": "PUT",
      "url": "Condition/89b43327-f694-4d8d-b4cf-9635fc331aba"
    }
  }, {
    "fullUrl": "https://madie.cms.gov/Organization/77f3ba87-d5a5-47ca-904d-bc2ac7e78dcf",
    "resource": {
      "resourceType": "Organization",
      "id": "77f3ba87-d5a5-47ca-904d-bc2ac7e78dcf",
      "meta": {
        "profile": [ "http://hl7.org/fhir/us/qicore/StructureDefinition/qicore-organization" ]
      },
      "identifier": [ {
        "use": "temp",
        "system": "urn:oid:2.16.840.1.113883.4.4",
        "value": "21-3259825"
      } ],
      "active": true,
      "type": [ {
        "coding": [ {
          "system": "http://terminology.hl7.org/CodeSystem/organization-type",
          "code": "pay",
          "display": "Payer"
        } ]
      } ],
      "name": "Blue Cross Blue Shield of Texas",
      "telecom": [ {
        "system": "phone",
        "value": "(+1) 972-766-6900"
      } ],
      "address": [ {
        "use": "billing",
        "type": "postal",
        "line": [ "P.O. Box 660044" ],
        "city": "Dallas",
        "state": "TX",
        "postalCode": "75266-0044",
        "country": "USA"
      } ]
    },
    "request": {
      "method": "PUT",
      "url": "Organization/77f3ba87-d5a5-47ca-904d-bc2ac7e78dcf"
    }
  }, {
    "fullUrl": "https://madie.cms.gov/Practitioner/8974f23e-3d23-47fc-b87b-ff0f56c46bcb",
    "resource": {
      "resourceType": "Practitioner",
      "id": "8974f23e-3d23-47fc-b87b-ff0f56c46bcb",
      "identifier": [ {
        "system": "http://hl7.org/fhir/sid/us-npi",
        "value": "123456"
      } ],
      "name": [ {
        "family": "Evil",
        "prefix": [ "Dr" ]
      } ]
    },
    "request": {
      "method": "PUT",
      "url": "Practitioner/8974f23e-3d23-47fc-b87b-ff0f56c46bcb"
    }
  }, {
    "fullUrl": "https://madie.cms.gov/MeasureReport/78e4c4dd-c056-4f80-9a0d-39d5639fa168",
    "resource": {
      "resourceType": "MeasureReport",
      "id": "78e4c4dd-c056-4f80-9a0d-39d5639fa168",
      "meta": {
        "profile": [ "http://hl7.org/fhir/us/cqfmeasures/StructureDefinition/test-case-cqfm" ]
      },
      "contained": [ {
        "resourceType": "Parameters",
        "id": "5bc09279-a69b-4ea8-8cf4-8ddfe7bef93c-parameters",
        "parameter": [ {
          "name": "subject",
          "valueString": "1d907390-04db-46f5-b429-955aa427e815"
        } ]
      } ],
      "extension": [ {
        "url": "http://hl7.org/fhir/StructureDefinition/cqf-inputParameters",
        "valueReference": {
          "reference": "#5bc09279-a69b-4ea8-8cf4-8ddfe7bef93c-parameters"
        }
      }, {
        "url": "http://hl7.org/fhir/us/cqfmeasures/StructureDefinition/cqfm-testCaseDescription",
        "valueMarkdown": "2 encounters. One is failed IPP and another encountewarfarin administered  on the same day as adm but it was before adm time\n"
      } ],
      "modifierExtension": [ {
        "url": "http://hl7.org/fhir/us/cqfmeasures/StructureDefinition/cqfm-isTestCase",
        "valueBoolean": true
      } ],
      "status": "complete",
      "type": "individual",
      "measure": "https://madie.cms.gov/Measure/CMS108FHIRVTEProphylaxis",
      "period": {
        "start": "2026-01-01",
        "end": "2026-12-31"
      },
      "group": [ {
        "id": "Group_1",
        "population": [ {
          "id": "InitialPopulation_1",
          "code": {
            "coding": [ {
              "system": "http://terminology.hl7.org/CodeSystem/measure-population",
              "code": "initial-population",
              "display": "Initial Population"
            } ]
          },
          "count": 1
        }, {
          "id": "Denominator_1",
          "code": {
            "coding": [ {
              "system": "http://terminology.hl7.org/CodeSystem/measure-population",
              "code": "denominator",
              "display": "Denominator"
            } ]
          },
          "count": 1
        }, {
          "id": "DenominatorExclusion_1",
          "code": {
            "coding": [ {
              "system": "http://terminology.hl7.org/CodeSystem/measure-population",
              "code": "denominator-exclusion",
              "display": "Denominator Exclusion"
            } ]
          },
          "count": 0
        }, {
          "id": "Numerator_1",
          "code": {
            "coding": [ {
              "system": "http://terminology.hl7.org/CodeSystem/measure-population",
              "code": "numerator",
              "display": "Numerator"
            } ]
          },
          "count": 1
        } ],
        "measureScore": {
          "value": 0.0
        }
      } ],
      "evaluatedResource": [ {
        "reference": "Patient/1d907390-04db-46f5-b429-955aa427e815"
      }, {
        "reference": "Encounter/2c80a3dd-6d02-4703-af5c-53d03446e96b"
      }, {
        "reference": "Encounter/f33dcccc-e03d-45b1-ae5a-02781dee78bc"
      }, {
        "reference": "Coverage/9c94160f-4bd1-4a98-95c0-00330190dbab"
      }, {
        "reference": "MedicationAdministration/ac572fbc-9a4a-4c0a-8759-89ab1d438401"
      }, {
        "reference": "Condition/89b43327-f694-4d8d-b4cf-9635fc331aba"
      }, {
        "reference": "Organization/77f3ba87-d5a5-47ca-904d-bc2ac7e78dcf"
      }, {
        "reference": "Practitioner/8974f23e-3d23-47fc-b87b-ff0f56c46bcb"
      } ]
    },
    "request": {
      "method": "PUT",
      "url": "MeasureReport/78e4c4dd-c056-4f80-9a0d-39d5639fa168"
    }
  } ]
}