{
  "resourceType": "Bundle",
  "id": "649f402a585d003d2ac643d4",
  "type": "collection",
  "entry": [ {
    "fullUrl": "https://madie.cms.gov/Patient/23a881d2-1897-4674-8857-c438bdb8bd7d",
    "resource": {
      "resourceType": "Patient",
      "id": "23a881d2-1897-4674-8857-c438bdb8bd7d",
      "meta": {
        "profile": [ "http://hl7.org/fhir/us/qicore/StructureDefinition/qicore-patient" ]
      },
      "extension": [ {
        "url": "http://hl7.org/fhir/us/core/StructureDefinition/us-core-race",
        "extension": [ {
          "url": "ombCategory",
          "valueCoding": {
            "system": "urn:oid:2.16.840.1.113883.6.238",
            "code": "2054-5",
            "display": "Black or African American",
            "userSelected": true
          }
        }, {
          "url": "text",
          "valueString": "Black or African American"
        } ]
      }, {
        "url": "http://hl7.org/fhir/us/core/StructureDefinition/us-core-ethnicity",
        "extension": [ {
          "url": "ombCategory",
          "valueCoding": {
            "system": "urn:oid:2.16.840.1.113883.6.238",
            "code": "2186-5",
            "display": "Not Hispanic or Latino",
            "userSelected": true
          }
        }, {
          "url": "text",
          "valueString": "Not Hispanic or Latino"
        } ]
      } ],
      "identifier": [ {
        "type": {
          "coding": [ {
            "system": "http://terminology.hl7.org/CodeSystem/v2-0203",
            "code": "MR"
          } ]
        },
        "system": "https://bonnie-fhir.healthit.gov/",
        "value": "649f402a585d003d2ac643d4"
      } ],
      "name": [ {
        "family": "NUMFail",
        "given": [ "3LabBeforeMP" ]
      } ],
      "gender": "female",
      "birthDate": "2001-02-04"
    }
  }, {
    "fullUrl": "https://madie.cms.gov/Condition/36dfbe7b-1a20-4dc6-8adb-c2a2a3d41e35",
    "resource": {
      "resourceType": "Condition",
      "id": "36dfbe7b-1a20-4dc6-8adb-c2a2a3d41e35",
      "meta": {
        "profile": [ "http://hl7.org/fhir/us/qicore/StructureDefinition/qicore-condition-problems-health-concerns" ]
      },
      "clinicalStatus": {
        "coding": [ {
          "system": "http://terminology.hl7.org/CodeSystem/condition-clinical",
          "code": "active",
          "display": "active",
          "userSelected": true
        } ]
      },
      "category": [ {
        "coding": [ {
          "system": "http://terminology.hl7.org/CodeSystem/condition-category",
          "code": "problem-list-item",
          "display": "Problem List Item"
        } ]
      } ],
      "code": {
        "coding": [ {
          "system": "http://hl7.org/fhir/sid/icd-9-cm",
          "version": "2013",
          "code": "042",
          "display": "Human immunodeficiency virus [HIV] disease",
          "userSelected": true
        }, {
          "system": "http://snomed.info/sct",
          "version": "http://snomed.info/sct/731000124108/version/20250301",
          "code": "165816005",
          "userSelected": true
        } ]
      },
      "subject": {
        "reference": "Patient/23a881d2-1897-4674-8857-c438bdb8bd7d"
      },
      "onsetDateTime": "2018-09-28T08:00:00.000+00:00",
      "recordedDate": "2018-09-28T08:00:00.000+00:00"
    }
  }, {
    "fullUrl": "https://madie.cms.gov/Encounter/cb780dd5-f870-4208-8261-a0b58bbf04d3",
    "resource": {
      "resourceType": "Encounter",
      "id": "cb780dd5-f870-4208-8261-a0b58bbf04d3",
      "meta": {
        "profile": [ "http://hl7.org/fhir/us/qicore/StructureDefinition/qicore-encounter" ]
      },
      "status": "finished",
      "class": {
        "system": "http://terminology.hl7.org/CodeSystem/v3-ActCode",
        "code": "AMB",
        "display": "ambulatory"
      },
      "type": [ {
        "coding": [ {
          "system": "http://www.ama-assn.org/go/cpt",
          "version": "2023",
          "code": "99381",
          "display": "Initial comprehensive preventive medicine evaluation and management of an individual including an age and gender appropriate history, examination, counseling/anticipatory guidance/risk factor reduction interventions, and the ordering of laboratory/diagnostic procedures, new patient; infant (age younger than 1 year)",
          "userSelected": true
        } ]
      } ],
      "subject": {
        "reference": "Patient/23a881d2-1897-4674-8857-c438bdb8bd7d"
      },
      "period": {
        "start": "2026-09-28T08:00:00.000+00:00",
        "end": "2026-09-28T08:30:00.000+00:00"
      }
    }
  }, {
    "fullUrl": "https://madie.cms.gov/Observation/5fb24e74-9339-4a9d-9a3f-1d5738463f13",
    "resource": {
      "resourceType": "Observation",
      "id": "5fb24e74-9339-4a9d-9a3f-1d5738463f13",
      "meta": {
        "profile": [ "http://hl7.org/fhir/us/qicore/StructureDefinition/qicore-observation-lab" ]
      },
      "status": "final",
      "category": [ {
        "coding": [ {
          "system": "http://terminology.hl7.org/CodeSystem/observation-category",
          "code": "laboratory",
          "display": "Laboratory"
        } ]
      }, {
        "coding": [ {
          "system": "http://terminology.hl7.org/CodeSystem/observation-category",
          "code": "survey"
        } ]
      } ],
      "code": {
        "coding": [ {
          "system": "http://loinc.org",
          "version": "2.73",
          "code": "11084-1",
          "display": "Reagin Ab [Titer] in Serum",
          "userSelected": true
        } ]
      },
      "subject": {
        "reference": "Patient/23a881d2-1897-4674-8857-c438bdb8bd7d"
      },
      "effectivePeriod": {
        "start": "2024-12-31T08:00:00.000+00:00",
        "end": "2024-12-31T08:15:00.000+00:00"
      },
      "issued": "2024-12-31T08:16:00.000+00:00",
      "valueQuantity": {
        "value": 15
      }
    }
  }, {
    "fullUrl": "https://madie.cms.gov/Observation/e0d1c66e-4d0d-483e-8357-9f367b2f4d72",
    "resource": {
      "resourceType": "Observation",
      "id": "e0d1c66e-4d0d-483e-8357-9f367b2f4d72",
      "meta": {
        "profile": [ "http://hl7.org/fhir/us/qicore/StructureDefinition/qicore-observation-lab" ]
      },
      "status": "final",
      "category": [ {
        "coding": [ {
          "system": "http://terminology.hl7.org/CodeSystem/observation-category",
          "code": "laboratory",
          "display": "Laboratory"
        } ]
      }, {
        "coding": [ {
          "system": "http://terminology.hl7.org/CodeSystem/observation-category",
          "code": "survey"
        } ]
      } ],
      "code": {
        "coding": [ {
          "system": "http://loinc.org",
          "version": "2.73",
          "code": "21414-8",
          "display": "Neisseria gonorrhoeae DNA [Presence] in Cervical mucus by NAA with probe detection",
          "userSelected": true
        } ]
      },
      "subject": {
        "reference": "Patient/23a881d2-1897-4674-8857-c438bdb8bd7d"
      },
      "effectivePeriod": {
        "start": "2024-12-31T08:00:00.000+00:00",
        "end": "2024-12-31T08:15:00.000+00:00"
      },
      "issued": "2024-12-31T08:16:00.000+00:00",
      "valueQuantity": {
        "value": 38
      }
    }
  }, {
    "fullUrl": "https://madie.cms.gov/Observation/ac760bd0-6787-4b1b-a3a2-8cf72dc8b1f4",
    "resource": {
      "resourceType": "Observation",
      "id": "ac760bd0-6787-4b1b-a3a2-8cf72dc8b1f4",
      "meta": {
        "profile": [ "http://hl7.org/fhir/us/qicore/StructureDefinition/qicore-observation-lab" ]
      },
      "status": "final",
      "category": [ {
        "coding": [ {
          "system": "http://terminology.hl7.org/CodeSystem/observation-category",
          "code": "laboratory",
          "display": "Laboratory"
        } ]
      }, {
        "coding": [ {
          "system": "http://terminology.hl7.org/CodeSystem/observation-category",
          "code": "survey"
        } ]
      } ],
      "code": {
        "coding": [ {
          "system": "http://loinc.org",
          "version": "2.73",
          "code": "14463-4",
          "display": "Chlamydia trachomatis [Presence] in Cervix by Organism specific culture",
          "userSelected": true
        } ]
      },
      "subject": {
        "reference": "Patient/23a881d2-1897-4674-8857-c438bdb8bd7d"
      },
      "effectivePeriod": {
        "start": "2024-12-31T08:00:00.000+00:00",
        "end": "2024-12-31T08:15:00.000+00:00"
      },
      "issued": "2024-12-31T08:16:00.000+00:00",
      "valueQuantity": {
        "value": 22
      }
    }
  }, {
    "fullUrl": "https://madie.cms.gov/Coverage/99e2eacd-0553-4835-b385-30402791c91c",
    "resource": {
      "resourceType": "Coverage",
      "id": "99e2eacd-0553-4835-b385-30402791c91c",
      "meta": {
        "profile": [ "http://hl7.org/fhir/us/qicore/StructureDefinition/qicore-coverage" ]
      },
      "status": "active",
      "subscriberId": "123456",
      "beneficiary": {
        "reference": "Patient/23a881d2-1897-4674-8857-c438bdb8bd7d"
      },
      "relationship": {
        "coding": [ {
          "system": "http://terminology.hl7.org/CodeSystem/subscriber-relationship",
          "code": "self",
          "display": "Self"
        } ]
      },
      "payor": [ {
        "reference": "Organization/eb4a11ed-7988-4b53-b77c-d00d361474c5"
      } ]
    }
  }, {
    "fullUrl": "https://madie.cms.gov/Organization/eb4a11ed-7988-4b53-b77c-d00d361474c5",
    "resource": {
      "resourceType": "Organization",
      "id": "eb4a11ed-7988-4b53-b77c-d00d361474c5",
      "meta": {
        "profile": [ "http://hl7.org/fhir/us/qicore/StructureDefinition/qicore-organization" ]
      },
      "identifier": [ {
        "use": "temp",
        "system": "urn:oid:2.16.840.1.113883.4.4",
        "value": "21-3259825"
      } ],
      "active": true,
      "type": [ {
        "coding": [ {
          "system": "http://terminology.hl7.org/CodeSystem/organization-type",
          "code": "pay",
          "display": "Payer"
        } ]
      } ],
      "name": "Blue Cross Blue Shield of Texas",
      "telecom": [ {
        "system": "phone",
        "value": "(+1) 972-766-6900"
      } ],
      "address": [ {
        "use": "billing",
        "type": "postal",
        "line": [ "P.O. Box 660044" ],
        "city": "Dallas",
        "state": "TX",
        "postalCode": "75266-0044",
        "country": "USA"
      } ]
    }
  }, {
    "fullUrl": "https://madie.cms.gov/Practitioner/1c615b7b-90ea-4bc3-9708-c48f9b07fa91",
    "resource": {
      "resourceType": "Practitioner",
      "id": "1c615b7b-90ea-4bc3-9708-c48f9b07fa91",
      "meta": {
        "profile": [ "http://hl7.org/fhir/us/qicore/StructureDefinition/qicore-practitioner" ]
      },
      "identifier": [ {
        "system": "http://hl7.org/fhir/sid/us-npi",
        "value": "1689411712"
      } ],
      "name": [ {
        "family": "Evil",
        "prefix": [ "Dr" ]
      } ]
    }
  }, {
    "fullUrl": "https://madie.cms.gov/MeasureReport/7ab22c31-33c1-4448-af97-57ddce3a4648",
    "resource": {
      "resourceType": "MeasureReport",
      "id": "7ab22c31-33c1-4448-af97-57ddce3a4648",
      "meta": {
        "profile": [ "http://hl7.org/fhir/us/cqfmeasures/StructureDefinition/test-case-cqfm" ]
      },
      "contained": [ {
        "resourceType": "Parameters",
        "id": "fca2fc7d-bc5a-402d-b99c-e2879dd4991e-parameters",
        "parameter": [ {
          "name": "subject",
          "valueString": "23a881d2-1897-4674-8857-c438bdb8bd7d"
        } ]
      } ],
      "extension": [ {
        "url": "http://hl7.org/fhir/StructureDefinition/cqf-inputParameters",
        "valueReference": {
          "reference": "#fca2fc7d-bc5a-402d-b99c-e2879dd4991e-parameters"
        }
      }, {
        "url": "http://hl7.org/fhir/us/cqfmeasures/StructureDefinition/cqfm-testCaseDescription",
        "valueMarkdown": "Patient is over 13 years old with an encounter - 3 STI screen periods before MP, 0 STI screen during MP"
      } ],
      "modifierExtension": [ {
        "url": "http://hl7.org/fhir/us/cqfmeasures/StructureDefinition/cqfm-isTestCase",
        "valueBoolean": true
      } ],
      "status": "complete",
      "type": "individual",
      "measure": "https://madie.cms.gov/Measure/CMS1188FHIRHIVSTITesting",
      "period": {
        "start": "2026-01-01",
        "end": "2026-12-31"
      },
      "group": [ {
        "id": "Group_1",
        "population": [ {
          "id": "InitialPopulation_1",
          "code": {
            "coding": [ {
              "system": "http://terminology.hl7.org/CodeSystem/measure-population",
              "code": "initial-population",
              "display": "Initial Population"
            } ]
          },
          "count": 1
        }, {
          "id": "Denominator_1",
          "code": {
            "coding": [ {
              "system": "http://terminology.hl7.org/CodeSystem/measure-population",
              "code": "denominator",
              "display": "Denominator"
            } ]
          },
          "count": 1
        }, {
          "id": "Numerator_1",
          "code": {
            "coding": [ {
              "system": "http://terminology.hl7.org/CodeSystem/measure-population",
              "code": "numerator",
              "display": "Numerator"
            } ]
          },
          "count": 0
        } ],
        "measureScore": {
          "value": 1.0
        }
      } ],
      "evaluatedResource": [ {
        "reference": "Patient/23a881d2-1897-4674-8857-c438bdb8bd7d"
      }, {
        "reference": "Condition/36dfbe7b-1a20-4dc6-8adb-c2a2a3d41e35"
      }, {
        "reference": "Encounter/cb780dd5-f870-4208-8261-a0b58bbf04d3"
      }, {
        "reference": "Observation/5fb24e74-9339-4a9d-9a3f-1d5738463f13"
      }, {
        "reference": "Observation/e0d1c66e-4d0d-483e-8357-9f367b2f4d72"
      }, {
        "reference": "Observation/ac760bd0-6787-4b1b-a3a2-8cf72dc8b1f4"
      }, {
        "reference": "Coverage/99e2eacd-0553-4835-b385-30402791c91c"
      }, {
        "reference": "Organization/eb4a11ed-7988-4b53-b77c-d00d361474c5"
      }, {
        "reference": "Practitioner/1c615b7b-90ea-4bc3-9708-c48f9b07fa91"
      } ]
    }
  } ]
}