{
  "resourceType": "Bundle",
  "id": "tests-e2f1c511-959c-4f2a-b886-c820d983c2e3-bundle",
  "type": "transaction",
  "entry": [ {
    "fullUrl": "https://madie.cms.gov/MeasureReport/799b3aae-ed40-49a6-b7dc-4d887d5e9ef7",
    "resource": {
      "resourceType": "MeasureReport",
      "id": "799b3aae-ed40-49a6-b7dc-4d887d5e9ef7",
      "meta": {
        "profile": [ "http://hl7.org/fhir/us/cqfmeasures/StructureDefinition/test-case-cqfm" ]
      },
      "contained": [ {
        "resourceType": "Parameters",
        "id": "0843468c-9fc6-4328-8e76-9c832f7b3503-parameters",
        "parameter": [ {
          "name": "subject",
          "valueString": "e2f1c511-959c-4f2a-b886-c820d983c2e3"
        } ]
      } ],
      "extension": [ {
        "url": "http://hl7.org/fhir/us/cqfmeasures/StructureDefinition/cqfm-inputParameters",
        "valueReference": {
          "reference": "#0843468c-9fc6-4328-8e76-9c832f7b3503-parameters"
        }
      }, {
        "url": "http://hl7.org/fhir/us/cqfmeasures/StructureDefinition/cqfm-testCaseDescription",
        "valueMarkdown": "Elective hospitalization with tracheostomy procedure with start datetime during general anesthesia period. No other procedure (i.e., anesthesia) occurs during encounter. Meets Denom exclusion."
      } ],
      "modifierExtension": [ {
        "url": "http://hl7.org/fhir/us/cqfmeasures/StructureDefinition/cqfm-isTestCase",
        "valueBoolean": true
      } ],
      "status": "complete",
      "type": "individual",
      "measure": "https://madie.cms.gov/Measure/CMS1218HHRFFHIR",
      "period": {
        "start": "2026-01-01",
        "end": "2026-12-31"
      },
      "group": [ {
        "id": "67520e47670f1c0879cef598",
        "population": [ {
          "id": "EBD61368-EDA1-4A7F-B134-48A501C47028",
          "code": {
            "coding": [ {
              "system": "http://terminology.hl7.org/CodeSystem/measure-population",
              "code": "initial-population",
              "display": "Initial Population"
            } ]
          },
          "count": 1
        }, {
          "id": "A15EB430-6645-42AC-8FCE-0FF0BF0B4749",
          "code": {
            "coding": [ {
              "system": "http://terminology.hl7.org/CodeSystem/measure-population",
              "code": "denominator",
              "display": "Denominator"
            } ]
          },
          "count": 1
        }, {
          "id": "1389AFF6-741D-47CB-BED0-62D858980EE4",
          "code": {
            "coding": [ {
              "system": "http://terminology.hl7.org/CodeSystem/measure-population",
              "code": "denominator-exclusion",
              "display": "Denominator Exclusion"
            } ]
          },
          "count": 1
        }, {
          "id": "F1D273B8-1513-4C6E-B65F-22FD939174E6",
          "code": {
            "coding": [ {
              "system": "http://terminology.hl7.org/CodeSystem/measure-population",
              "code": "numerator",
              "display": "Numerator"
            } ]
          },
          "count": 0
        } ],
        "measureScore": {
          "value": 0.0
        }
      } ],
      "evaluatedResource": [ {
        "reference": "Encounter/d8f85865-06e4-4b65-8436-1a0b3161dee7"
      }, {
        "reference": "Patient/e2f1c511-959c-4f2a-b886-c820d983c2e3"
      }, {
        "reference": "Procedure/92ca78d2-9cd0-4a3a-b378-b8bd56c5213f"
      }, {
        "reference": "Procedure/cd99b3a6-35f8-4877-bd29-dedd6138f029"
      } ]
    },
    "request": {
      "method": "PUT",
      "url": "MeasureReport/799b3aae-ed40-49a6-b7dc-4d887d5e9ef7"
    }
  }, {
    "fullUrl": "https://madie.cms.gov/Encounter/d8f85865-06e4-4b65-8436-1a0b3161dee7",
    "resource": {
      "resourceType": "Encounter",
      "id": "d8f85865-06e4-4b65-8436-1a0b3161dee7",
      "meta": {
        "profile": [ "http://hl7.org/fhir/us/qicore/StructureDefinition/qicore-encounter" ]
      },
      "status": "finished",
      "class": {
        "system": "http://terminology.hl7.org/CodeSystem/v3-ActCode",
        "code": "IMP",
        "display": "inpatient encounter"
      },
      "type": [ {
        "coding": [ {
          "system": "http://snomed.info/sct",
          "code": "112689000",
          "display": "Hospital admission, elective, with complete pre-admission work-up"
        } ],
        "text": "Hospital admission, elective, with complete pre-admission work-up"
      } ],
      "priority": {
        "coding": [ {
          "system": "http://snomed.info/sct",
          "code": "103390000"
        } ]
      },
      "subject": {
        "reference": "Patient/e2f1c511-959c-4f2a-b886-c820d983c2e3"
      },
      "period": {
        "start": "2026-04-10T08:00:00.000+00:00",
        "end": "2026-04-14T08:15:00.000+00:00"
      }
    },
    "request": {
      "method": "PUT",
      "url": "Encounter/d8f85865-06e4-4b65-8436-1a0b3161dee7"
    }
  }, {
    "fullUrl": "https://madie.cms.gov/Procedure/92ca78d2-9cd0-4a3a-b378-b8bd56c5213f",
    "resource": {
      "resourceType": "Procedure",
      "id": "92ca78d2-9cd0-4a3a-b378-b8bd56c5213f",
      "meta": {
        "profile": [ "http://hl7.org/fhir/us/qicore/StructureDefinition/qicore-procedure" ]
      },
      "extension": [ {
        "url": "http://hl7.org/fhir/us/qicore/StructureDefinition/qicore-recorded",
        "valueDateTime": "2026-04-11T10:20:00.000+00:00"
      } ],
      "status": "completed",
      "category": {
        "coding": [ {
          "system": "http://snomed.info/sct",
          "code": "18286008",
          "display": "General or neuraxial anesthesia"
        } ]
      },
      "code": {
        "coding": [ {
          "system": "http://snomed.info/sct",
          "code": "112943005",
          "display": "Epidural injection of anesthetic substance, diagnostic, caudal, continuous"
        } ]
      },
      "subject": {
        "reference": "Patient/e2f1c511-959c-4f2a-b886-c820d983c2e3"
      },
      "performedPeriod": {
        "start": "2026-04-11T08:00:00.000+00:00",
        "end": "2026-04-11T10:15:00.000+00:00"
      }
    },
    "request": {
      "method": "PUT",
      "url": "Procedure/92ca78d2-9cd0-4a3a-b378-b8bd56c5213f"
    }
  }, {
    "fullUrl": "https://madie.cms.gov/Procedure/cd99b3a6-35f8-4877-bd29-dedd6138f029",
    "resource": {
      "resourceType": "Procedure",
      "id": "cd99b3a6-35f8-4877-bd29-dedd6138f029",
      "meta": {
        "profile": [ "http://hl7.org/fhir/us/qicore/StructureDefinition/qicore-procedure" ]
      },
      "extension": [ {
        "url": "http://hl7.org/fhir/us/qicore/StructureDefinition/qicore-recorded",
        "valueDateTime": "2026-04-11T09:10:00.000+00:00"
      } ],
      "status": "completed",
      "code": {
        "coding": [ {
          "system": "http://www.cms.gov/Medicare/Coding/ICD10",
          "code": "0BW10FZ",
          "display": "Revision of Tracheostomy Device in Trachea, Open Approach"
        } ],
        "text": "Revision of Tracheostomy Device in Trachea, Open Approach"
      },
      "subject": {
        "reference": "Patient/e2f1c511-959c-4f2a-b886-c820d983c2e3"
      },
      "performedDateTime": "2026-04-11T09:00:00.000+00:00"
    },
    "request": {
      "method": "PUT",
      "url": "Procedure/cd99b3a6-35f8-4877-bd29-dedd6138f029"
    }
  }, {
    "fullUrl": "https://madie.cms.gov/Patient/e2f1c511-959c-4f2a-b886-c820d983c2e3",
    "resource": {
      "resourceType": "Patient",
      "id": "e2f1c511-959c-4f2a-b886-c820d983c2e3",
      "meta": {
        "profile": [ "http://hl7.org/fhir/us/qicore/StructureDefinition/qicore-patient" ]
      },
      "extension": [ {
        "url": "http://hl7.org/fhir/us/core/StructureDefinition/us-core-race",
        "extension": [ {
          "url": "ombCategory",
          "valueCoding": {
            "system": "urn:oid:2.16.840.1.113883.6.238",
            "code": "2054-5",
            "display": "Black or African American",
            "userSelected": true
          }
        }, {
          "url": "text",
          "valueString": "Black or African American"
        } ]
      }, {
        "url": "http://hl7.org/fhir/us/core/StructureDefinition/us-core-ethnicity",
        "extension": [ {
          "url": "ombCategory",
          "valueCoding": {
            "system": "urn:oid:2.16.840.1.113883.6.238",
            "code": "2186-5",
            "display": "Not Hispanic or Latino",
            "userSelected": true
          }
        }, {
          "url": "text",
          "valueString": "Not Hispanic or Latino"
        } ]
      } ],
      "identifier": [ {
        "type": {
          "coding": [ {
            "system": "http://terminology.hl7.org/CodeSystem/v2-0203",
            "code": "MR"
          } ]
        },
        "system": "https://bonnie-fhir.healthit.gov/",
        "value": "61152a3b98086b7a79cbd7c1"
      } ],
      "active": true,
      "name": [ {
        "use": "usual",
        "family": "DENEXPass",
        "given": [ "DENEXPass-TrachOnlyProcedure" ]
      } ],
      "gender": "female",
      "birthDate": "1966-07-12"
    },
    "request": {
      "method": "PUT",
      "url": "Patient/e2f1c511-959c-4f2a-b886-c820d983c2e3"
    }
  }, {
    "fullUrl": "https://madie.cms.gov/MeasureReport/99bd835f-4f34-413e-a3c1-c5e90c93047f",
    "resource": {
      "resourceType": "MeasureReport",
      "id": "99bd835f-4f34-413e-a3c1-c5e90c93047f",
      "meta": {
        "profile": [ "http://hl7.org/fhir/us/cqfmeasures/StructureDefinition/test-case-cqfm" ]
      },
      "contained": [ {
        "resourceType": "Parameters",
        "id": "73e9b10b-a4b9-4098-93f7-abae8d6a0498-parameters",
        "parameter": [ {
          "name": "subject",
          "valueString": "e2f1c511-959c-4f2a-b886-c820d983c2e3"
        } ]
      } ],
      "extension": [ {
        "url": "http://hl7.org/fhir/StructureDefinition/cqf-inputParameters",
        "valueReference": {
          "reference": "#73e9b10b-a4b9-4098-93f7-abae8d6a0498-parameters"
        }
      }, {
        "url": "http://hl7.org/fhir/us/cqfmeasures/StructureDefinition/cqfm-testCaseDescription",
        "valueMarkdown": "Elective hospitalization with tracheostomy procedure with start datetime during general anesthesia period. No other procedure (i.e., anesthesia) occurs during encounter. Meets Denom exclusion. \n"
      } ],
      "modifierExtension": [ {
        "url": "http://hl7.org/fhir/us/cqfmeasures/StructureDefinition/cqfm-isTestCase",
        "valueBoolean": true
      } ],
      "status": "complete",
      "type": "individual",
      "measure": "https://madie.cms.gov/Measure/CMS1218FHIRHHRF",
      "period": {
        "start": "2026-01-01",
        "end": "2026-12-31"
      },
      "group": [ {
        "id": "Group_1",
        "population": [ {
          "id": "InitialPopulation_1",
          "code": {
            "coding": [ {
              "system": "http://terminology.hl7.org/CodeSystem/measure-population",
              "code": "initial-population",
              "display": "Initial Population"
            } ]
          },
          "count": 1
        }, {
          "id": "Denominator_1",
          "code": {
            "coding": [ {
              "system": "http://terminology.hl7.org/CodeSystem/measure-population",
              "code": "denominator",
              "display": "Denominator"
            } ]
          },
          "count": 1
        }, {
          "id": "DenominatorExclusion_1",
          "code": {
            "coding": [ {
              "system": "http://terminology.hl7.org/CodeSystem/measure-population",
              "code": "denominator-exclusion",
              "display": "Denominator Exclusion"
            } ]
          },
          "count": 1
        }, {
          "id": "Numerator_1",
          "code": {
            "coding": [ {
              "system": "http://terminology.hl7.org/CodeSystem/measure-population",
              "code": "numerator",
              "display": "Numerator"
            } ]
          },
          "count": 0
        } ],
        "measureScore": {
          "value": 0.0
        }
      } ],
      "evaluatedResource": [ {
        "reference": "MeasureReport/799b3aae-ed40-49a6-b7dc-4d887d5e9ef7"
      }, {
        "reference": "Encounter/d8f85865-06e4-4b65-8436-1a0b3161dee7"
      }, {
        "reference": "Procedure/92ca78d2-9cd0-4a3a-b378-b8bd56c5213f"
      }, {
        "reference": "Procedure/cd99b3a6-35f8-4877-bd29-dedd6138f029"
      }, {
        "reference": "Patient/e2f1c511-959c-4f2a-b886-c820d983c2e3"
      } ]
    },
    "request": {
      "method": "PUT",
      "url": "MeasureReport/99bd835f-4f34-413e-a3c1-c5e90c93047f"
    }
  } ]
}