{
  "resourceType": "Bundle",
  "id": "tests-cb4e080a-0fb4-4a02-b923-aef5a4264fb3-bundle",
  "type": "transaction",
  "entry": [ {
    "fullUrl": "https://madie.cms.gov/Procedure/5d54459d-e77c-4e11-89b7-a2bc6f6fe6ce",
    "resource": {
      "resourceType": "Procedure",
      "id": "5d54459d-e77c-4e11-89b7-a2bc6f6fe6ce",
      "meta": {
        "profile": [ "http://hl7.org/fhir/us/qicore/StructureDefinition/qicore-procedure" ]
      },
      "extension": [ {
        "url": "http://hl7.org/fhir/us/qicore/StructureDefinition/qicore-recorded",
        "valueDateTime": "2026-04-11T10:20:00.000+00:00"
      } ],
      "status": "completed",
      "category": {
        "coding": [ {
          "system": "http://snomed.info/sct",
          "code": "18286008",
          "display": "General or neuraxial anesthesia"
        } ]
      },
      "code": {
        "coding": [ {
          "system": "http://snomed.info/sct",
          "code": "112943005",
          "display": "Epidural injection of anesthetic substance, diagnostic, caudal, continuous"
        } ]
      },
      "subject": {
        "reference": "Patient/cb4e080a-0fb4-4a02-b923-aef5a4264fb3"
      },
      "performedPeriod": {
        "start": "2026-04-11T08:00:00.000+00:00",
        "end": "2026-04-11T10:15:00.000+00:00"
      }
    },
    "request": {
      "method": "PUT",
      "url": "Procedure/5d54459d-e77c-4e11-89b7-a2bc6f6fe6ce"
    }
  }, {
    "fullUrl": "https://madie.cms.gov/Encounter/4cf86e93-3658-4d11-9674-3161ca9465ab",
    "resource": {
      "resourceType": "Encounter",
      "id": "4cf86e93-3658-4d11-9674-3161ca9465ab",
      "meta": {
        "profile": [ "http://hl7.org/fhir/us/qicore/StructureDefinition/qicore-encounter" ]
      },
      "status": "finished",
      "class": {
        "system": "http://terminology.hl7.org/CodeSystem/v3-ActCode",
        "code": "IMP",
        "display": "inpatient encounter"
      },
      "type": [ {
        "coding": [ {
          "system": "http://snomed.info/sct",
          "code": "112689000",
          "display": "Hospital admission, elective, with complete pre-admission work-up"
        } ],
        "text": "Hospital admission, elective, with complete pre-admission work-up"
      } ],
      "priority": {
        "coding": [ {
          "system": "http://snomed.info/sct",
          "code": "103390000"
        } ]
      },
      "subject": {
        "reference": "Patient/cb4e080a-0fb4-4a02-b923-aef5a4264fb3"
      },
      "period": {
        "start": "2026-04-10T08:00:00.000+00:00",
        "end": "2026-04-16T08:15:00.000+00:00"
      }
    },
    "request": {
      "method": "PUT",
      "url": "Encounter/4cf86e93-3658-4d11-9674-3161ca9465ab"
    }
  }, {
    "fullUrl": "https://madie.cms.gov/Procedure/ad3d7e9d-2767-4995-b642-d2e474c38197",
    "resource": {
      "resourceType": "Procedure",
      "id": "ad3d7e9d-2767-4995-b642-d2e474c38197",
      "meta": {
        "profile": [ "http://hl7.org/fhir/us/qicore/StructureDefinition/qicore-procedure" ]
      },
      "extension": [ {
        "url": "http://hl7.org/fhir/us/qicore/StructureDefinition/qicore-recorded",
        "valueDateTime": "2026-04-13T11:30:00.000+00:00"
      } ],
      "status": "completed",
      "category": {
        "coding": [ {
          "system": "http://snomed.info/sct",
          "code": "18286008",
          "display": "General or neuraxial anesthesia"
        } ]
      },
      "code": {
        "coding": [ {
          "system": "http://snomed.info/sct",
          "code": "112943005",
          "display": "Epidural injection of anesthetic substance, diagnostic, caudal, continuous"
        } ]
      },
      "subject": {
        "reference": "Patient/cb4e080a-0fb4-4a02-b923-aef5a4264fb3"
      },
      "performedPeriod": {
        "start": "2026-04-13T08:00:00.000+00:00",
        "end": "2026-04-13T11:15:00.000+00:00"
      }
    },
    "request": {
      "method": "PUT",
      "url": "Procedure/ad3d7e9d-2767-4995-b642-d2e474c38197"
    }
  }, {
    "fullUrl": "https://madie.cms.gov/Patient/cb4e080a-0fb4-4a02-b923-aef5a4264fb3",
    "resource": {
      "resourceType": "Patient",
      "id": "cb4e080a-0fb4-4a02-b923-aef5a4264fb3",
      "meta": {
        "profile": [ "http://hl7.org/fhir/us/qicore/StructureDefinition/qicore-patient" ]
      },
      "extension": [ {
        "url": "http://hl7.org/fhir/us/core/StructureDefinition/us-core-race",
        "extension": [ {
          "url": "ombCategory",
          "valueCoding": {
            "system": "urn:oid:2.16.840.1.113883.6.238",
            "code": "2054-5",
            "display": "Black or African American",
            "userSelected": true
          }
        }, {
          "url": "text",
          "valueString": "Black or African American"
        } ]
      }, {
        "url": "http://hl7.org/fhir/us/core/StructureDefinition/us-core-ethnicity",
        "extension": [ {
          "url": "ombCategory",
          "valueCoding": {
            "system": "urn:oid:2.16.840.1.113883.6.238",
            "code": "2186-5",
            "display": "Not Hispanic or Latino",
            "userSelected": true
          }
        }, {
          "url": "text",
          "valueString": "Not Hispanic or Latino"
        } ]
      } ],
      "identifier": [ {
        "type": {
          "coding": [ {
            "system": "http://terminology.hl7.org/CodeSystem/v2-0203",
            "code": "MR"
          } ]
        },
        "system": "https://bonnie-fhir.healthit.gov/",
        "value": "61152a3b98086b7a79cbd7c1"
      } ],
      "active": true,
      "name": [ {
        "use": "usual",
        "family": "NUMER1Pass",
        "given": [ "2IntubsDurFirstORandAft2ndProc" ]
      } ],
      "gender": "female",
      "birthDate": "1966-07-12"
    },
    "request": {
      "method": "PUT",
      "url": "Patient/cb4e080a-0fb4-4a02-b923-aef5a4264fb3"
    }
  }, {
    "fullUrl": "https://madie.cms.gov/Procedure/aea10059-757a-4dd0-a2ee-e07e355b9089",
    "resource": {
      "resourceType": "Procedure",
      "id": "aea10059-757a-4dd0-a2ee-e07e355b9089",
      "meta": {
        "profile": [ "http://hl7.org/fhir/us/qicore/StructureDefinition/qicore-procedure" ]
      },
      "extension": [ {
        "url": "http://hl7.org/fhir/us/qicore/StructureDefinition/qicore-recorded",
        "valueDateTime": "2026-04-14T12:10:00.000+00:00"
      } ],
      "status": "completed",
      "code": {
        "coding": [ {
          "system": "http://www.cms.gov/Medicare/Coding/ICD10",
          "code": "0BH13EZ",
          "display": "Insertion of Endotracheal Airway into Trachea, Percutaneous Approach"
        } ],
        "text": "Insertion of Endotracheal Airway into Trachea, Percutaneous Approach"
      },
      "subject": {
        "reference": "Patient/cb4e080a-0fb4-4a02-b923-aef5a4264fb3"
      },
      "performedDateTime": "2026-04-13T12:00:00.000+00:00"
    },
    "request": {
      "method": "PUT",
      "url": "Procedure/aea10059-757a-4dd0-a2ee-e07e355b9089"
    }
  }, {
    "fullUrl": "https://madie.cms.gov/Procedure/bef12e50-63db-48f1-9f7c-50394fdc7ce6",
    "resource": {
      "resourceType": "Procedure",
      "id": "bef12e50-63db-48f1-9f7c-50394fdc7ce6",
      "meta": {
        "profile": [ "http://hl7.org/fhir/us/qicore/StructureDefinition/qicore-procedure" ]
      },
      "extension": [ {
        "url": "http://hl7.org/fhir/us/qicore/StructureDefinition/qicore-recorded",
        "valueDateTime": "2026-04-12T09:10:00.000+00:00"
      } ],
      "status": "completed",
      "code": {
        "coding": [ {
          "system": "http://www.cms.gov/Medicare/Coding/ICD10",
          "code": "0BH13EZ",
          "display": "Insertion of Endotracheal Airway into Trachea, Percutaneous Approach"
        } ],
        "text": "Insertion of Endotracheal Airway into Trachea, Percutaneous Approach"
      },
      "subject": {
        "reference": "Patient/cb4e080a-0fb4-4a02-b923-aef5a4264fb3"
      },
      "performedDateTime": "2026-04-11T09:00:00.000+00:00"
    },
    "request": {
      "method": "PUT",
      "url": "Procedure/bef12e50-63db-48f1-9f7c-50394fdc7ce6"
    }
  }, {
    "fullUrl": "https://madie.cms.gov/MeasureReport/38409f15-1e9b-4a25-a033-6a40fd1f19a7",
    "resource": {
      "resourceType": "MeasureReport",
      "id": "38409f15-1e9b-4a25-a033-6a40fd1f19a7",
      "meta": {
        "profile": [ "http://hl7.org/fhir/us/cqfmeasures/StructureDefinition/test-case-cqfm" ]
      },
      "contained": [ {
        "resourceType": "Parameters",
        "id": "e30f6eff-4bb8-4070-ac18-51f5bcb83f81-parameters",
        "parameter": [ {
          "name": "subject",
          "valueString": "cb4e080a-0fb4-4a02-b923-aef5a4264fb3"
        } ]
      } ],
      "extension": [ {
        "url": "http://hl7.org/fhir/StructureDefinition/cqf-inputParameters",
        "valueReference": {
          "reference": "#e30f6eff-4bb8-4070-ac18-51f5bcb83f81-parameters"
        }
      }, {
        "url": "http://hl7.org/fhir/us/cqfmeasures/StructureDefinition/cqfm-testCaseDescription",
        "valueMarkdown": "Elective hospitalization with procedure (general anesthesia) within first 3 days of encounter. Intubated during first proc. Intubated after end of second proc and not in proc area. Meets Numerator 1"
      } ],
      "modifierExtension": [ {
        "url": "http://hl7.org/fhir/us/cqfmeasures/StructureDefinition/cqfm-isTestCase",
        "valueBoolean": true
      } ],
      "status": "complete",
      "type": "individual",
      "measure": "https://madie.cms.gov/Measure/CMS1218FHIRHHRF",
      "period": {
        "start": "2026-01-01",
        "end": "2026-12-31"
      },
      "group": [ {
        "id": "Group_1",
        "population": [ {
          "id": "InitialPopulation_1",
          "code": {
            "coding": [ {
              "system": "http://terminology.hl7.org/CodeSystem/measure-population",
              "code": "initial-population",
              "display": "Initial Population"
            } ]
          },
          "count": 1
        }, {
          "id": "Denominator_1",
          "code": {
            "coding": [ {
              "system": "http://terminology.hl7.org/CodeSystem/measure-population",
              "code": "denominator",
              "display": "Denominator"
            } ]
          },
          "count": 1
        }, {
          "id": "DenominatorExclusion_1",
          "code": {
            "coding": [ {
              "system": "http://terminology.hl7.org/CodeSystem/measure-population",
              "code": "denominator-exclusion",
              "display": "Denominator Exclusion"
            } ]
          },
          "count": 0
        }, {
          "id": "Numerator_1",
          "code": {
            "coding": [ {
              "system": "http://terminology.hl7.org/CodeSystem/measure-population",
              "code": "numerator",
              "display": "Numerator"
            } ]
          },
          "count": 1
        } ],
        "measureScore": {
          "value": 0.0
        }
      } ],
      "evaluatedResource": [ {
        "reference": "Procedure/5d54459d-e77c-4e11-89b7-a2bc6f6fe6ce"
      }, {
        "reference": "Encounter/4cf86e93-3658-4d11-9674-3161ca9465ab"
      }, {
        "reference": "Procedure/ad3d7e9d-2767-4995-b642-d2e474c38197"
      }, {
        "reference": "Patient/cb4e080a-0fb4-4a02-b923-aef5a4264fb3"
      }, {
        "reference": "Procedure/aea10059-757a-4dd0-a2ee-e07e355b9089"
      }, {
        "reference": "Procedure/bef12e50-63db-48f1-9f7c-50394fdc7ce6"
      } ]
    },
    "request": {
      "method": "PUT",
      "url": "MeasureReport/38409f15-1e9b-4a25-a033-6a40fd1f19a7"
    }
  } ]
}