{
  "resourceType": "Bundle",
  "id": "60f82c2e98086b570510e27c",
  "type": "transaction",
  "entry": [ {
    "fullUrl": "https://madie.cms.gov/Patient/f0289acb-3172-4690-8b6a-dbd4d4913db5",
    "resource": {
      "resourceType": "Patient",
      "id": "f0289acb-3172-4690-8b6a-dbd4d4913db5",
      "meta": {
        "profile": [ "http://hl7.org/fhir/us/qicore/StructureDefinition/qicore-patient" ]
      },
      "text": {
        "status": "generated",
        "div": "<div xmlns=\"http://www.w3.org/1999/xhtml\"><div class=\"hapiHeaderText\">LOS&lt;2DaysNoEd <b>DENEXPASS </b></div><table class=\"hapiPropertyTable\"><tbody><tr><td>Identifier</td><td>4fd55685c1a03f29e7785ea7ae3bc81a</td></tr><tr><td>Date of birth</td><td><span>26 September 1975</span></td></tr></tbody></table></div>"
      },
      "extension": [ {
        "url": "http://hl7.org/fhir/us/core/StructureDefinition/us-core-race",
        "extension": [ {
          "url": "ombCategory",
          "valueCoding": {
            "system": "urn:oid:2.16.840.1.113883.6.238",
            "code": "2054-5",
            "display": "Black or African American",
            "userSelected": true
          }
        }, {
          "url": "text",
          "valueString": "Black or African American"
        } ]
      }, {
        "url": "http://hl7.org/fhir/us/core/StructureDefinition/us-core-ethnicity",
        "extension": [ {
          "url": "ombCategory",
          "valueCoding": {
            "system": "urn:oid:2.16.840.1.113883.6.238",
            "code": "2186-5",
            "display": "Not Hispanic or Latino",
            "userSelected": true
          }
        }, {
          "url": "text",
          "valueString": "Not Hispanic or Latino"
        } ]
      } ],
      "identifier": [ {
        "type": {
          "coding": [ {
            "system": "http://terminology.hl7.org/CodeSystem/v2-0203",
            "code": "MR"
          } ]
        },
        "system": "https://bonnie-fhir.healthit.gov/",
        "value": "60f82c2e98086b570510e27c"
      } ],
      "active": true,
      "name": [ {
        "use": "usual",
        "family": "DENEXPass",
        "given": [ "LOS<2DaysNoEd" ]
      } ],
      "gender": "female",
      "birthDate": "1976-09-26"
    },
    "request": {
      "method": "PUT",
      "url": "Patient/f0289acb-3172-4690-8b6a-dbd4d4913db5"
    }
  }, {
    "fullUrl": "https://madie.cms.gov/Encounter/152e7b65-3288-42d3-aff5-5736c425961b",
    "resource": {
      "resourceType": "Encounter",
      "id": "152e7b65-3288-42d3-aff5-5736c425961b",
      "meta": {
        "profile": [ "http://hl7.org/fhir/us/qicore/StructureDefinition/qicore-encounter" ]
      },
      "status": "finished",
      "class": {
        "system": "http://terminology.hl7.org/CodeSystem/v3-ActCode",
        "code": "IMP",
        "display": "inpatient encounter"
      },
      "type": [ {
        "coding": [ {
          "system": "http://snomed.info/sct",
          "code": "32485007"
        } ]
      } ],
      "subject": {
        "reference": "Patient/f0289acb-3172-4690-8b6a-dbd4d4913db5"
      },
      "period": {
        "start": "2026-10-10T09:00:00.000+00:00",
        "end": "2026-10-11T00:40:00.000+00:00"
      },
      "length": {
        "value": 1,
        "unit": "days"
      },
      "reasonReference": [ {
        "reference": "Condition/669d0c92-052b-4696-892d-f45faedfa3f3"
      } ]
    },
    "request": {
      "method": "PUT",
      "url": "Encounter/152e7b65-3288-42d3-aff5-5736c425961b"
    }
  }, {
    "fullUrl": "https://madie.cms.gov/MedicationAdministration/dce7b8a6-f7c5-4d09-9152-d7329b30fe82",
    "resource": {
      "resourceType": "MedicationAdministration",
      "id": "dce7b8a6-f7c5-4d09-9152-d7329b30fe82",
      "meta": {
        "profile": [ "http://hl7.org/fhir/us/qicore/StructureDefinition/qicore-medicationadministration" ]
      },
      "status": "completed",
      "medicationCodeableConcept": {
        "coding": [ {
          "system": "http://www.nlm.nih.gov/research/umls/rxnorm",
          "code": "198466"
        } ]
      },
      "subject": {
        "reference": "Patient/f0289acb-3172-4690-8b6a-dbd4d4913db5"
      },
      "effectivePeriod": {
        "start": "2026-10-11T23:59:00.000+00:00"
      }
    },
    "request": {
      "method": "PUT",
      "url": "MedicationAdministration/dce7b8a6-f7c5-4d09-9152-d7329b30fe82"
    }
  }, {
    "fullUrl": "https://madie.cms.gov/Coverage/11c7bf5a-ddc8-482e-a2f6-351d69693d77",
    "resource": {
      "resourceType": "Coverage",
      "id": "11c7bf5a-ddc8-482e-a2f6-351d69693d77",
      "status": "active",
      "beneficiary": {
        "reference": "Patient/f0289acb-3172-4690-8b6a-dbd4d4913db5"
      },
      "period": {
        "start": "1976-09-26T08:00:00.000+00:00"
      },
      "payor": [ {
        "reference": "Organization/3e42671d-55fb-4874-b365-61623c3b7123"
      } ]
    },
    "request": {
      "method": "PUT",
      "url": "Coverage/11c7bf5a-ddc8-482e-a2f6-351d69693d77"
    }
  }, {
    "fullUrl": "https://madie.cms.gov/Condition/669d0c92-052b-4696-892d-f45faedfa3f3",
    "resource": {
      "resourceType": "Condition",
      "id": "669d0c92-052b-4696-892d-f45faedfa3f3",
      "meta": {
        "profile": [ "http://hl7.org/fhir/us/qicore/StructureDefinition/qicore-condition-encounter-diagnosis" ]
      },
      "clinicalStatus": {
        "coding": [ {
          "system": "http://terminology.hl7.org/CodeSystem/condition-clinical",
          "code": "active"
        } ]
      },
      "verificationStatus": {
        "coding": [ {
          "system": "http://terminology.hl7.org/CodeSystem/condition-ver-status",
          "code": "confirmed"
        } ]
      },
      "category": [ {
        "coding": [ {
          "system": "http://terminology.hl7.org/CodeSystem/condition-category",
          "code": "encounter-diagnosis",
          "display": "Encounter Diagnosis"
        } ]
      } ],
      "code": {
        "coding": [ {
          "system": "http://snomed.info/sct",
          "version": "2020-09",
          "code": "111297002",
          "display": "Nonparalytic stroke (disorder)",
          "userSelected": true
        } ]
      },
      "subject": {
        "reference": "Patient/f0289acb-3172-4690-8b6a-dbd4d4913db5"
      },
      "encounter": {
        "reference": "Encounter/152e7b65-3288-42d3-aff5-5736c425961b"
      },
      "recordedDate": "2026-08-13T08:00:00.000+00:00"
    },
    "request": {
      "method": "PUT",
      "url": "Condition/669d0c92-052b-4696-892d-f45faedfa3f3"
    }
  }, {
    "fullUrl": "https://madie.cms.gov/claim/5ca62962b8484628b8de1ec5",
    "resource": {
      "resourceType": "Claim",
      "id": "5ca62962b8484628b8de1ec5",
      "meta": {
        "profile": [ "http://hl7.org/fhir/us/qicore/StructureDefinition/qicore-claim" ]
      },
      "status": "active",
      "type": {
        "coding": [ {
          "system": "http://terminology.hl7.org/CodeSystem/claim-type",
          "code": "institutional"
        } ]
      },
      "use": "claim",
      "patient": {
        "reference": "Patient/f0289acb-3172-4690-8b6a-dbd4d4913db5"
      },
      "created": "2026-12-01",
      "provider": {
        "reference": "Practitioner/practitioner-123456"
      },
      "priority": {
        "coding": [ {
          "system": "http://terminology.hl7.org/CodeSystem/processpriority",
          "code": "normal"
        } ]
      },
      "diagnosis": [ {
        "sequence": 1,
        "diagnosisCodeableConcept": {
          "coding": [ {
            "system": "http://hl7.org/fhir/sid/icd-10-cm",
            "code": "I63.00"
          } ]
        },
        "type": [ {
          "coding": [ {
            "system": "http://terminology.hl7.org/CodeSystem/ex-diagnosistype",
            "code": "principal"
          } ]
        } ]
      } ],
      "insurance": [ {
        "sequence": 1,
        "focal": true,
        "coverage": {
          "reference": "Coverage/5fa041661c76ba66d9959367"
        }
      } ],
      "item": [ {
        "sequence": 1,
        "diagnosisSequence": [ 1 ],
        "productOrService": {
          "coding": [ {
            "system": "http://terminology.hl7.org/CodeSystem/ex-USCLS",
            "code": "99555"
          } ]
        },
        "encounter": [ {
          "reference": "Encounter/152e7b65-3288-42d3-aff5-5736c425961b"
        } ]
      } ]
    },
    "request": {
      "method": "PUT",
      "url": "Claim/5ca62962b8484628b8de1ec5"
    }
  }, {
    "fullUrl": "https://madie.cms.gov/Organization/3e42671d-55fb-4874-b365-61623c3b7123",
    "resource": {
      "resourceType": "Organization",
      "id": "3e42671d-55fb-4874-b365-61623c3b7123",
      "meta": {
        "profile": [ "http://hl7.org/fhir/us/qicore/StructureDefinition/qicore-organization" ]
      },
      "identifier": [ {
        "use": "temp",
        "system": "urn:oid:2.16.840.1.113883.4.4",
        "value": "21-3259825"
      } ],
      "active": true,
      "type": [ {
        "coding": [ {
          "system": "http://terminology.hl7.org/CodeSystem/organization-type",
          "code": "pay",
          "display": "Payer"
        } ]
      } ],
      "name": "Blue Cross Blue Shield of Texas",
      "telecom": [ {
        "system": "phone",
        "value": "(+1) 972-766-6900"
      } ],
      "address": [ {
        "use": "billing",
        "type": "postal",
        "line": [ "P.O. Box 660044" ],
        "city": "Dallas",
        "state": "TX",
        "postalCode": "75266-0044",
        "country": "USA"
      } ]
    },
    "request": {
      "method": "PUT",
      "url": "Organization/3e42671d-55fb-4874-b365-61623c3b7123"
    }
  }, {
    "fullUrl": "https://madie.cms.gov/MeasureReport/bbad9910-5085-463e-8627-c159601e3652",
    "resource": {
      "resourceType": "MeasureReport",
      "id": "bbad9910-5085-463e-8627-c159601e3652",
      "meta": {
        "profile": [ "http://hl7.org/fhir/us/cqfmeasures/StructureDefinition/test-case-cqfm" ]
      },
      "contained": [ {
        "resourceType": "Parameters",
        "id": "aa2d202c-c5e0-48b3-b4e9-5ff688643a89-parameters",
        "parameter": [ {
          "name": "subject",
          "valueString": "f0289acb-3172-4690-8b6a-dbd4d4913db5"
        } ]
      } ],
      "extension": [ {
        "url": "http://hl7.org/fhir/StructureDefinition/cqf-inputParameters",
        "valueReference": {
          "reference": "#aa2d202c-c5e0-48b3-b4e9-5ff688643a89-parameters"
        }
      }, {
        "url": "http://hl7.org/fhir/us/cqfmeasures/StructureDefinition/cqfm-testCaseDescription",
        "valueMarkdown": "LOS <2 days, Patient receives antithrombotic in = 1 day after IP encounter starts. without an Ed visit\n"
      } ],
      "modifierExtension": [ {
        "url": "http://hl7.org/fhir/us/cqfmeasures/StructureDefinition/cqfm-isTestCase",
        "valueBoolean": true
      } ],
      "status": "complete",
      "type": "individual",
      "measure": "https://madie.cms.gov/Measure/CMS72FHIRSTKAntithromboticDay2",
      "period": {
        "start": "2026-01-01",
        "end": "2026-12-31"
      },
      "group": [ {
        "id": "Group_1",
        "population": [ {
          "id": "InitialPopulation_1",
          "code": {
            "coding": [ {
              "system": "http://terminology.hl7.org/CodeSystem/measure-population",
              "code": "initial-population",
              "display": "Initial Population"
            } ]
          },
          "count": 1
        }, {
          "id": "Denominator_1",
          "code": {
            "coding": [ {
              "system": "http://terminology.hl7.org/CodeSystem/measure-population",
              "code": "denominator",
              "display": "Denominator"
            } ]
          },
          "count": 1
        }, {
          "id": "DenominatorExclusion_1",
          "code": {
            "coding": [ {
              "system": "http://terminology.hl7.org/CodeSystem/measure-population",
              "code": "denominator-exclusion",
              "display": "Denominator Exclusion"
            } ]
          },
          "count": 1
        }, {
          "id": "Numerator_1",
          "code": {
            "coding": [ {
              "system": "http://terminology.hl7.org/CodeSystem/measure-population",
              "code": "numerator",
              "display": "Numerator"
            } ]
          },
          "count": 0
        }, {
          "id": "DenominatorException_1",
          "code": {
            "coding": [ {
              "system": "http://terminology.hl7.org/CodeSystem/measure-population",
              "code": "denominator-exception",
              "display": "Denominator Exception"
            } ]
          },
          "count": 0
        } ],
        "measureScore": {
          "value": 0.0
        }
      } ],
      "evaluatedResource": [ {
        "reference": "Patient/f0289acb-3172-4690-8b6a-dbd4d4913db5"
      }, {
        "reference": "Encounter/152e7b65-3288-42d3-aff5-5736c425961b"
      }, {
        "reference": "MedicationAdministration/dce7b8a6-f7c5-4d09-9152-d7329b30fe82"
      }, {
        "reference": "Coverage/11c7bf5a-ddc8-482e-a2f6-351d69693d77"
      }, {
        "reference": "Condition/669d0c92-052b-4696-892d-f45faedfa3f3"
      }, {
        "reference": "Claim/5ca62962b8484628b8de1ec5"
      }, {
        "reference": "Organization/3e42671d-55fb-4874-b365-61623c3b7123"
      } ]
    },
    "request": {
      "method": "PUT",
      "url": "MeasureReport/bbad9910-5085-463e-8627-c159601e3652"
    }
  } ]
}