{
  "resourceType": "Bundle",
  "id": "649989bdcea95c34d9e57764",
  "type": "collection",
  "entry": [ {
    "fullUrl": "https://madie.cms.gov/Patient/763778d4-705a-4659-837a-914827625a39",
    "resource": {
      "resourceType": "Patient",
      "id": "763778d4-705a-4659-837a-914827625a39",
      "meta": {
        "profile": [ "http://hl7.org/fhir/us/qicore/StructureDefinition/qicore-patient" ]
      },
      "extension": [ {
        "url": "http://hl7.org/fhir/us/core/StructureDefinition/us-core-race",
        "extension": [ {
          "url": "ombCategory",
          "valueCoding": {
            "system": "urn:oid:2.16.840.1.113883.6.238",
            "code": "2076-8",
            "display": "Native Hawaiian or Other Pacific Islander",
            "userSelected": true
          }
        }, {
          "url": "text",
          "valueString": "Native Hawaiian or Other Pacific Islander"
        } ]
      }, {
        "url": "http://hl7.org/fhir/us/core/StructureDefinition/us-core-ethnicity",
        "extension": [ {
          "url": "ombCategory",
          "valueCoding": {
            "system": "urn:oid:2.16.840.1.113883.6.238",
            "code": "2186-5",
            "display": "Not Hispanic or Latino",
            "userSelected": true
          }
        }, {
          "url": "text",
          "valueString": "Not Hispanic or Latino"
        } ]
      } ],
      "identifier": [ {
        "type": {
          "coding": [ {
            "system": "http://terminology.hl7.org/CodeSystem/v2-0203",
            "code": "MR"
          } ]
        },
        "system": "https://bonnie-fhir.healthit.gov/",
        "value": "649989bdcea95c34d9e57764"
      } ],
      "name": [ {
        "family": "NumFail",
        "given": [ "TestOnJan1ofMPResult201" ]
      } ],
      "gender": "male",
      "birthDate": "1987-05-25"
    }
  }, {
    "fullUrl": "https://madie.cms.gov/Condition/33ad647e-4ea1-4286-9616-55f5f5b79b28",
    "resource": {
      "resourceType": "Condition",
      "id": "33ad647e-4ea1-4286-9616-55f5f5b79b28",
      "meta": {
        "profile": [ "http://hl7.org/fhir/us/qicore/StructureDefinition/qicore-condition-problems-health-concerns" ]
      },
      "clinicalStatus": {
        "coding": [ {
          "system": "http://terminology.hl7.org/CodeSystem/condition-clinical",
          "code": "active",
          "display": "active",
          "userSelected": true
        } ]
      },
      "category": [ {
        "coding": [ {
          "system": "http://terminology.hl7.org/CodeSystem/condition-category",
          "code": "problem-list-item",
          "display": "Problem List Item"
        } ]
      } ],
      "code": {
        "coding": [ {
          "system": "http://hl7.org/fhir/sid/icd-9-cm",
          "version": "2013",
          "code": "042",
          "display": "Human immunodeficiency virus [HIV] disease",
          "userSelected": true
        }, {
          "system": "http://snomed.info/sct",
          "version": "http://snomed.info/sct/731000124108/version/20250301",
          "code": "165816005",
          "userSelected": true
        } ]
      },
      "subject": {
        "reference": "Patient/763778d4-705a-4659-837a-914827625a39"
      },
      "onsetDateTime": "2020-12-02T12:00:00.000+00:00",
      "recordedDate": "2020-12-02T12:00:00.000+00:00"
    }
  }, {
    "fullUrl": "https://madie.cms.gov/Encounter/b81defa3-ff45-43ae-91a6-5d59358a9ca0",
    "resource": {
      "resourceType": "Encounter",
      "id": "b81defa3-ff45-43ae-91a6-5d59358a9ca0",
      "meta": {
        "profile": [ "http://hl7.org/fhir/us/qicore/StructureDefinition/qicore-encounter" ]
      },
      "status": "finished",
      "class": {
        "system": "http://terminology.hl7.org/CodeSystem/v3-ActCode",
        "code": "AMB",
        "display": "ambulatory"
      },
      "type": [ {
        "coding": [ {
          "system": "http://www.ama-assn.org/go/cpt",
          "code": "99386",
          "userSelected": true
        } ]
      } ],
      "subject": {
        "reference": "Patient/763778d4-705a-4659-837a-914827625a39"
      },
      "period": {
        "start": "2026-08-27T15:02:00.000+00:00",
        "end": "2026-08-27T15:55:00.000+00:00"
      }
    }
  }, {
    "fullUrl": "https://madie.cms.gov/Observation/8049cf84-d8f6-441a-a6f4-d7b8c73afbdd",
    "resource": {
      "resourceType": "Observation",
      "id": "8049cf84-d8f6-441a-a6f4-d7b8c73afbdd",
      "meta": {
        "profile": [ "http://hl7.org/fhir/us/qicore/StructureDefinition/qicore-observation-lab" ]
      },
      "status": "final",
      "category": [ {
        "coding": [ {
          "system": "http://terminology.hl7.org/CodeSystem/observation-category",
          "code": "laboratory",
          "display": "Laboratory"
        } ]
      }, {
        "coding": [ {
          "system": "http://terminology.hl7.org/CodeSystem/observation-category",
          "code": "survey"
        } ]
      } ],
      "code": {
        "coding": [ {
          "system": "http://loinc.org",
          "version": "2.73",
          "code": "10351-5",
          "display": "HIV 1 RNA [Units/volume] (viral load) in Serum or Plasma by Probe with amplification",
          "userSelected": true
        } ]
      },
      "subject": {
        "reference": "Patient/763778d4-705a-4659-837a-914827625a39"
      },
      "effectiveDateTime": "2026-01-01T09:02:00.000+00:00",
      "issued": "2026-01-01T09:02:00.000+00:00",
      "valueQuantity": {
        "value": 201,
        "unit": "{copies}/mL"
      }
    }
  }, {
    "fullUrl": "https://madie.cms.gov/Coverage/1e808d29-3976-4105-bfb3-569d8a6a908d",
    "resource": {
      "resourceType": "Coverage",
      "id": "1e808d29-3976-4105-bfb3-569d8a6a908d",
      "meta": {
        "profile": [ "http://hl7.org/fhir/us/qicore/StructureDefinition/qicore-coverage" ]
      },
      "status": "active",
      "subscriberId": "123456",
      "beneficiary": {
        "reference": "Patient/763778d4-705a-4659-837a-914827625a39"
      },
      "relationship": {
        "coding": [ {
          "system": "http://terminology.hl7.org/CodeSystem/subscriber-relationship",
          "code": "self",
          "display": "Self"
        } ]
      },
      "payor": [ {
        "reference": "Organization/1e467e62-4976-452c-ace0-61986067d2f8"
      } ]
    }
  }, {
    "fullUrl": "https://madie.cms.gov/Organization/1e467e62-4976-452c-ace0-61986067d2f8",
    "resource": {
      "resourceType": "Organization",
      "id": "1e467e62-4976-452c-ace0-61986067d2f8",
      "meta": {
        "profile": [ "http://hl7.org/fhir/us/qicore/StructureDefinition/qicore-organization" ]
      },
      "identifier": [ {
        "use": "temp",
        "system": "urn:oid:2.16.840.1.113883.4.4",
        "value": "21-3259825"
      } ],
      "active": true,
      "type": [ {
        "coding": [ {
          "system": "http://terminology.hl7.org/CodeSystem/organization-type",
          "code": "pay",
          "display": "Payer"
        } ]
      } ],
      "name": "Blue Cross Blue Shield of Texas",
      "telecom": [ {
        "system": "phone",
        "value": "(+1) 972-766-6900"
      } ],
      "address": [ {
        "use": "billing",
        "type": "postal",
        "line": [ "P.O. Box 660044" ],
        "city": "Dallas",
        "state": "TX",
        "postalCode": "75266-0044",
        "country": "USA"
      } ]
    }
  }, {
    "fullUrl": "https://madie.cms.gov/Practitioner/1a7e1187-1a19-4b14-a28c-d0bcd49a5e71",
    "resource": {
      "resourceType": "Practitioner",
      "id": "1a7e1187-1a19-4b14-a28c-d0bcd49a5e71",
      "meta": {
        "profile": [ "http://hl7.org/fhir/us/qicore/StructureDefinition/qicore-practitioner" ]
      },
      "identifier": [ {
        "system": "http://hl7.org/fhir/sid/us-npi",
        "value": "1689411712"
      } ],
      "name": [ {
        "family": "Evil",
        "prefix": [ "Dr" ]
      } ]
    }
  }, {
    "fullUrl": "https://madie.cms.gov/MeasureReport/b86e487a-5013-4f74-9d70-3419a9393758",
    "resource": {
      "resourceType": "MeasureReport",
      "id": "b86e487a-5013-4f74-9d70-3419a9393758",
      "meta": {
        "profile": [ "http://hl7.org/fhir/us/cqfmeasures/StructureDefinition/test-case-cqfm" ]
      },
      "contained": [ {
        "resourceType": "Parameters",
        "id": "bea7c458-998b-4985-83b2-a03d440d3be8-parameters",
        "parameter": [ {
          "name": "subject",
          "valueString": "763778d4-705a-4659-837a-914827625a39"
        } ]
      } ],
      "extension": [ {
        "url": "http://hl7.org/fhir/StructureDefinition/cqf-inputParameters",
        "valueReference": {
          "reference": "#bea7c458-998b-4985-83b2-a03d440d3be8-parameters"
        }
      }, {
        "url": "http://hl7.org/fhir/us/cqfmeasures/StructureDefinition/cqfm-testCaseDescription",
        "valueMarkdown": "Patient with a diagnosis of HIV years before start of the MP and a qualifying encounter on inside 240 day edge of the MP AND a viral load test on Jan 1 of  the MP with a result of 201"
      } ],
      "modifierExtension": [ {
        "url": "http://hl7.org/fhir/us/cqfmeasures/StructureDefinition/cqfm-isTestCase",
        "valueBoolean": true
      } ],
      "status": "complete",
      "type": "individual",
      "measure": "https://madie.cms.gov/Measure/CMS314FHIRHIVViralSuppression",
      "period": {
        "start": "2026-01-01",
        "end": "2026-12-31"
      },
      "group": [ {
        "id": "Group_1",
        "population": [ {
          "id": "InitialPopulation_1",
          "code": {
            "coding": [ {
              "system": "http://terminology.hl7.org/CodeSystem/measure-population",
              "code": "initial-population",
              "display": "Initial Population"
            } ]
          },
          "count": 1
        }, {
          "id": "Denominator_1",
          "code": {
            "coding": [ {
              "system": "http://terminology.hl7.org/CodeSystem/measure-population",
              "code": "denominator",
              "display": "Denominator"
            } ]
          },
          "count": 1
        }, {
          "id": "Numerator_1",
          "code": {
            "coding": [ {
              "system": "http://terminology.hl7.org/CodeSystem/measure-population",
              "code": "numerator",
              "display": "Numerator"
            } ]
          },
          "count": 0
        } ],
        "measureScore": {
          "value": 1.0
        }
      } ],
      "evaluatedResource": [ {
        "reference": "Patient/763778d4-705a-4659-837a-914827625a39"
      }, {
        "reference": "Condition/33ad647e-4ea1-4286-9616-55f5f5b79b28"
      }, {
        "reference": "Encounter/b81defa3-ff45-43ae-91a6-5d59358a9ca0"
      }, {
        "reference": "Observation/8049cf84-d8f6-441a-a6f4-d7b8c73afbdd"
      }, {
        "reference": "Coverage/1e808d29-3976-4105-bfb3-569d8a6a908d"
      }, {
        "reference": "Organization/1e467e62-4976-452c-ace0-61986067d2f8"
      }, {
        "reference": "Practitioner/1a7e1187-1a19-4b14-a28c-d0bcd49a5e71"
      } ]
    }
  } ]
}