{
  "resourceType": "Bundle",
  "id": "6353045e224f3b053967124c",
  "type": "transaction",
  "entry": [ {
    "fullUrl": "https://madie.cms.gov/Patient/2a0cc990-ccf5-466f-b8e2-df24a6f2cb98",
    "resource": {
      "resourceType": "Patient",
      "id": "2a0cc990-ccf5-466f-b8e2-df24a6f2cb98",
      "meta": {
        "profile": [ "http://hl7.org/fhir/us/qicore/StructureDefinition/qicore-patient" ]
      },
      "extension": [ {
        "url": "http://hl7.org/fhir/us/core/StructureDefinition/us-core-race",
        "extension": [ {
          "url": "ombCategory",
          "valueCoding": {
            "system": "urn:oid:2.16.840.1.113883.6.238",
            "code": "1002-5",
            "display": "American Indian or Alaska Native",
            "userSelected": true
          }
        }, {
          "url": "text",
          "valueString": "American Indian or Alaska Native"
        } ]
      }, {
        "url": "http://hl7.org/fhir/us/core/StructureDefinition/us-core-ethnicity",
        "extension": [ {
          "url": "ombCategory",
          "valueCoding": {
            "system": "urn:oid:2.16.840.1.113883.6.238",
            "code": "2135-2",
            "display": "Hispanic or Latino",
            "userSelected": true
          }
        }, {
          "url": "text",
          "valueString": "Hispanic or Latino"
        } ]
      } ],
      "identifier": [ {
        "type": {
          "coding": [ {
            "system": "http://terminology.hl7.org/CodeSystem/v2-0203",
            "code": "MR"
          } ]
        },
        "system": "https://bonnie-fhir.healthit.gov/",
        "value": "6353045e224f3b053967124c"
      } ],
      "name": [ {
        "family": "DENOMFail",
        "given": [ "LastAssPrfEDDRelvTm1MinAftLastTmDELRsltDtTime" ]
      } ],
      "gender": "female",
      "birthDate": "2005-02-01"
    },
    "request": {
      "method": "PUT",
      "url": "Patient/2a0cc990-ccf5-466f-b8e2-df24a6f2cb98"
    }
  }, {
    "fullUrl": "https://madie.cms.gov/Encounter/f7216d32-7a40-4fc3-a01d-1f75e17fa205",
    "resource": {
      "resourceType": "Encounter",
      "id": "f7216d32-7a40-4fc3-a01d-1f75e17fa205",
      "meta": {
        "profile": [ "http://hl7.org/fhir/us/qicore/StructureDefinition/qicore-encounter" ]
      },
      "status": "finished",
      "class": {
        "system": "http://terminology.hl7.org/CodeSystem/v3-ActCode",
        "code": "IMP",
        "display": "inpatient encounter"
      },
      "type": [ {
        "coding": [ {
          "system": "http://snomed.info/sct",
          "version": "2022-09",
          "code": "183452005",
          "display": "Emergency hospital admission (procedure)",
          "userSelected": true
        } ]
      } ],
      "subject": {
        "reference": "Patient/2a0cc990-ccf5-466f-b8e2-df24a6f2cb98"
      },
      "period": {
        "start": "2026-02-01T08:00:00.000+00:00",
        "end": "2026-02-05T08:15:00.000+00:00"
      }
    },
    "request": {
      "method": "PUT",
      "url": "Encounter/f7216d32-7a40-4fc3-a01d-1f75e17fa205"
    }
  }, {
    "fullUrl": "https://madie.cms.gov/Procedure/2b65a02b-c1f1-456d-946f-b22b79405398",
    "resource": {
      "resourceType": "Procedure",
      "id": "2b65a02b-c1f1-456d-946f-b22b79405398",
      "meta": {
        "profile": [ "http://hl7.org/fhir/us/qicore/StructureDefinition/qicore-procedure" ]
      },
      "extension": [ {
        "url": "http://hl7.org/fhir/us/qicore/StructureDefinition/qicore-recorded",
        "valueDateTime": "2014-04-05T13:35:00.000+00:00"
      } ],
      "status": "completed",
      "code": {
        "coding": [ {
          "system": "http://snomed.info/sct",
          "version": "2022-09",
          "code": "10745001",
          "display": "Delivery of transverse presentation (procedure)",
          "userSelected": true
        } ]
      },
      "subject": {
        "reference": "Patient/2a0cc990-ccf5-466f-b8e2-df24a6f2cb98"
      },
      "performedPeriod": {
        "start": "2026-02-01T08:00:00.000+00:00",
        "end": "2026-02-05T08:15:00.000+00:00"
      }
    },
    "request": {
      "method": "PUT",
      "url": "Procedure/2b65a02b-c1f1-456d-946f-b22b79405398"
    }
  }, {
    "fullUrl": "https://madie.cms.gov/Observation/cae6384b-31ac-4a6b-aead-e859cf82f888",
    "resource": {
      "resourceType": "Observation",
      "id": "cae6384b-31ac-4a6b-aead-e859cf82f888",
      "meta": {
        "profile": [ "http://hl7.org/fhir/us/qicore/StructureDefinition/qicore-simple-observation" ]
      },
      "status": "final",
      "category": [ {
        "coding": [ {
          "system": "http://terminology.hl7.org/CodeSystem/observation-category",
          "code": "exam",
          "display": "exam",
          "userSelected": true
        } ]
      } ],
      "code": {
        "coding": [ {
          "system": "http://loinc.org",
          "code": "93857-1",
          "display": "Date and time of obstetric delivery",
          "userSelected": true
        } ]
      },
      "subject": {
        "reference": "Patient/2a0cc990-ccf5-466f-b8e2-df24a6f2cb98"
      },
      "effectiveDateTime": "2026-02-01T08:00:00.000+00:00",
      "performer": [ {
        "reference": "Organization/example1",
        "display": "Hendricks Country Hospital"
      } ],
      "valueDateTime": "2026-02-01T08:00:00.000+00:00"
    },
    "request": {
      "method": "PUT",
      "url": "Observation/cae6384b-31ac-4a6b-aead-e859cf82f888"
    }
  }, {
    "fullUrl": "https://madie.cms.gov/Observation/50f66cfd-aa0f-45c5-b2e5-f71e5077180d",
    "resource": {
      "resourceType": "Observation",
      "id": "50f66cfd-aa0f-45c5-b2e5-f71e5077180d",
      "meta": {
        "profile": [ "http://hl7.org/fhir/us/qicore/StructureDefinition/qicore-simple-observation" ]
      },
      "status": "final",
      "category": [ {
        "coding": [ {
          "system": "http://terminology.hl7.org/CodeSystem/observation-category",
          "code": "exam",
          "display": "exam",
          "userSelected": true
        } ]
      } ],
      "code": {
        "coding": [ {
          "system": "http://loinc.org",
          "code": "11778-8",
          "display": "Delivery date Estimated",
          "userSelected": true
        } ]
      },
      "subject": {
        "reference": "Patient/2a0cc990-ccf5-466f-b8e2-df24a6f2cb98"
      },
      "effectiveDateTime": "2026-02-01T08:01:00.000+00:00",
      "performer": [ {
        "reference": "Organization/example1",
        "display": "Hendricks Country Hospital"
      } ],
      "valueDateTime": "2026-02-01T08:01:00.000+00:00"
    },
    "request": {
      "method": "PUT",
      "url": "Observation/50f66cfd-aa0f-45c5-b2e5-f71e5077180d"
    }
  }, {
    "fullUrl": "https://madie.cms.gov/Coverage/b4623237-95ee-4990-87b2-848affd7d2eb",
    "resource": {
      "resourceType": "Coverage",
      "id": "b4623237-95ee-4990-87b2-848affd7d2eb",
      "meta": {
        "profile": [ "http://hl7.org/fhir/us/qicore/StructureDefinition/qicore-coverage" ]
      },
      "status": "active",
      "subscriberId": "523435",
      "beneficiary": {
        "reference": "Patient/2a0cc990-ccf5-466f-b8e2-df24a6f2cb98"
      },
      "relationship": {
        "coding": [ {
          "system": "http://terminology.hl7.org/CodeSystem/subscriber-relationship",
          "code": "self"
        } ]
      },
      "payor": [ {
        "reference": "Organization/62628f01-dd06-432d-a026-eafaf00e0eba"
      } ]
    },
    "request": {
      "method": "PUT",
      "url": "Coverage/b4623237-95ee-4990-87b2-848affd7d2eb"
    }
  }, {
    "fullUrl": "https://madie.cms.gov/Organization/62628f01-dd06-432d-a026-eafaf00e0eba",
    "resource": {
      "resourceType": "Organization",
      "id": "62628f01-dd06-432d-a026-eafaf00e0eba",
      "meta": {
        "profile": [ "http://hl7.org/fhir/us/qicore/StructureDefinition/qicore-organization" ]
      },
      "identifier": [ {
        "use": "temp",
        "system": "urn:oid:2.16.840.1.113883.4.4",
        "value": "21-3259825"
      } ],
      "active": true,
      "type": [ {
        "coding": [ {
          "system": "http://terminology.hl7.org/CodeSystem/organization-type",
          "code": "pay",
          "display": "Payer"
        } ]
      } ],
      "name": "Blue Cross Blue Shield of Texas",
      "telecom": [ {
        "system": "phone",
        "value": "(+1) 972-766-6900"
      } ],
      "address": [ {
        "use": "billing",
        "type": "postal",
        "line": [ "P.O. Box 660044" ],
        "city": "Dallas",
        "state": "TX",
        "postalCode": "75266-0044",
        "country": "USA"
      } ]
    },
    "request": {
      "method": "PUT",
      "url": "Organization/62628f01-dd06-432d-a026-eafaf00e0eba"
    }
  }, {
    "fullUrl": "https://madie.cms.gov/Practitioner/7077c885-f983-4471-8a17-0fb0f76649e1",
    "resource": {
      "resourceType": "Practitioner",
      "id": "7077c885-f983-4471-8a17-0fb0f76649e1",
      "meta": {
        "profile": [ "http://hl7.org/fhir/us/qicore/StructureDefinition/qicore-practitioner" ]
      },
      "identifier": [ {
        "system": "http://hl7.org/fhir/sid/us-npi",
        "value": "1234567890"
      } ],
      "name": [ {
        "family": "Evil",
        "prefix": [ "Dr" ]
      } ]
    },
    "request": {
      "method": "PUT",
      "url": "Practitioner/7077c885-f983-4471-8a17-0fb0f76649e1"
    }
  }, {
    "fullUrl": "https://madie.cms.gov/MeasureReport/997d0b4f-f429-4779-b002-1a66bd9c65ac",
    "resource": {
      "resourceType": "MeasureReport",
      "id": "997d0b4f-f429-4779-b002-1a66bd9c65ac",
      "meta": {
        "profile": [ "http://hl7.org/fhir/us/cqfmeasures/StructureDefinition/test-case-cqfm" ]
      },
      "contained": [ {
        "resourceType": "Parameters",
        "id": "10e69870-67c9-4ccf-ac24-08d814e854fd-parameters",
        "parameter": [ {
          "name": "subject",
          "valueString": "2a0cc990-ccf5-466f-b8e2-df24a6f2cb98"
        } ]
      } ],
      "extension": [ {
        "url": "http://hl7.org/fhir/StructureDefinition/cqf-inputParameters",
        "valueReference": {
          "reference": "#10e69870-67c9-4ccf-ac24-08d814e854fd-parameters"
        }
      }, {
        "url": "http://hl7.org/fhir/us/cqfmeasures/StructureDefinition/cqfm-testCaseDescription",
        "valueMarkdown": "Last assessment Performed, Estimated Delivery Date, Relevant time equal to  Delivery Result Date/Time plus 1 minute"
      } ],
      "modifierExtension": [ {
        "url": "http://hl7.org/fhir/us/cqfmeasures/StructureDefinition/cqfm-isTestCase",
        "valueBoolean": true
      } ],
      "status": "complete",
      "type": "individual",
      "measure": "https://madie.cms.gov/Measure/CMS1028FHIRPCSevereOBComps",
      "period": {
        "start": "2026-01-01",
        "end": "2026-12-31"
      },
      "group": [ {
        "id": "Group_1",
        "population": [ {
          "id": "InitialPopulation_1",
          "code": {
            "coding": [ {
              "system": "http://terminology.hl7.org/CodeSystem/measure-population",
              "code": "initial-population",
              "display": "Initial Population"
            } ]
          },
          "count": 1
        }, {
          "id": "Denominator_1",
          "code": {
            "coding": [ {
              "system": "http://terminology.hl7.org/CodeSystem/measure-population",
              "code": "denominator",
              "display": "Denominator"
            } ]
          },
          "count": 0
        }, {
          "id": "Numerator_1",
          "code": {
            "coding": [ {
              "system": "http://terminology.hl7.org/CodeSystem/measure-population",
              "code": "numerator",
              "display": "Numerator"
            } ]
          },
          "count": 0
        }, {
          "id": "NumeratorExclusion_1",
          "code": {
            "coding": [ {
              "system": "http://terminology.hl7.org/CodeSystem/measure-population",
              "code": "numerator-exclusion",
              "display": "Numerator Exclusion"
            } ]
          },
          "count": 0
        } ],
        "measureScore": {
          "value": 0.0
        }
      }, {
        "id": "Group_2",
        "population": [ {
          "id": "InitialPopulation_2",
          "code": {
            "coding": [ {
              "system": "http://terminology.hl7.org/CodeSystem/measure-population",
              "code": "initial-population",
              "display": "Initial Population"
            } ]
          },
          "count": 1
        }, {
          "id": "Denominator_2",
          "code": {
            "coding": [ {
              "system": "http://terminology.hl7.org/CodeSystem/measure-population",
              "code": "denominator",
              "display": "Denominator"
            } ]
          },
          "count": 0
        }, {
          "id": "Numerator_2",
          "code": {
            "coding": [ {
              "system": "http://terminology.hl7.org/CodeSystem/measure-population",
              "code": "numerator",
              "display": "Numerator"
            } ]
          },
          "count": 0
        }, {
          "id": "NumeratorExclusion_2",
          "code": {
            "coding": [ {
              "system": "http://terminology.hl7.org/CodeSystem/measure-population",
              "code": "numerator-exclusion",
              "display": "Numerator Exclusion"
            } ]
          },
          "count": 0
        } ],
        "measureScore": {
          "value": 0.0
        }
      } ],
      "evaluatedResource": [ {
        "reference": "Patient/2a0cc990-ccf5-466f-b8e2-df24a6f2cb98"
      }, {
        "reference": "Encounter/f7216d32-7a40-4fc3-a01d-1f75e17fa205"
      }, {
        "reference": "Procedure/2b65a02b-c1f1-456d-946f-b22b79405398"
      }, {
        "reference": "Observation/cae6384b-31ac-4a6b-aead-e859cf82f888"
      }, {
        "reference": "Observation/50f66cfd-aa0f-45c5-b2e5-f71e5077180d"
      }, {
        "reference": "Coverage/b4623237-95ee-4990-87b2-848affd7d2eb"
      }, {
        "reference": "Organization/62628f01-dd06-432d-a026-eafaf00e0eba"
      }, {
        "reference": "Practitioner/7077c885-f983-4471-8a17-0fb0f76649e1"
      } ]
    },
    "request": {
      "method": "PUT",
      "url": "MeasureReport/997d0b4f-f429-4779-b002-1a66bd9c65ac"
    }
  } ]
}