{
  "resourceType": "Bundle",
  "id": "6495ae77e06f07b7e1707806",
  "type": "collection",
  "entry": [ {
    "fullUrl": "https://madie.cms.gov/Patient/920a15ae-3bc9-4e7b-9f0f-e1554b78157a",
    "resource": {
      "resourceType": "Patient",
      "id": "920a15ae-3bc9-4e7b-9f0f-e1554b78157a",
      "meta": {
        "profile": [ "http://hl7.org/fhir/us/qicore/StructureDefinition/qicore-patient" ]
      },
      "extension": [ {
        "url": "http://hl7.org/fhir/us/core/StructureDefinition/us-core-race",
        "extension": [ {
          "url": "ombCategory",
          "valueCoding": {
            "system": "urn:oid:2.16.840.1.113883.6.238",
            "code": "2106-3",
            "display": "White",
            "userSelected": true
          }
        }, {
          "url": "text",
          "valueString": "White"
        } ]
      }, {
        "url": "http://hl7.org/fhir/us/core/StructureDefinition/us-core-ethnicity",
        "extension": [ {
          "url": "ombCategory",
          "valueCoding": {
            "system": "urn:oid:2.16.840.1.113883.6.238",
            "code": "2135-2",
            "display": "Hispanic or Latino",
            "userSelected": true
          }
        }, {
          "url": "text",
          "valueString": "Hispanic or Latino"
        } ]
      } ],
      "identifier": [ {
        "type": {
          "coding": [ {
            "system": "http://terminology.hl7.org/CodeSystem/v2-0203",
            "code": "MR"
          } ]
        },
        "system": "https://bonnie-fhir.healthit.gov/",
        "value": "6495ae77e06f07b7e1707806"
      } ],
      "name": [ {
        "family": "IPFail",
        "given": [ "HIVDxonMarch31ofMP" ]
      } ],
      "gender": "female",
      "birthDate": "1991-02-09"
    }
  }, {
    "fullUrl": "https://madie.cms.gov/Condition/f37a8ba4-a2bd-4be7-878e-5f5718e5b2a3",
    "resource": {
      "resourceType": "Condition",
      "id": "f37a8ba4-a2bd-4be7-878e-5f5718e5b2a3",
      "meta": {
        "profile": [ "http://hl7.org/fhir/us/qicore/StructureDefinition/qicore-condition-problems-health-concerns" ]
      },
      "clinicalStatus": {
        "coding": [ {
          "system": "http://terminology.hl7.org/CodeSystem/condition-clinical",
          "code": "active",
          "display": "active",
          "userSelected": true
        } ]
      },
      "category": [ {
        "coding": [ {
          "system": "http://terminology.hl7.org/CodeSystem/condition-category",
          "code": "problem-list-item",
          "display": "Problem List Item"
        } ]
      } ],
      "code": {
        "coding": [ {
          "system": "http://hl7.org/fhir/sid/icd-10-cm",
          "code": "O98.73",
          "userSelected": true
        } ]
      },
      "subject": {
        "reference": "Patient/920a15ae-3bc9-4e7b-9f0f-e1554b78157a"
      },
      "onsetDateTime": "2026-04-01T11:00:00.000+00:00",
      "recordedDate": "2026-04-01T11:00:00.000+00:00"
    }
  }, {
    "fullUrl": "https://madie.cms.gov/Encounter/0675c498-6410-4030-a3e1-8a03829b537e",
    "resource": {
      "resourceType": "Encounter",
      "id": "0675c498-6410-4030-a3e1-8a03829b537e",
      "meta": {
        "profile": [ "http://hl7.org/fhir/us/qicore/StructureDefinition/qicore-encounter" ]
      },
      "status": "finished",
      "class": {
        "system": "http://terminology.hl7.org/CodeSystem/v3-ActCode",
        "code": "AMB",
        "display": "ambulatory"
      },
      "type": [ {
        "coding": [ {
          "system": "http://snomed.info/sct",
          "version": "2022-09",
          "code": "12843005",
          "display": "Subsequent hospital visit by physician (procedure)",
          "userSelected": true
        } ]
      } ],
      "subject": {
        "reference": "Patient/920a15ae-3bc9-4e7b-9f0f-e1554b78157a"
      },
      "period": {
        "start": "2026-03-07T15:00:00.000+00:00",
        "end": "2026-03-07T15:45:00.000+00:00"
      }
    }
  }, {
    "fullUrl": "https://madie.cms.gov/Coverage/3b7f9d6e-07ef-4e16-9bc6-36799e8fd449",
    "resource": {
      "resourceType": "Coverage",
      "id": "3b7f9d6e-07ef-4e16-9bc6-36799e8fd449",
      "meta": {
        "profile": [ "http://hl7.org/fhir/us/qicore/StructureDefinition/qicore-coverage" ]
      },
      "status": "active",
      "subscriberId": "123456",
      "beneficiary": {
        "reference": "Patient/920a15ae-3bc9-4e7b-9f0f-e1554b78157a"
      },
      "relationship": {
        "coding": [ {
          "system": "http://terminology.hl7.org/CodeSystem/subscriber-relationship",
          "code": "self",
          "display": "Self"
        } ]
      },
      "payor": [ {
        "reference": "Organization/6358512d-e011-4afe-abfb-1e81a9607954"
      } ]
    }
  }, {
    "fullUrl": "https://madie.cms.gov/Organization/6358512d-e011-4afe-abfb-1e81a9607954",
    "resource": {
      "resourceType": "Organization",
      "id": "6358512d-e011-4afe-abfb-1e81a9607954",
      "meta": {
        "profile": [ "http://hl7.org/fhir/us/qicore/StructureDefinition/qicore-organization" ]
      },
      "identifier": [ {
        "use": "temp",
        "system": "urn:oid:2.16.840.1.113883.4.4",
        "value": "21-3259825"
      } ],
      "active": true,
      "type": [ {
        "coding": [ {
          "system": "http://terminology.hl7.org/CodeSystem/organization-type",
          "code": "pay",
          "display": "Payer"
        } ]
      } ],
      "name": "Blue Cross Blue Shield of Texas",
      "telecom": [ {
        "system": "phone",
        "value": "(+1) 972-766-6900"
      } ],
      "address": [ {
        "use": "billing",
        "type": "postal",
        "line": [ "P.O. Box 660044" ],
        "city": "Dallas",
        "state": "TX",
        "postalCode": "75266-0044",
        "country": "USA"
      } ]
    }
  }, {
    "fullUrl": "https://madie.cms.gov/Practitioner/f3be90df-7459-479d-b7ec-a3d2422a9217",
    "resource": {
      "resourceType": "Practitioner",
      "id": "f3be90df-7459-479d-b7ec-a3d2422a9217",
      "meta": {
        "profile": [ "http://hl7.org/fhir/us/qicore/StructureDefinition/qicore-practitioner" ]
      },
      "identifier": [ {
        "system": "http://hl7.org/fhir/sid/us-npi",
        "value": "1689411712"
      } ],
      "name": [ {
        "family": "Evil",
        "prefix": [ "Dr" ]
      } ]
    }
  }, {
    "fullUrl": "https://madie.cms.gov/MeasureReport/73e018dc-70a7-4b32-97a2-c074d20b3385",
    "resource": {
      "resourceType": "MeasureReport",
      "id": "73e018dc-70a7-4b32-97a2-c074d20b3385",
      "meta": {
        "profile": [ "http://hl7.org/fhir/us/cqfmeasures/StructureDefinition/test-case-cqfm" ]
      },
      "contained": [ {
        "resourceType": "Parameters",
        "id": "1617614d-af73-480e-bad2-cba7517cfcf1-parameters",
        "parameter": [ {
          "name": "subject",
          "valueString": "920a15ae-3bc9-4e7b-9f0f-e1554b78157a"
        } ]
      } ],
      "extension": [ {
        "url": "http://hl7.org/fhir/StructureDefinition/cqf-inputParameters",
        "valueReference": {
          "reference": "#1617614d-af73-480e-bad2-cba7517cfcf1-parameters"
        }
      }, {
        "url": "http://hl7.org/fhir/us/cqfmeasures/StructureDefinition/cqfm-testCaseDescription",
        "valueMarkdown": "HIV diagnosis made on April 1 of MP (91 days) with a qualifying encounter during MP"
      } ],
      "modifierExtension": [ {
        "url": "http://hl7.org/fhir/us/cqfmeasures/StructureDefinition/cqfm-isTestCase",
        "valueBoolean": true
      } ],
      "status": "complete",
      "type": "individual",
      "measure": "https://madie.cms.gov/Measure/CMS314FHIRHIVViralSuppression",
      "period": {
        "start": "2026-01-01",
        "end": "2026-12-31"
      },
      "group": [ {
        "id": "Group_1",
        "population": [ {
          "id": "InitialPopulation_1",
          "code": {
            "coding": [ {
              "system": "http://terminology.hl7.org/CodeSystem/measure-population",
              "code": "initial-population",
              "display": "Initial Population"
            } ]
          },
          "count": 0
        }, {
          "id": "Denominator_1",
          "code": {
            "coding": [ {
              "system": "http://terminology.hl7.org/CodeSystem/measure-population",
              "code": "denominator",
              "display": "Denominator"
            } ]
          },
          "count": 0
        }, {
          "id": "Numerator_1",
          "code": {
            "coding": [ {
              "system": "http://terminology.hl7.org/CodeSystem/measure-population",
              "code": "numerator",
              "display": "Numerator"
            } ]
          },
          "count": 0
        } ],
        "measureScore": {
          "value": 1.0
        }
      } ],
      "evaluatedResource": [ {
        "reference": "Patient/920a15ae-3bc9-4e7b-9f0f-e1554b78157a"
      }, {
        "reference": "Condition/f37a8ba4-a2bd-4be7-878e-5f5718e5b2a3"
      }, {
        "reference": "Encounter/0675c498-6410-4030-a3e1-8a03829b537e"
      }, {
        "reference": "Coverage/3b7f9d6e-07ef-4e16-9bc6-36799e8fd449"
      }, {
        "reference": "Organization/6358512d-e011-4afe-abfb-1e81a9607954"
      }, {
        "reference": "Practitioner/f3be90df-7459-479d-b7ec-a3d2422a9217"
      } ]
    }
  } ]
}