{
  "resourceType": "Bundle",
  "id": "NUMER2and3PASS-SeizureDisorderCondEncDxEnds1YrB4MP",
  "type": "transaction",
  "entry": [ {
    "fullUrl": "https://madie.cms.gov/Patient/5326ef57-57d6-49b8-bdc5-b3179cdcb82d",
    "resource": {
      "resourceType": "Patient",
      "id": "5326ef57-57d6-49b8-bdc5-b3179cdcb82d",
      "meta": {
        "profile": [ "http://hl7.org/fhir/us/qicore/StructureDefinition/qicore-patient" ]
      },
      "extension": [ {
        "url": "http://hl7.org/fhir/us/core/StructureDefinition/us-core-race",
        "extension": [ {
          "url": "ombCategory",
          "valueCoding": {
            "system": "urn:oid:2.16.840.1.113883.6.238",
            "code": "2028-9",
            "display": "Asian",
            "userSelected": true
          }
        }, {
          "url": "text",
          "valueString": "Asian"
        } ]
      }, {
        "url": "http://hl7.org/fhir/us/core/StructureDefinition/us-core-ethnicity",
        "extension": [ {
          "url": "ombCategory",
          "valueCoding": {
            "system": "urn:oid:2.16.840.1.113883.6.238",
            "code": "2135-2",
            "display": "Hispanic or Latino",
            "userSelected": true
          }
        }, {
          "url": "text",
          "valueString": "Hispanic or Latino"
        } ]
      } ],
      "identifier": [ {
        "type": {
          "coding": [ {
            "system": "http://terminology.hl7.org/CodeSystem/v2-0203",
            "code": "MR"
          } ]
        },
        "system": "http://hospital.smarthealthit.org",
        "value": "999999995"
      } ],
      "name": [ {
        "family": "Bertha",
        "given": [ "Betty" ]
      } ],
      "gender": "female",
      "birthDate": "1961-01-01"
    },
    "request": {
      "method": "PUT",
      "url": "Patient/5326ef57-57d6-49b8-bdc5-b3179cdcb82d"
    }
  }, {
    "fullUrl": "https://madie.cms.gov/Encounter/8ba16d8b-4f3d-4470-bec5-258bce89ab8d",
    "resource": {
      "resourceType": "Encounter",
      "id": "8ba16d8b-4f3d-4470-bec5-258bce89ab8d",
      "meta": {
        "profile": [ "http://hl7.org/fhir/us/qicore/StructureDefinition/qicore-encounter" ]
      },
      "status": "finished",
      "class": {
        "system": "http://terminology.hl7.org/CodeSystem/v3-ActCode",
        "code": "AMB",
        "display": "ambulatory"
      },
      "type": [ {
        "coding": [ {
          "system": "http://snomed.info/sct",
          "code": "185317003",
          "display": "Telephone encounter (procedure)"
        } ]
      } ],
      "subject": {
        "reference": "Patient/5326ef57-57d6-49b8-bdc5-b3179cdcb82d"
      },
      "period": {
        "start": "2026-01-02T00:00:00.000+00:00",
        "end": "2026-01-02T01:15:00.000+00:00"
      }
    },
    "request": {
      "method": "PUT",
      "url": "Encounter/8ba16d8b-4f3d-4470-bec5-258bce89ab8d"
    }
  }, {
    "fullUrl": "https://madie.cms.gov/Condition/fc849135-aab3-4610-9b07-9df825f20da8",
    "resource": {
      "resourceType": "Condition",
      "id": "fc849135-aab3-4610-9b07-9df825f20da8",
      "meta": {
        "profile": [ "http://hl7.org/fhir/us/qicore/StructureDefinition/qicore-condition-encounter-diagnosis" ]
      },
      "clinicalStatus": {
        "coding": [ {
          "system": "http://terminology.hl7.org/CodeSystem/condition-clinical",
          "code": "resolved"
        } ]
      },
      "category": [ {
        "coding": [ {
          "system": "http://terminology.hl7.org/CodeSystem/condition-category",
          "code": "encounter-diagnosis",
          "display": "Encounter Diagnosis"
        } ]
      } ],
      "code": {
        "coding": [ {
          "system": "http://snomed.info/sct",
          "code": "1163527006",
          "display": "Epilepsy due to parasitic disease (disorder)"
        } ]
      },
      "subject": {
        "reference": "Patient/5326ef57-57d6-49b8-bdc5-b3179cdcb82d"
      },
      "onsetDateTime": "2024-01-01T00:00:00.000+00:00",
      "abatementDateTime": "2024-12-31T23:59:59.000+00:00"
    },
    "request": {
      "method": "PUT",
      "url": "Condition/fc849135-aab3-4610-9b07-9df825f20da8"
    }
  }, {
    "fullUrl": "https://madie.cms.gov/MedicationRequest/a13ae5ad-52f5-477d-8273-5dd37bd4ee92",
    "resource": {
      "resourceType": "MedicationRequest",
      "id": "a13ae5ad-52f5-477d-8273-5dd37bd4ee92",
      "meta": {
        "profile": [ "http://hl7.org/fhir/us/qicore/StructureDefinition/qicore-medicationrequest" ]
      },
      "status": "active",
      "intent": "order",
      "category": [ {
        "coding": [ {
          "system": "http://terminology.hl7.org/CodeSystem/medicationrequest-category",
          "code": "discharge",
          "display": "Discharge"
        } ]
      } ],
      "medicationCodeableConcept": {
        "coding": [ {
          "system": "http://www.nlm.nih.gov/research/umls/rxnorm",
          "code": "1366192",
          "display": "clobazam 2.5 MG/ML Oral Suspension",
          "userSelected": true
        } ]
      },
      "subject": {
        "reference": "Patient/5326ef57-57d6-49b8-bdc5-b3179cdcb82d"
      },
      "authoredOn": "2026-01-01T00:00:00.000+00:00",
      "requester": {
        "reference": "Practitioner/example"
      }
    },
    "request": {
      "method": "PUT",
      "url": "MedicationRequest/a13ae5ad-52f5-477d-8273-5dd37bd4ee92"
    }
  }, {
    "fullUrl": "https://madie.cms.gov/MedicationRequest/dfd36ab5-1498-48c6-9813-829fca51df59",
    "resource": {
      "resourceType": "MedicationRequest",
      "id": "dfd36ab5-1498-48c6-9813-829fca51df59",
      "meta": {
        "profile": [ "http://hl7.org/fhir/us/qicore/StructureDefinition/qicore-medicationrequest" ]
      },
      "status": "active",
      "intent": "order",
      "category": [ {
        "coding": [ {
          "system": "http://terminology.hl7.org/CodeSystem/medicationrequest-category",
          "code": "discharge",
          "display": "Discharge"
        } ]
      } ],
      "medicationCodeableConcept": {
        "coding": [ {
          "system": "http://www.nlm.nih.gov/research/umls/rxnorm",
          "code": "1366192",
          "display": "clobazam 2.5 MG/ML Oral Suspension",
          "userSelected": true
        } ]
      },
      "subject": {
        "reference": "Patient/5326ef57-57d6-49b8-bdc5-b3179cdcb82d"
      },
      "authoredOn": "2026-12-31T23:59:00.000+00:00",
      "requester": {
        "reference": "Practitioner/example"
      }
    },
    "request": {
      "method": "PUT",
      "url": "MedicationRequest/dfd36ab5-1498-48c6-9813-829fca51df59"
    }
  }, {
    "fullUrl": "https://madie.cms.gov/MeasureReport/13d2c78d-9ea8-43cb-976a-07636ad51575",
    "resource": {
      "resourceType": "MeasureReport",
      "id": "13d2c78d-9ea8-43cb-976a-07636ad51575",
      "meta": {
        "profile": [ "http://hl7.org/fhir/us/cqfmeasures/StructureDefinition/test-case-cqfm" ]
      },
      "contained": [ {
        "resourceType": "Parameters",
        "id": "1cdec9dc-d182-49fe-a06e-981545147018-parameters",
        "parameter": [ {
          "name": "subject",
          "valueString": "5326ef57-57d6-49b8-bdc5-b3179cdcb82d"
        } ]
      } ],
      "extension": [ {
        "url": "http://hl7.org/fhir/StructureDefinition/cqf-inputParameters",
        "valueReference": {
          "reference": "#1cdec9dc-d182-49fe-a06e-981545147018-parameters"
        }
      }, {
        "url": "http://hl7.org/fhir/us/cqfmeasures/StructureDefinition/cqfm-testCaseDescription",
        "valueMarkdown": "Seizure disorder ends 1 year before MP. Testing for condition encounter diagnosis to meet 100% coverage."
      } ],
      "modifierExtension": [ {
        "url": "http://hl7.org/fhir/us/cqfmeasures/StructureDefinition/cqfm-isTestCase",
        "valueBoolean": true
      } ],
      "status": "complete",
      "type": "individual",
      "measure": "https://madie.cms.gov/Measure/CMS156FHIRHighRiskMedsElderly",
      "period": {
        "start": "2026-01-01",
        "end": "2026-12-31"
      },
      "group": [ {
        "id": "Group_1",
        "population": [ {
          "id": "InitialPopulation_1",
          "code": {
            "coding": [ {
              "system": "http://terminology.hl7.org/CodeSystem/measure-population",
              "code": "initial-population",
              "display": "Initial Population"
            } ]
          },
          "count": 1
        }, {
          "id": "Denominator_1",
          "code": {
            "coding": [ {
              "system": "http://terminology.hl7.org/CodeSystem/measure-population",
              "code": "denominator",
              "display": "Denominator"
            } ]
          },
          "count": 1
        }, {
          "id": "DenominatorExclusion_1",
          "code": {
            "coding": [ {
              "system": "http://terminology.hl7.org/CodeSystem/measure-population",
              "code": "denominator-exclusion",
              "display": "Denominator Exclusion"
            } ]
          },
          "count": 0
        }, {
          "id": "Numerator_1",
          "code": {
            "coding": [ {
              "system": "http://terminology.hl7.org/CodeSystem/measure-population",
              "code": "numerator",
              "display": "Numerator"
            } ]
          },
          "count": 0
        } ],
        "measureScore": {
          "value": 1.0
        }
      }, {
        "id": "Group_2",
        "population": [ {
          "id": "InitialPopulation_2",
          "code": {
            "coding": [ {
              "system": "http://terminology.hl7.org/CodeSystem/measure-population",
              "code": "initial-population",
              "display": "Initial Population"
            } ]
          },
          "count": 1
        }, {
          "id": "Denominator_2",
          "code": {
            "coding": [ {
              "system": "http://terminology.hl7.org/CodeSystem/measure-population",
              "code": "denominator",
              "display": "Denominator"
            } ]
          },
          "count": 1
        }, {
          "id": "DenominatorExclusion_2",
          "code": {
            "coding": [ {
              "system": "http://terminology.hl7.org/CodeSystem/measure-population",
              "code": "denominator-exclusion",
              "display": "Denominator Exclusion"
            } ]
          },
          "count": 0
        }, {
          "id": "Numerator_2",
          "code": {
            "coding": [ {
              "system": "http://terminology.hl7.org/CodeSystem/measure-population",
              "code": "numerator",
              "display": "Numerator"
            } ]
          },
          "count": 1
        } ],
        "measureScore": {
          "value": 1.0
        }
      }, {
        "id": "Group_3",
        "population": [ {
          "id": "InitialPopulation_3",
          "code": {
            "coding": [ {
              "system": "http://terminology.hl7.org/CodeSystem/measure-population",
              "code": "initial-population",
              "display": "Initial Population"
            } ]
          },
          "count": 1
        }, {
          "id": "Denominator_3",
          "code": {
            "coding": [ {
              "system": "http://terminology.hl7.org/CodeSystem/measure-population",
              "code": "denominator",
              "display": "Denominator"
            } ]
          },
          "count": 1
        }, {
          "id": "DenominatorExclusion_3",
          "code": {
            "coding": [ {
              "system": "http://terminology.hl7.org/CodeSystem/measure-population",
              "code": "denominator-exclusion",
              "display": "Denominator Exclusion"
            } ]
          },
          "count": 0
        }, {
          "id": "Numerator_3",
          "code": {
            "coding": [ {
              "system": "http://terminology.hl7.org/CodeSystem/measure-population",
              "code": "numerator",
              "display": "Numerator"
            } ]
          },
          "count": 1
        } ],
        "measureScore": {
          "value": 1.0
        }
      } ],
      "evaluatedResource": [ {
        "reference": "Patient/5326ef57-57d6-49b8-bdc5-b3179cdcb82d"
      }, {
        "reference": "Encounter/8ba16d8b-4f3d-4470-bec5-258bce89ab8d"
      }, {
        "reference": "Condition/fc849135-aab3-4610-9b07-9df825f20da8"
      }, {
        "reference": "MedicationRequest/a13ae5ad-52f5-477d-8273-5dd37bd4ee92"
      }, {
        "reference": "MedicationRequest/dfd36ab5-1498-48c6-9813-829fca51df59"
      } ]
    },
    "request": {
      "method": "PUT",
      "url": "MeasureReport/13d2c78d-9ea8-43cb-976a-07636ad51575"
    }
  } ]
}