{
  "resourceType": "Bundle",
  "id": "612e6b1b02c62a011f2ec7e4",
  "type": "transaction",
  "entry": [ {
    "fullUrl": "https://madie.cms.gov/Patient/fa6ecbf0-8dd9-4c03-a8ed-2bd82cb8206f",
    "resource": {
      "resourceType": "Patient",
      "id": "fa6ecbf0-8dd9-4c03-a8ed-2bd82cb8206f",
      "meta": {
        "profile": [ "http://hl7.org/fhir/us/qicore/StructureDefinition/qicore-patient" ]
      },
      "text": {
        "status": "generated",
        "div": "<div xmlns=\"http://www.w3.org/1999/xhtml\"><div class=\"hapiHeaderText\">ProphylaxisDuringSameDayOf2ndObs <b>NUMERPASS </b></div><table class=\"hapiPropertyTable\"><tbody><tr><td>Identifier</td><td>4a3cf6afd879a8f9468f9b4b43b7b032</td></tr><tr><td>Date of birth</td><td><span>02 September 2003</span></td></tr></tbody></table></div>"
      },
      "extension": [ {
        "url": "http://hl7.org/fhir/us/core/StructureDefinition/us-core-race",
        "extension": [ {
          "url": "ombCategory",
          "valueCoding": {
            "system": "urn:oid:2.16.840.1.113883.6.238",
            "code": "1002-5",
            "display": "American Indian or Alaska Native",
            "userSelected": true
          }
        }, {
          "url": "text",
          "valueString": "American Indian or Alaska Native"
        } ]
      }, {
        "url": "http://hl7.org/fhir/us/core/StructureDefinition/us-core-ethnicity",
        "extension": [ {
          "url": "ombCategory",
          "valueCoding": {
            "system": "urn:oid:2.16.840.1.113883.6.238",
            "code": "2135-2",
            "display": "Hispanic or Latino",
            "userSelected": true
          }
        }, {
          "url": "text",
          "valueString": "Hispanic or Latino"
        } ]
      } ],
      "identifier": [ {
        "type": {
          "coding": [ {
            "system": "http://terminology.hl7.org/CodeSystem/v2-0203",
            "code": "MR"
          } ]
        },
        "system": "https://bonnie-fhir.healthit.gov/",
        "value": "612e6b1b02c62a011f2ec7e4"
      } ],
      "active": true,
      "name": [ {
        "use": "usual",
        "family": "NUMERPass",
        "given": [ "ProphylaxisDuringSameDayOf2ndObs" ]
      } ],
      "gender": "male",
      "birthDate": "2004-09-02"
    },
    "request": {
      "method": "PUT",
      "url": "Patient/fa6ecbf0-8dd9-4c03-a8ed-2bd82cb8206f"
    }
  }, {
    "fullUrl": "https://madie.cms.gov/Encounter/a845d017-c646-425e-8ee7-5754f9b39800",
    "resource": {
      "resourceType": "Encounter",
      "id": "a845d017-c646-425e-8ee7-5754f9b39800",
      "meta": {
        "profile": [ "http://hl7.org/fhir/us/qicore/StructureDefinition/qicore-encounter" ]
      },
      "status": "finished",
      "class": {
        "system": "http://terminology.hl7.org/CodeSystem/v3-ActCode",
        "code": "IMP",
        "display": "inpatient encounter"
      },
      "type": [ {
        "coding": [ {
          "system": "http://snomed.info/sct",
          "code": "183452005"
        } ]
      } ],
      "subject": {
        "reference": "Patient/fa6ecbf0-8dd9-4c03-a8ed-2bd82cb8206f"
      },
      "period": {
        "start": "2026-09-03T15:15:00.000+00:00",
        "end": "2026-10-01T12:59:00.000+00:00"
      }
    },
    "request": {
      "method": "PUT",
      "url": "Encounter/a845d017-c646-425e-8ee7-5754f9b39800"
    }
  }, {
    "fullUrl": "https://madie.cms.gov/Encounter/362c61be-49e0-4f0f-a66b-302e4f374479",
    "resource": {
      "resourceType": "Encounter",
      "id": "362c61be-49e0-4f0f-a66b-302e4f374479",
      "meta": {
        "profile": [ "http://hl7.org/fhir/us/qicore/StructureDefinition/qicore-encounter" ]
      },
      "status": "finished",
      "class": {
        "system": "http://terminology.hl7.org/CodeSystem/v3-ActCode",
        "code": "EMER",
        "display": "emergency"
      },
      "type": [ {
        "coding": [ {
          "system": "http://snomed.info/sct",
          "code": "4525004"
        } ]
      } ],
      "subject": {
        "reference": "Patient/fa6ecbf0-8dd9-4c03-a8ed-2bd82cb8206f"
      },
      "period": {
        "start": "2026-09-02T14:30:00.000+00:00",
        "end": "2026-09-02T15:00:00.000+00:00"
      }
    },
    "request": {
      "method": "PUT",
      "url": "Encounter/362c61be-49e0-4f0f-a66b-302e4f374479"
    }
  }, {
    "fullUrl": "https://madie.cms.gov/Encounter/a638f3a8-d60c-478d-b4af-14835fb119f7",
    "resource": {
      "resourceType": "Encounter",
      "id": "a638f3a8-d60c-478d-b4af-14835fb119f7",
      "meta": {
        "profile": [ "http://hl7.org/fhir/us/qicore/StructureDefinition/qicore-encounter" ]
      },
      "status": "finished",
      "class": {
        "system": "http://terminology.hl7.org/CodeSystem/v3-ActCode",
        "code": "EMER",
        "display": "emergency"
      },
      "type": [ {
        "coding": [ {
          "system": "http://snomed.info/sct",
          "code": "4525004"
        } ]
      } ],
      "subject": {
        "reference": "Patient/fa6ecbf0-8dd9-4c03-a8ed-2bd82cb8206f"
      },
      "period": {
        "start": "2026-09-02T08:00:00.000+00:00",
        "end": "2026-09-02T13:00:00.000+00:00"
      }
    },
    "request": {
      "method": "PUT",
      "url": "Encounter/a638f3a8-d60c-478d-b4af-14835fb119f7"
    }
  }, {
    "fullUrl": "https://madie.cms.gov/Encounter/3adce9a3-5caa-40b6-bb0d-b9be03ca7e05",
    "resource": {
      "resourceType": "Encounter",
      "id": "3adce9a3-5caa-40b6-bb0d-b9be03ca7e05",
      "meta": {
        "profile": [ "http://hl7.org/fhir/us/qicore/StructureDefinition/qicore-encounter" ]
      },
      "status": "finished",
      "class": {
        "system": "http://terminology.hl7.org/CodeSystem/v3-ActCode",
        "code": "OBSENC",
        "display": "observation encounter"
      },
      "type": [ {
        "coding": [ {
          "system": "http://snomed.info/sct",
          "code": "448951000124107"
        } ]
      } ],
      "subject": {
        "reference": "Patient/fa6ecbf0-8dd9-4c03-a8ed-2bd82cb8206f"
      },
      "period": {
        "start": "2026-09-02T15:30:00.000+00:00",
        "end": "2026-09-03T15:00:00.000+00:00"
      }
    },
    "request": {
      "method": "PUT",
      "url": "Encounter/3adce9a3-5caa-40b6-bb0d-b9be03ca7e05"
    }
  }, {
    "fullUrl": "https://madie.cms.gov/Encounter/ca86de30-7dc5-42d0-90f5-8e21f927f97b",
    "resource": {
      "resourceType": "Encounter",
      "id": "ca86de30-7dc5-42d0-90f5-8e21f927f97b",
      "meta": {
        "profile": [ "http://hl7.org/fhir/us/qicore/StructureDefinition/qicore-encounter" ]
      },
      "status": "finished",
      "class": {
        "system": "http://terminology.hl7.org/CodeSystem/v3-ActCode",
        "code": "OBSENC",
        "display": "observation encounter"
      },
      "type": [ {
        "coding": [ {
          "system": "http://snomed.info/sct",
          "code": "448951000124107"
        } ]
      } ],
      "subject": {
        "reference": "Patient/fa6ecbf0-8dd9-4c03-a8ed-2bd82cb8206f"
      },
      "period": {
        "start": "2026-09-02T13:30:00.000+00:00",
        "end": "2026-09-02T14:00:00.000+00:00"
      }
    },
    "request": {
      "method": "PUT",
      "url": "Encounter/ca86de30-7dc5-42d0-90f5-8e21f927f97b"
    }
  }, {
    "fullUrl": "https://madie.cms.gov/Coverage/19c46778-00d0-4979-a7c4-22e3754f4228",
    "resource": {
      "resourceType": "Coverage",
      "id": "19c46778-00d0-4979-a7c4-22e3754f4228",
      "status": "active",
      "beneficiary": {
        "reference": "Patient/fa6ecbf0-8dd9-4c03-a8ed-2bd82cb8206f"
      },
      "period": {
        "start": "2004-09-02T09:00:00.000+00:00"
      },
      "payor": [ {
        "reference": "Organization/65b635fc-5981-4c28-899d-a61ea8e828b8"
      } ]
    },
    "request": {
      "method": "PUT",
      "url": "Coverage/19c46778-00d0-4979-a7c4-22e3754f4228"
    }
  }, {
    "fullUrl": "https://madie.cms.gov/MedicationAdministration/73db3318-d549-4fe1-a24d-127a2031bca2",
    "resource": {
      "resourceType": "MedicationAdministration",
      "id": "73db3318-d549-4fe1-a24d-127a2031bca2",
      "meta": {
        "profile": [ "http://hl7.org/fhir/us/qicore/StructureDefinition/qicore-medicationadministration" ]
      },
      "status": "completed",
      "medicationCodeableConcept": {
        "coding": [ {
          "system": "http://www.nlm.nih.gov/research/umls/rxnorm",
          "code": "861356"
        } ]
      },
      "subject": {
        "reference": "Patient/fa6ecbf0-8dd9-4c03-a8ed-2bd82cb8206f"
      },
      "effectivePeriod": {
        "start": "2026-09-02T13:40:00.000+00:00",
        "end": "2026-09-02T13:50:00.000+00:00"
      }
    },
    "request": {
      "method": "PUT",
      "url": "MedicationAdministration/73db3318-d549-4fe1-a24d-127a2031bca2"
    }
  }, {
    "fullUrl": "https://madie.cms.gov/Organization/65b635fc-5981-4c28-899d-a61ea8e828b8",
    "resource": {
      "resourceType": "Organization",
      "id": "65b635fc-5981-4c28-899d-a61ea8e828b8",
      "meta": {
        "profile": [ "http://hl7.org/fhir/us/qicore/StructureDefinition/qicore-organization" ]
      },
      "identifier": [ {
        "use": "temp",
        "system": "urn:oid:2.16.840.1.113883.4.4",
        "value": "21-3259825"
      } ],
      "active": true,
      "type": [ {
        "coding": [ {
          "system": "http://terminology.hl7.org/CodeSystem/organization-type",
          "code": "pay",
          "display": "Payer"
        } ]
      } ],
      "name": "Blue Cross Blue Shield of Texas",
      "telecom": [ {
        "system": "phone",
        "value": "(+1) 972-766-6900"
      } ],
      "address": [ {
        "use": "billing",
        "type": "postal",
        "line": [ "P.O. Box 660044" ],
        "city": "Dallas",
        "state": "TX",
        "postalCode": "75266-0044",
        "country": "USA"
      } ]
    },
    "request": {
      "method": "PUT",
      "url": "Organization/65b635fc-5981-4c28-899d-a61ea8e828b8"
    }
  }, {
    "fullUrl": "https://madie.cms.gov/Practitioner/e42ea272-2b74-47e3-88a6-5d0eab92d5de",
    "resource": {
      "resourceType": "Practitioner",
      "id": "e42ea272-2b74-47e3-88a6-5d0eab92d5de",
      "identifier": [ {
        "system": "http://hl7.org/fhir/sid/us-npi",
        "value": "123456"
      } ],
      "name": [ {
        "family": "Evil",
        "prefix": [ "Dr" ]
      } ]
    },
    "request": {
      "method": "PUT",
      "url": "Practitioner/e42ea272-2b74-47e3-88a6-5d0eab92d5de"
    }
  }, {
    "fullUrl": "https://madie.cms.gov/MeasureReport/54721c80-9165-439c-ae21-b45eda9f9d73",
    "resource": {
      "resourceType": "MeasureReport",
      "id": "54721c80-9165-439c-ae21-b45eda9f9d73",
      "meta": {
        "profile": [ "http://hl7.org/fhir/us/cqfmeasures/StructureDefinition/test-case-cqfm" ]
      },
      "contained": [ {
        "resourceType": "Parameters",
        "id": "4f49f595-4cb4-4d64-944d-76fcd4235f84-parameters",
        "parameter": [ {
          "name": "subject",
          "valueString": "fa6ecbf0-8dd9-4c03-a8ed-2bd82cb8206f"
        } ]
      } ],
      "extension": [ {
        "url": "http://hl7.org/fhir/StructureDefinition/cqf-inputParameters",
        "valueReference": {
          "reference": "#4f49f595-4cb4-4d64-944d-76fcd4235f84-parameters"
        }
      }, {
        "url": "http://hl7.org/fhir/us/cqfmeasures/StructureDefinition/cqfm-testCaseDescription",
        "valueMarkdown": "ED then admit to Observation, did not want to stay AWOL; symptoms worsened, back to ED and then observation, then inpt admit; VTE Prophylaxis during first observation cause test to pass. \n"
      } ],
      "modifierExtension": [ {
        "url": "http://hl7.org/fhir/us/cqfmeasures/StructureDefinition/cqfm-isTestCase",
        "valueBoolean": true
      } ],
      "status": "complete",
      "type": "individual",
      "measure": "https://madie.cms.gov/Measure/CMS108FHIRVTEProphylaxis",
      "period": {
        "start": "2026-01-01",
        "end": "2026-12-31"
      },
      "group": [ {
        "id": "Group_1",
        "population": [ {
          "id": "InitialPopulation_1",
          "code": {
            "coding": [ {
              "system": "http://terminology.hl7.org/CodeSystem/measure-population",
              "code": "initial-population",
              "display": "Initial Population"
            } ]
          },
          "count": 1
        }, {
          "id": "Denominator_1",
          "code": {
            "coding": [ {
              "system": "http://terminology.hl7.org/CodeSystem/measure-population",
              "code": "denominator",
              "display": "Denominator"
            } ]
          },
          "count": 1
        }, {
          "id": "DenominatorExclusion_1",
          "code": {
            "coding": [ {
              "system": "http://terminology.hl7.org/CodeSystem/measure-population",
              "code": "denominator-exclusion",
              "display": "Denominator Exclusion"
            } ]
          },
          "count": 0
        }, {
          "id": "Numerator_1",
          "code": {
            "coding": [ {
              "system": "http://terminology.hl7.org/CodeSystem/measure-population",
              "code": "numerator",
              "display": "Numerator"
            } ]
          },
          "count": 1
        } ],
        "measureScore": {
          "value": 0.0
        }
      } ],
      "evaluatedResource": [ {
        "reference": "Patient/fa6ecbf0-8dd9-4c03-a8ed-2bd82cb8206f"
      }, {
        "reference": "Encounter/a845d017-c646-425e-8ee7-5754f9b39800"
      }, {
        "reference": "Encounter/362c61be-49e0-4f0f-a66b-302e4f374479"
      }, {
        "reference": "Encounter/a638f3a8-d60c-478d-b4af-14835fb119f7"
      }, {
        "reference": "Encounter/3adce9a3-5caa-40b6-bb0d-b9be03ca7e05"
      }, {
        "reference": "Encounter/ca86de30-7dc5-42d0-90f5-8e21f927f97b"
      }, {
        "reference": "Coverage/19c46778-00d0-4979-a7c4-22e3754f4228"
      }, {
        "reference": "MedicationAdministration/73db3318-d549-4fe1-a24d-127a2031bca2"
      }, {
        "reference": "Organization/65b635fc-5981-4c28-899d-a61ea8e828b8"
      }, {
        "reference": "Practitioner/e42ea272-2b74-47e3-88a6-5d0eab92d5de"
      } ]
    },
    "request": {
      "method": "PUT",
      "url": "MeasureReport/54721c80-9165-439c-ae21-b45eda9f9d73"
    }
  } ]
}