{
  "resourceType": "Bundle",
  "id": "6109650598086b538055a0e4",
  "type": "transaction",
  "entry": [ {
    "fullUrl": "https://madie.cms.gov/Patient/41ab4767-1013-4d6f-a84a-06d425f2d8d1",
    "resource": {
      "resourceType": "Patient",
      "id": "41ab4767-1013-4d6f-a84a-06d425f2d8d1",
      "meta": {
        "profile": [ "http://hl7.org/fhir/us/qicore/StructureDefinition/qicore-patient" ]
      },
      "text": {
        "status": "generated",
        "div": "<div xmlns=\"http://www.w3.org/1999/xhtml\"><div class=\"hapiHeaderText\">AgeOver17OVEnc <b>IPPFAIL </b></div><table class=\"hapiPropertyTable\"><tbody><tr><td>Identifier</td><td>a161be7fbcc0d9ed110cb2dba89f8c2a</td></tr><tr><td>Date of birth</td><td><span>31 December 1994</span></td></tr></tbody></table></div>"
      },
      "extension": [ {
        "url": "http://hl7.org/fhir/us/core/StructureDefinition/us-core-race",
        "extension": [ {
          "url": "ombCategory",
          "valueCoding": {
            "system": "urn:oid:2.16.840.1.113883.6.238",
            "code": "1002-5",
            "display": "American Indian or Alaska Native",
            "userSelected": true
          }
        }, {
          "url": "text",
          "valueString": "American Indian or Alaska Native"
        } ]
      }, {
        "url": "http://hl7.org/fhir/us/core/StructureDefinition/us-core-ethnicity",
        "extension": [ {
          "url": "ombCategory",
          "valueCoding": {
            "system": "urn:oid:2.16.840.1.113883.6.238",
            "code": "2186-5",
            "display": "Not Hispanic or Latino",
            "userSelected": true
          }
        }, {
          "url": "text",
          "valueString": "Not Hispanic or Latino"
        } ]
      } ],
      "identifier": [ {
        "type": {
          "coding": [ {
            "system": "http://terminology.hl7.org/CodeSystem/v2-0203",
            "code": "MR"
          } ]
        },
        "system": "https://bonnie-fhir.healthit.gov/",
        "value": "6109650598086b538055a0e4"
      } ],
      "active": true,
      "name": [ {
        "use": "usual",
        "family": "IPFail",
        "given": [ "AgeOver17OVEnc" ]
      } ],
      "gender": "male",
      "birthDate": "2008-12-29"
    },
    "request": {
      "method": "PUT",
      "url": "Patient/41ab4767-1013-4d6f-a84a-06d425f2d8d1"
    }
  }, {
    "fullUrl": "https://madie.cms.gov/Encounter/fa2555a8-0ba2-416b-86b6-440e4ca20b74",
    "resource": {
      "resourceType": "Encounter",
      "id": "fa2555a8-0ba2-416b-86b6-440e4ca20b74",
      "status": "finished",
      "class": {
        "system": "http://terminology.hl7.org/CodeSystem/v3-ActCode",
        "code": "AMB",
        "display": "ambulatory",
        "userSelected": true
      },
      "type": [ {
        "coding": [ {
          "system": "http://snomed.info/sct",
          "code": "185463005"
        } ]
      } ],
      "subject": {
        "reference": "Patient/41ab4767-1013-4d6f-a84a-06d425f2d8d1"
      },
      "period": {
        "start": "2027-01-01T08:00:00.000+00:00",
        "end": "2027-01-01T08:15:00.000+00:00"
      },
      "reasonCode": [ {
        "coding": [ {
          "system": "http://hl7.org/fhir/sid/icd-10-cm",
          "version": "2021",
          "code": "F33.3",
          "display": "Major depressive disorder, recurrent, severe with psychotic symptoms",
          "userSelected": true
        } ]
      } ],
      "diagnosis": [ {
        "condition": {
          "reference": "Condition/f10c4057-c8f7-4de7-99a1-90e3d42aefc8"
        },
        "use": {
          "coding": [ {
            "system": "http://snomed.info/sct",
            "version": "2022-09",
            "code": "10811161000119107",
            "display": "Major depressive disorder in mother complicating pregnancy (disorder)",
            "userSelected": true
          } ]
        }
      } ]
    },
    "request": {
      "method": "PUT",
      "url": "Encounter/fa2555a8-0ba2-416b-86b6-440e4ca20b74"
    }
  }, {
    "fullUrl": "https://madie.cms.gov/Condition/f10c4057-c8f7-4de7-99a1-90e3d42aefc8",
    "resource": {
      "resourceType": "Condition",
      "id": "f10c4057-c8f7-4de7-99a1-90e3d42aefc8",
      "category": [ {
        "coding": [ {
          "system": "http://terminology.hl7.org/CodeSystem/condition-category",
          "code": "encounter-diagnosis",
          "display": "Encounter Diagnosis"
        } ]
      } ],
      "code": {
        "coding": [ {
          "system": "http://snomed.info/sct",
          "version": "2022-09",
          "code": "10811121000119102",
          "display": "Major depressive disorder in mother complicating childbirth (disorder)",
          "userSelected": true
        } ]
      },
      "subject": {
        "reference": "Patient/41ab4767-1013-4d6f-a84a-06d425f2d8d1"
      },
      "recordedDate": "2027-01-01T08:03:00.000+00:00"
    },
    "request": {
      "method": "PUT",
      "url": "Condition/f10c4057-c8f7-4de7-99a1-90e3d42aefc8"
    }
  }, {
    "fullUrl": "https://madie.cms.gov/Coverage/bfdd4672-5e28-4746-820e-e99675b9eed3",
    "resource": {
      "resourceType": "Coverage",
      "id": "bfdd4672-5e28-4746-820e-e99675b9eed3",
      "status": "active",
      "type": {
        "coding": [ {
          "system": "http://www.nlm.nih.gov/research/umls/sop",
          "code": "21",
          "userSelected": true
        } ]
      },
      "beneficiary": {
        "reference": "Patient/41ab4767-1013-4d6f-a84a-06d425f2d8d1"
      },
      "period": {
        "start": "2027-01-01T07:00:00.000+00:00",
        "end": "2027-03-29T08:15:00.000+00:00"
      },
      "payor": [ {
        "reference": "Organization/1eaf1a77-d924-4a19-b622-27891f0a8f6c"
      } ]
    },
    "request": {
      "method": "PUT",
      "url": "Coverage/bfdd4672-5e28-4746-820e-e99675b9eed3"
    }
  }, {
    "fullUrl": "https://madie.cms.gov/Organization/1eaf1a77-d924-4a19-b622-27891f0a8f6c",
    "resource": {
      "resourceType": "Organization",
      "id": "1eaf1a77-d924-4a19-b622-27891f0a8f6c",
      "meta": {
        "profile": [ "http://hl7.org/fhir/us/qicore/StructureDefinition/qicore-organization" ]
      },
      "identifier": [ {
        "use": "temp",
        "system": "urn:oid:2.16.840.1.113883.4.4",
        "value": "21-3259825"
      } ],
      "active": true,
      "type": [ {
        "coding": [ {
          "system": "http://terminology.hl7.org/CodeSystem/organization-type",
          "code": "pay",
          "display": "Payer"
        } ]
      } ],
      "name": "Blue Cross Blue Shield of Texas",
      "telecom": [ {
        "system": "phone",
        "value": "(+1) 972-766-6900"
      } ],
      "address": [ {
        "use": "billing",
        "type": "postal",
        "line": [ "P.O. Box 660044" ],
        "city": "Dallas",
        "state": "TX",
        "postalCode": "75266-0044",
        "country": "USA"
      } ]
    },
    "request": {
      "method": "PUT",
      "url": "Organization/1eaf1a77-d924-4a19-b622-27891f0a8f6c"
    }
  }, {
    "fullUrl": "https://madie.cms.gov/Practitioner/55b9aad4-7c53-4b85-b306-33e91a723f8f",
    "resource": {
      "resourceType": "Practitioner",
      "id": "55b9aad4-7c53-4b85-b306-33e91a723f8f",
      "identifier": [ {
        "system": "http://hl7.org/fhir/sid/us-npi",
        "value": "123456"
      } ],
      "name": [ {
        "family": "Evil",
        "prefix": [ "Dr" ]
      } ]
    },
    "request": {
      "method": "PUT",
      "url": "Practitioner/55b9aad4-7c53-4b85-b306-33e91a723f8f"
    }
  }, {
    "fullUrl": "https://madie.cms.gov/MeasureReport/bf329b56-a14d-4522-af49-a01df66bb993",
    "resource": {
      "resourceType": "MeasureReport",
      "id": "bf329b56-a14d-4522-af49-a01df66bb993",
      "meta": {
        "profile": [ "http://hl7.org/fhir/us/cqfmeasures/StructureDefinition/test-case-cqfm" ]
      },
      "contained": [ {
        "resourceType": "Parameters",
        "id": "04d583f2-5353-4003-bee4-54cd7095e99f-parameters",
        "parameter": [ {
          "name": "subject",
          "valueString": "41ab4767-1013-4d6f-a84a-06d425f2d8d1"
        } ]
      } ],
      "extension": [ {
        "url": "http://hl7.org/fhir/StructureDefinition/cqf-inputParameters",
        "valueReference": {
          "reference": "#04d583f2-5353-4003-bee4-54cd7095e99f-parameters"
        }
      }, {
        "url": "http://hl7.org/fhir/us/cqfmeasures/StructureDefinition/cqfm-testCaseDescription",
        "valueMarkdown": "Patient is over 17 years of age with office visit encounter "
      } ],
      "modifierExtension": [ {
        "url": "http://hl7.org/fhir/us/cqfmeasures/StructureDefinition/cqfm-isTestCase",
        "valueBoolean": true
      } ],
      "status": "complete",
      "type": "individual",
      "measure": "https://madie.cms.gov/Measure/CMS177FHIRChildMDDSuicideAssmt",
      "period": {
        "start": "2026-01-01",
        "end": "2026-12-31"
      },
      "group": [ {
        "id": "Group_1",
        "population": [ {
          "id": "InitialPopulation_1",
          "code": {
            "coding": [ {
              "system": "http://terminology.hl7.org/CodeSystem/measure-population",
              "code": "initial-population",
              "display": "Initial Population"
            } ]
          },
          "count": 0
        }, {
          "id": "Denominator_1",
          "code": {
            "coding": [ {
              "system": "http://terminology.hl7.org/CodeSystem/measure-population",
              "code": "denominator",
              "display": "Denominator"
            } ]
          },
          "count": 0
        }, {
          "id": "Numerator_1",
          "code": {
            "coding": [ {
              "system": "http://terminology.hl7.org/CodeSystem/measure-population",
              "code": "numerator",
              "display": "Numerator"
            } ]
          },
          "count": 0
        } ],
        "measureScore": {
          "value": 0.0
        }
      } ],
      "evaluatedResource": [ {
        "reference": "Patient/41ab4767-1013-4d6f-a84a-06d425f2d8d1"
      }, {
        "reference": "Encounter/fa2555a8-0ba2-416b-86b6-440e4ca20b74"
      }, {
        "reference": "Condition/f10c4057-c8f7-4de7-99a1-90e3d42aefc8"
      }, {
        "reference": "Coverage/bfdd4672-5e28-4746-820e-e99675b9eed3"
      }, {
        "reference": "Organization/1eaf1a77-d924-4a19-b622-27891f0a8f6c"
      }, {
        "reference": "Practitioner/55b9aad4-7c53-4b85-b306-33e91a723f8f"
      } ]
    },
    "request": {
      "method": "PUT",
      "url": "MeasureReport/bf329b56-a14d-4522-af49-a01df66bb993"
    }
  } ]
}