{
  "resourceType": "Bundle",
  "id": "tests-NumerFail-0GlucoseValue-bundle",
  "type": "transaction",
  "entry": [ {
    "fullUrl": "https://madie.cms.gov/Condition/af1a9702-d1c2-459a-8a41-15b0e1482f65",
    "resource": {
      "resourceType": "Condition",
      "id": "af1a9702-d1c2-459a-8a41-15b0e1482f65",
      "meta": {
        "profile": [ "http://hl7.org/fhir/us/qicore/StructureDefinition/qicore-condition-encounter-diagnosis" ]
      },
      "clinicalStatus": {
        "coding": [ {
          "system": "http://terminology.hl7.org/CodeSystem/condition-clinical",
          "code": "active"
        } ]
      },
      "verificationStatus": {
        "coding": [ {
          "system": "http://terminology.hl7.org/CodeSystem/condition-ver-status",
          "code": "confirmed"
        } ]
      },
      "category": [ {
        "coding": [ {
          "system": "http://terminology.hl7.org/CodeSystem/condition-category",
          "code": "encounter-diagnosis",
          "display": "Encounter Diagnosis"
        } ]
      } ],
      "code": {
        "coding": [ {
          "system": "http://snomed.info/sct",
          "code": "46635009",
          "display": "Diabetes Mellitus"
        } ]
      },
      "subject": {
        "reference": "Patient/113a6e72-7049-4a7f-90cf-5ec3435b0dee"
      },
      "encounter": {
        "reference": "Encounter/6f999b90-25dd-4113-b239-f4153b170e09"
      },
      "onsetDateTime": "2026-07-09T08:00:00.000+00:00"
    },
    "request": {
      "method": "PUT",
      "url": "Condition/af1a9702-d1c2-459a-8a41-15b0e1482f65"
    }
  }, {
    "fullUrl": "https://madie.cms.gov/Encounter/6f999b90-25dd-4113-b239-f4153b170e09",
    "resource": {
      "resourceType": "Encounter",
      "id": "6f999b90-25dd-4113-b239-f4153b170e09",
      "meta": {
        "profile": [ "http://hl7.org/fhir/us/qicore/StructureDefinition/qicore-encounter" ]
      },
      "status": "finished",
      "class": {
        "system": "http://terminology.hl7.org/CodeSystem/v3-ActCode",
        "code": "IMP",
        "display": "inpatient encounter"
      },
      "type": [ {
        "coding": [ {
          "system": "http://snomed.info/sct",
          "code": "183452005",
          "display": "Inpatient encounter"
        } ]
      } ],
      "subject": {
        "reference": "Patient/113a6e72-7049-4a7f-90cf-5ec3435b0dee"
      },
      "period": {
        "start": "2026-07-11T08:00:00.000+00:00",
        "end": "2026-07-16T09:00:00.000+00:00"
      }
    },
    "request": {
      "method": "PUT",
      "url": "Encounter/6f999b90-25dd-4113-b239-f4153b170e09"
    }
  }, {
    "resource": {
      "resourceType": "Patient",
      "meta": {
        "profile": [ "http://hl7.org/fhir/us/qicore/StructureDefinition/qicore-patient" ]
      },
      "extension": [ {
        "url": "http://hl7.org/fhir/us/core/StructureDefinition/us-core-race",
        "extension": [ {
          "url": "ombCategory",
          "valueCoding": {
            "system": "urn:oid:2.16.840.1.113883.6.238",
            "code": "2106-3",
            "display": "White"
          }
        }, {
          "url": "text",
          "valueString": "White"
        } ]
      }, {
        "url": "http://hl7.org/fhir/us/core/StructureDefinition/us-core-ethnicity",
        "extension": [ {
          "url": "ombCategory",
          "valueCoding": {
            "system": "urn:oid:2.16.840.1.113883.6.238",
            "code": "2135-2",
            "display": "Hispanic or Latino"
          }
        }, {
          "url": "text",
          "valueString": "Hispanic or Latino"
        } ]
      }, {
        "url": "http://hl7.org/fhir/us/core/StructureDefinition/us-core-sex",
        "valueCode": "248153007"
      } ],
      "identifier": [ {
        "system": "http://hospital.smarthealthit.org",
        "value": "999999999"
      } ],
      "name": [ {
        "family": "Example",
        "given": [ "Patient" ]
      } ],
      "gender": "female",
      "birthDate": "1956-01-01"
    },
    "request": {
      "method": "PUT",
      "url": "Patient/null"
    }
  }, {
    "fullUrl": "https://madie.cms.gov/Observation/20a83edc-4692-4241-bdcb-eb726db389c0",
    "resource": {
      "resourceType": "Observation",
      "id": "20a83edc-4692-4241-bdcb-eb726db389c0",
      "meta": {
        "profile": [ "http://hl7.org/fhir/us/qicore/StructureDefinition/qicore-observation-lab" ]
      },
      "status": "final",
      "category": [ {
        "coding": [ {
          "system": "http://terminology.hl7.org/CodeSystem/observation-category",
          "code": "laboratory",
          "display": "Laboratory"
        } ]
      } ],
      "code": {
        "coding": [ {
          "system": "http://loinc.org",
          "version": "2.72",
          "code": "1547-9",
          "display": "Glucose Lab Test Mass Per Volume"
        } ]
      },
      "subject": {
        "reference": "Patient/113a6e72-7049-4a7f-90cf-5ec3435b0dee"
      },
      "effectiveDateTime": "2026-07-12T08:00:00.000+00:00",
      "valueQuantity": {
        "value": 201,
        "unit": "mg/dL"
      }
    },
    "request": {
      "method": "PUT",
      "url": "Observation/20a83edc-4692-4241-bdcb-eb726db389c0"
    }
  }, {
    "fullUrl": "https://madie.cms.gov/Observation/71476378-b0fd-425a-b5af-83fdc53b9069",
    "resource": {
      "resourceType": "Observation",
      "id": "71476378-b0fd-425a-b5af-83fdc53b9069",
      "meta": {
        "profile": [ "http://hl7.org/fhir/us/qicore/StructureDefinition/qicore-observation-lab" ]
      },
      "status": "final",
      "category": [ {
        "coding": [ {
          "system": "http://terminology.hl7.org/CodeSystem/observation-category",
          "code": "laboratory",
          "display": "Laboratory"
        } ]
      } ],
      "code": {
        "coding": [ {
          "system": "http://loinc.org",
          "version": "2.72",
          "code": "1547-9",
          "display": "Glucose Lab Test Mass Per Volume"
        } ]
      },
      "subject": {
        "reference": "Patient/113a6e72-7049-4a7f-90cf-5ec3435b0dee"
      },
      "effectiveDateTime": "2026-07-14T08:00:00.000+00:00",
      "valueQuantity": {
        "value": 0,
        "unit": "mg/dL"
      }
    },
    "request": {
      "method": "PUT",
      "url": "Observation/71476378-b0fd-425a-b5af-83fdc53b9069"
    }
  }, {
    "fullUrl": "https://madie.cms.gov/Observation/4846e0df-1565-4392-a35f-d6f28ec87e66",
    "resource": {
      "resourceType": "Observation",
      "id": "4846e0df-1565-4392-a35f-d6f28ec87e66",
      "meta": {
        "profile": [ "http://hl7.org/fhir/us/qicore/StructureDefinition/qicore-observation-lab" ]
      },
      "status": "final",
      "category": [ {
        "coding": [ {
          "system": "http://terminology.hl7.org/CodeSystem/observation-category",
          "code": "laboratory",
          "display": "Laboratory"
        } ]
      } ],
      "code": {
        "coding": [ {
          "system": "http://loinc.org",
          "version": "2.72",
          "code": "1547-9",
          "display": "Glucose Lab Test Mass Per Volume"
        } ]
      },
      "subject": {
        "reference": "Patient/113a6e72-7049-4a7f-90cf-5ec3435b0dee"
      },
      "effectiveDateTime": "2026-07-13T08:00:00.000+00:00",
      "valueQuantity": {
        "value": 201,
        "unit": "mg/dL"
      }
    },
    "request": {
      "method": "PUT",
      "url": "Observation/4846e0df-1565-4392-a35f-d6f28ec87e66"
    }
  }, {
    "fullUrl": "https://madie.cms.gov/MeasureReport/0ac4f7d5-15a2-4c2f-b38d-c2d2ff7775e2",
    "resource": {
      "resourceType": "MeasureReport",
      "id": "0ac4f7d5-15a2-4c2f-b38d-c2d2ff7775e2",
      "meta": {
        "profile": [ "http://hl7.org/fhir/us/cqfmeasures/StructureDefinition/test-case-cqfm" ]
      },
      "contained": [ {
        "resourceType": "Parameters",
        "id": "f89f13fd-25c1-4aad-b091-2c335057465a-parameters",
        "parameter": [ {
          "name": "subject"
        } ]
      } ],
      "extension": [ {
        "url": "http://hl7.org/fhir/StructureDefinition/cqf-inputParameters",
        "valueReference": {
          "reference": "#f89f13fd-25c1-4aad-b091-2c335057465a-parameters"
        }
      }, {
        "url": "http://hl7.org/fhir/us/cqfmeasures/StructureDefinition/cqfm-testCaseDescription",
        "valueMarkdown": "Encounter with diabetes dx. Glucose on day 4 has value = 0 mg/dL. Previous 2 days have values GT 200 mg/dL. Day 4 is NOT considered a \"no glucose day\". Numerator is therefore not met. Test is to validate CQM 6218 inquiry."
      } ],
      "modifierExtension": [ {
        "url": "http://hl7.org/fhir/us/cqfmeasures/StructureDefinition/cqfm-isTestCase",
        "valueBoolean": true
      } ],
      "status": "complete",
      "type": "individual",
      "measure": "https://madie.cms.gov/Measure/CMS871FHIRHHHyper",
      "period": {
        "start": "2026-01-01",
        "end": "2026-12-31"
      },
      "group": [ {
        "id": "Group_1",
        "population": [ {
          "id": "InitialPopulation_1",
          "code": {
            "coding": [ {
              "system": "http://terminology.hl7.org/CodeSystem/measure-population",
              "code": "initial-population",
              "display": "Initial Population"
            } ]
          },
          "count": 1
        }, {
          "id": "Denominator_1",
          "code": {
            "coding": [ {
              "system": "http://terminology.hl7.org/CodeSystem/measure-population",
              "code": "denominator",
              "display": "Denominator"
            } ]
          },
          "count": 1
        }, {
          "id": "DenominatorExclusion_1",
          "code": {
            "coding": [ {
              "system": "http://terminology.hl7.org/CodeSystem/measure-population",
              "code": "denominator-exclusion",
              "display": "Denominator Exclusion"
            } ]
          },
          "count": 0
        }, {
          "id": "Numerator_1",
          "code": {
            "coding": [ {
              "system": "http://terminology.hl7.org/CodeSystem/measure-population",
              "code": "numerator",
              "display": "Numerator"
            } ]
          },
          "count": 0
        }, {
          "id": "NumeratorExclusion_1",
          "code": {
            "coding": [ {
              "system": "http://terminology.hl7.org/CodeSystem/measure-population",
              "code": "numerator-exclusion",
              "display": "Numerator Exclusion"
            } ]
          },
          "count": 0
        }, {
          "id": "MeasureObservation_1_1_1",
          "code": {
            "coding": [ {
              "system": "http://terminology.hl7.org/CodeSystem/measure-population",
              "code": "measure-observation",
              "display": "Measure Observation"
            } ]
          },
          "count": 4
        } ],
        "measureScore": {
          "value": 0.0
        }
      } ],
      "evaluatedResource": [ {
        "reference": "Condition/af1a9702-d1c2-459a-8a41-15b0e1482f65"
      }, {
        "reference": "Encounter/6f999b90-25dd-4113-b239-f4153b170e09"
      }, {
        "reference": "Patient/null"
      }, {
        "reference": "Observation/20a83edc-4692-4241-bdcb-eb726db389c0"
      }, {
        "reference": "Observation/71476378-b0fd-425a-b5af-83fdc53b9069"
      }, {
        "reference": "Observation/4846e0df-1565-4392-a35f-d6f28ec87e66"
      } ]
    },
    "request": {
      "method": "PUT",
      "url": "MeasureReport/0ac4f7d5-15a2-4c2f-b38d-c2d2ff7775e2"
    }
  } ]
}