{
  "resourceType": "Bundle",
  "id": "617835c74bf8e25b8f204e27",
  "type": "transaction",
  "entry": [ {
    "fullUrl": "https://madie.cms.gov/Patient/18031954-8ff7-4bb0-8d54-b5c88ab9c925",
    "resource": {
      "resourceType": "Patient",
      "id": "18031954-8ff7-4bb0-8d54-b5c88ab9c925",
      "meta": {
        "profile": [ "http://hl7.org/fhir/us/qicore/StructureDefinition/qicore-patient" ]
      },
      "extension": [ {
        "url": "http://hl7.org/fhir/us/core/StructureDefinition/us-core-race",
        "extension": [ {
          "url": "ombCategory",
          "valueCoding": {
            "system": "urn:oid:2.16.840.1.113883.6.238",
            "code": "2076-8",
            "display": "Native Hawaiian or Other Pacific Islander",
            "userSelected": true
          }
        }, {
          "url": "text",
          "valueString": "Native Hawaiian or Other Pacific Islander"
        } ]
      }, {
        "url": "http://hl7.org/fhir/us/core/StructureDefinition/us-core-ethnicity",
        "extension": [ {
          "url": "ombCategory",
          "valueCoding": {
            "system": "urn:oid:2.16.840.1.113883.6.238",
            "code": "2186-5",
            "display": "Not Hispanic or Latino",
            "userSelected": true
          }
        }, {
          "url": "text",
          "valueString": "Not Hispanic or Latino"
        } ]
      }, {
        "url": "http://hl7.org/fhir/us/core/StructureDefinition/us-core-sex",
        "valueCode": "248153007"
      } ],
      "identifier": [ {
        "type": {
          "coding": [ {
            "system": "http://terminology.hl7.org/CodeSystem/v2-0203",
            "code": "MR"
          } ]
        },
        "system": "https://bonnie-fhir.healthit.gov/",
        "value": "617835c74bf8e25b8f204e27"
      } ],
      "name": [ {
        "family": "NumPass",
        "given": [ "Depart45minsfromEDstart" ]
      } ],
      "gender": "female",
      "birthDate": "1985-12-02"
    },
    "request": {
      "method": "PUT",
      "url": "Patient/18031954-8ff7-4bb0-8d54-b5c88ab9c925"
    }
  }, {
    "fullUrl": "https://madie.cms.gov/Encounter/60878b81-9808-4781-b1a2-e7b7266ae0da",
    "resource": {
      "resourceType": "Encounter",
      "id": "60878b81-9808-4781-b1a2-e7b7266ae0da",
      "meta": {
        "profile": [ "http://hl7.org/fhir/us/qicore/StructureDefinition/qicore-encounter" ]
      },
      "status": "finished",
      "class": {
        "system": "http://terminology.hl7.org/CodeSystem/v3-ActCode",
        "code": "EMER",
        "display": "emergency",
        "userSelected": true
      },
      "type": [ {
        "coding": [ {
          "system": "http://snomed.info/sct",
          "version": "2020-09",
          "code": "4525004",
          "display": "Emergency department patient visit (procedure)",
          "userSelected": true
        } ]
      } ],
      "subject": {
        "reference": "Patient/18031954-8ff7-4bb0-8d54-b5c88ab9c925"
      },
      "period": {
        "start": "2026-10-09T08:00:00.000+00:00",
        "end": "2026-10-09T08:50:00.000+00:00"
      },
      "reasonReference": [ {
        "reference": "Condition/001c8d8b-dbc8-49d3-a455-df84d662a67a"
      } ],
      "hospitalization": {
        "dischargeDisposition": {
          "coding": [ {
            "system": "http://snomed.info/sct",
            "version": "2020-09",
            "code": "306703003",
            "display": "Discharge to tertiary referral hospital (procedure)",
            "userSelected": true
          } ]
        }
      },
      "location": [ {
        "location": {
          "reference": "Location/e3e1b756-483d-4bd7-b7c7-a5c98b779cc2"
        },
        "period": {
          "start": "2026-10-09T08:05:00.000+00:00",
          "end": "2026-10-09T08:10:00.000+00:00"
        }
      }, {
        "location": {
          "reference": "Location/d1660102-68f7-41f1-bc0d-c39e2bc21509"
        },
        "period": {
          "start": "2026-10-09T08:11:00.000+00:00",
          "end": "2026-10-09T08:50:00.000+00:00"
        }
      } ]
    },
    "request": {
      "method": "PUT",
      "url": "Encounter/60878b81-9808-4781-b1a2-e7b7266ae0da"
    }
  }, {
    "fullUrl": "https://madie.cms.gov/Location/e3e1b756-483d-4bd7-b7c7-a5c98b779cc2",
    "resource": {
      "resourceType": "Location",
      "id": "e3e1b756-483d-4bd7-b7c7-a5c98b779cc2",
      "meta": {
        "profile": [ "http://hl7.org/fhir/us/qicore/StructureDefinition/qicore-location" ]
      },
      "identifier": [ {
        "use": "usual",
        "system": "http://exampleoflocation.com",
        "value": "ED-1.R3"
      } ],
      "name": "Emergency Department, first floor",
      "type": [ {
        "coding": [ {
          "system": "http://terminology.hl7.org/CodeSystem/v3-RoleCode",
          "version": "2019",
          "code": "ER",
          "display": "Emergency room",
          "userSelected": true
        } ]
      } ]
    },
    "request": {
      "method": "PUT",
      "url": "Location/e3e1b756-483d-4bd7-b7c7-a5c98b779cc2"
    }
  }, {
    "fullUrl": "https://madie.cms.gov/Location/d1660102-68f7-41f1-bc0d-c39e2bc21509",
    "resource": {
      "resourceType": "Location",
      "id": "d1660102-68f7-41f1-bc0d-c39e2bc21509",
      "meta": {
        "profile": [ "http://hl7.org/fhir/us/qicore/StructureDefinition/qicore-location" ]
      },
      "identifier": [ {
        "use": "usual",
        "system": "http://exampleoflocation.com",
        "value": "ED-1.R3"
      } ],
      "name": "Emergency Department, first floor",
      "type": [ {
        "coding": [ {
          "system": "http://snomed.info/sct",
          "version": "20210611",
          "code": "4525004",
          "display": "Emergency department patient visit (procedure)",
          "userSelected": true
        } ]
      }, {
        "coding": [ {
          "system": "http://terminology.hl7.org/CodeSystem/v3-RoleCode",
          "version": "2019",
          "code": "ER",
          "display": "Emergency room",
          "userSelected": true
        } ]
      } ]
    },
    "request": {
      "method": "PUT",
      "url": "Location/d1660102-68f7-41f1-bc0d-c39e2bc21509"
    }
  }, {
    "fullUrl": "https://madie.cms.gov/Condition/001c8d8b-dbc8-49d3-a455-df84d662a67a",
    "resource": {
      "resourceType": "Condition",
      "id": "001c8d8b-dbc8-49d3-a455-df84d662a67a",
      "meta": {
        "profile": [ "http://hl7.org/fhir/us/qicore/StructureDefinition/qicore-condition-encounter-diagnosis" ]
      },
      "clinicalStatus": {
        "coding": [ {
          "system": "http://terminology.hl7.org/CodeSystem/condition-clinical",
          "code": "active",
          "display": "active",
          "userSelected": true
        } ]
      },
      "category": [ {
        "coding": [ {
          "system": "http://terminology.hl7.org/CodeSystem/condition-category",
          "code": "encounter-diagnosis",
          "display": "Encounter Diagnosis",
          "userSelected": true
        } ]
      } ],
      "code": {
        "coding": [ {
          "system": "http://hl7.org/fhir/sid/icd-10-cm",
          "code": "I21.3",
          "userSelected": true
        } ]
      },
      "subject": {
        "reference": "Patient/18031954-8ff7-4bb0-8d54-b5c88ab9c925"
      },
      "onsetDateTime": "2026-10-09T08:11:00.000+00:00"
    },
    "request": {
      "method": "PUT",
      "url": "Condition/001c8d8b-dbc8-49d3-a455-df84d662a67a"
    }
  }, {
    "fullUrl": "https://madie.cms.gov/MeasureReport/af6a4031-318b-4105-8367-bad12df53039",
    "resource": {
      "resourceType": "MeasureReport",
      "id": "af6a4031-318b-4105-8367-bad12df53039",
      "meta": {
        "profile": [ "http://hl7.org/fhir/us/cqfmeasures/StructureDefinition/test-case-cqfm" ]
      },
      "contained": [ {
        "resourceType": "Parameters",
        "id": "51de84a3-273a-4a72-a2cb-7d42b887c60a-parameters",
        "parameter": [ {
          "name": "subject",
          "valueString": "18031954-8ff7-4bb0-8d54-b5c88ab9c925"
        } ]
      } ],
      "extension": [ {
        "url": "http://hl7.org/fhir/StructureDefinition/cqf-inputParameters",
        "valueReference": {
          "reference": "#51de84a3-273a-4a72-a2cb-7d42b887c60a-parameters"
        }
      }, {
        "url": "http://hl7.org/fhir/us/cqfmeasures/StructureDefinition/cqfm-testCaseDescription",
        "valueMarkdown": "ED ends 45 minutes after start time to be transferred to acute care facility. Multiple locations"
      } ],
      "modifierExtension": [ {
        "url": "http://hl7.org/fhir/us/cqfmeasures/StructureDefinition/cqfm-isTestCase",
        "valueBoolean": true
      } ],
      "status": "complete",
      "type": "individual",
      "measure": "https://madie.cms.gov/Measure/CMS996FHIRAptTxforSTEMI",
      "period": {
        "start": "2026-01-01",
        "end": "2026-12-31"
      },
      "group": [ {
        "id": "Group_1",
        "population": [ {
          "id": "InitialPopulation_1",
          "code": {
            "coding": [ {
              "system": "http://terminology.hl7.org/CodeSystem/measure-population",
              "code": "initial-population",
              "display": "Initial Population"
            } ]
          },
          "count": 1
        }, {
          "id": "Denominator_1",
          "code": {
            "coding": [ {
              "system": "http://terminology.hl7.org/CodeSystem/measure-population",
              "code": "denominator",
              "display": "Denominator"
            } ]
          },
          "count": 1
        }, {
          "id": "DenominatorExclusion_1",
          "code": {
            "coding": [ {
              "system": "http://terminology.hl7.org/CodeSystem/measure-population",
              "code": "denominator-exclusion",
              "display": "Denominator Exclusion"
            } ]
          },
          "count": 0
        }, {
          "id": "Numerator_1",
          "code": {
            "coding": [ {
              "system": "http://terminology.hl7.org/CodeSystem/measure-population",
              "code": "numerator",
              "display": "Numerator"
            } ]
          },
          "count": 1
        }, {
          "id": "DenominatorException_1",
          "code": {
            "coding": [ {
              "system": "http://terminology.hl7.org/CodeSystem/measure-population",
              "code": "denominator-exception",
              "display": "Denominator Exception"
            } ]
          },
          "count": 0
        } ],
        "measureScore": {
          "value": 0.0
        }
      } ],
      "evaluatedResource": [ {
        "reference": "Patient/18031954-8ff7-4bb0-8d54-b5c88ab9c925"
      }, {
        "reference": "Encounter/60878b81-9808-4781-b1a2-e7b7266ae0da"
      }, {
        "reference": "Location/e3e1b756-483d-4bd7-b7c7-a5c98b779cc2"
      }, {
        "reference": "Location/d1660102-68f7-41f1-bc0d-c39e2bc21509"
      }, {
        "reference": "Condition/001c8d8b-dbc8-49d3-a455-df84d662a67a"
      } ]
    },
    "request": {
      "method": "PUT",
      "url": "MeasureReport/af6a4031-318b-4105-8367-bad12df53039"
    }
  } ]
}