{
  "resourceType": "Bundle",
  "id": "60abda28bf0a01003e3f76bd",
  "type": "collection",
  "entry": [ {
    "fullUrl": "https://madie.cms.gov/Patient/77b28b84-d0aa-4aa8-9a07-2922938394de",
    "resource": {
      "resourceType": "Patient",
      "id": "77b28b84-d0aa-4aa8-9a07-2922938394de",
      "meta": {
        "profile": [ "http://hl7.org/fhir/us/qicore/StructureDefinition/qicore-patient" ]
      },
      "extension": [ {
        "url": "http://hl7.org/fhir/us/core/StructureDefinition/us-core-race",
        "extension": [ {
          "url": "ombCategory",
          "valueCoding": {
            "system": "urn:oid:2.16.840.1.113883.6.238",
            "code": "2054-5",
            "display": "Black or African American"
          }
        }, {
          "url": "text",
          "valueString": "Black or African American"
        } ]
      }, {
        "url": "http://hl7.org/fhir/us/core/StructureDefinition/us-core-ethnicity",
        "extension": [ {
          "url": "ombCategory",
          "valueCoding": {
            "system": "urn:oid:2.16.840.1.113883.6.238",
            "code": "2186-5",
            "display": "Not Hispanic or Latino"
          }
        }, {
          "url": "text",
          "valueString": "Not Hispanic or Latino"
        } ]
      }, {
        "url": "http://hl7.org/fhir/us/core/StructureDefinition/us-core-sex",
        "valueCode": "248153007"
      } ],
      "identifier": [ {
        "type": {
          "coding": [ {
            "system": "http://terminology.hl7.org/CodeSystem/v2-0203",
            "code": "MR"
          } ]
        },
        "system": "https://bonnie-fhir.healthit.gov/",
        "value": "463131313187656"
      } ],
      "name": [ {
        "family": "NUMERFail",
        "given": [ "DEXA3MonthsAfterADTEdge" ]
      } ],
      "gender": "male",
      "birthDate": "1930-06-15"
    }
  }, {
    "fullUrl": "https://madie.cms.gov/Encounter/6ca72a38-6e05-46fd-8ea9-dd2cf0b3ec84",
    "resource": {
      "resourceType": "Encounter",
      "id": "6ca72a38-6e05-46fd-8ea9-dd2cf0b3ec84",
      "meta": {
        "profile": [ "http://hl7.org/fhir/us/qicore/StructureDefinition/qicore-encounter" ]
      },
      "status": "finished",
      "class": {
        "system": "http://terminology.hl7.org/CodeSystem/v3-ActCode",
        "code": "AMB",
        "display": "ambulatory"
      },
      "type": [ {
        "coding": [ {
          "system": "http://snomed.info/sct",
          "version": "http://snomed.info/sct/731000124108/version/20240301",
          "code": "185463005",
          "display": "Visit out of hours (procedure)"
        } ]
      } ],
      "subject": {
        "reference": "Patient/77b28b84-d0aa-4aa8-9a07-2922938394de"
      },
      "period": {
        "start": "2026-02-04T08:00:00.000Z",
        "end": "2026-02-04T08:15:00.000Z"
      }
    }
  }, {
    "fullUrl": "https://madie.cms.gov/Condition/f958c4aa-9336-49af-ad06-2a13adc77305",
    "resource": {
      "resourceType": "Condition",
      "id": "f958c4aa-9336-49af-ad06-2a13adc77305",
      "meta": {
        "profile": [ "http://hl7.org/fhir/us/qicore/StructureDefinition/qicore-condition-problems-health-concerns" ]
      },
      "clinicalStatus": {
        "coding": [ {
          "system": "http://terminology.hl7.org/CodeSystem/condition-clinical",
          "code": "active",
          "display": "Active",
          "userSelected": true
        } ]
      },
      "verificationStatus": {
        "coding": [ {
          "system": "http://terminology.hl7.org/CodeSystem/condition-ver-status",
          "code": "confirmed"
        } ]
      },
      "category": [ {
        "coding": [ {
          "system": "http://terminology.hl7.org/CodeSystem/condition-category",
          "code": "problem-list-item",
          "display": "Problem List Item"
        } ]
      } ],
      "code": {
        "coding": [ {
          "system": "http://snomed.info/sct",
          "version": "http://snomed.info/sct/731000124108/version/20250301",
          "code": "254900004",
          "display": "Carcinoma of prostate (disorder)"
        } ]
      },
      "subject": {
        "reference": "Patient/77b28b84-d0aa-4aa8-9a07-2922938394de"
      },
      "onsetPeriod": {
        "start": "2026-02-04T08:00:00.000Z"
      }
    }
  }, {
    "fullUrl": "https://madie.cms.gov/Observation/e3f21145-beb3-429d-952e-65e1811704e3",
    "resource": {
      "resourceType": "Observation",
      "id": "e3f21145-beb3-429d-952e-65e1811704e3",
      "meta": {
        "profile": [ "http://hl7.org/fhir/us/qicore/StructureDefinition/qicore-observation-clinical-result" ]
      },
      "status": "final",
      "category": [ {
        "coding": [ {
          "system": "http://terminology.hl7.org/CodeSystem/observation-category",
          "code": "imaging",
          "display": "Imaging"
        } ]
      }, {
        "coding": [ {
          "system": "http://terminology.hl7.org/CodeSystem/observation-category",
          "code": "survey"
        } ]
      } ],
      "code": {
        "coding": [ {
          "system": "http://loinc.org",
          "version": "2.80",
          "code": "24701-5",
          "display": "DXA Femur [Mass/Area] Bone density"
        } ]
      },
      "subject": {
        "reference": "Patient/77b28b84-d0aa-4aa8-9a07-2922938394de"
      },
      "effectivePeriod": {
        "start": "2026-05-01T10:00:00.000Z"
      },
      "dataAbsentReason": {
        "coding": [ {
          "system": "http://terminology.hl7.org/CodeSystem/data-absent-reason",
          "code": "unknown",
          "display": "Unknown"
        } ]
      }
    }
  }, {
    "fullUrl": "https://madie.cms.gov/Practitioner/593481c3-6e47-473c-8d90-80d90f8abc4c",
    "resource": {
      "resourceType": "Practitioner",
      "id": "593481c3-6e47-473c-8d90-80d90f8abc4c",
      "meta": {
        "profile": [ "http://hl7.org/fhir/us/qicore/StructureDefinition/qicore-practitioner" ]
      },
      "identifier": [ {
        "use": "temp",
        "system": "urn:oid:2.16.840.1.113883.4.336",
        "value": "Practitioner-23"
      } ],
      "active": true,
      "name": [ {
        "family": "Careful",
        "given": [ "Adam" ],
        "prefix": [ "Dr" ]
      } ],
      "address": [ {
        "use": "home",
        "line": [ "534 Erewhon St" ],
        "city": "PleasantVille",
        "state": "UT",
        "postalCode": "84414"
      } ],
      "qualification": [ {
        "identifier": [ {
          "system": "http://example.org/UniversityIdentifier",
          "value": "12345"
        } ],
        "code": {
          "coding": [ {
            "system": "http://terminology.hl7.org/CodeSystem/v2-0360|2.7",
            "code": "BS",
            "display": "Bachelor of Science"
          } ],
          "text": "Bachelor of Science"
        },
        "period": {
          "start": "1996"
        },
        "issuer": {
          "display": "Example University"
        }
      } ]
    }
  }, {
    "fullUrl": "https://madie.cms.gov/MedicationRequest/fa10ac1d-657a-403e-a526-56aa104b9174",
    "resource": {
      "resourceType": "MedicationRequest",
      "id": "fa10ac1d-657a-403e-a526-56aa104b9174",
      "meta": {
        "profile": [ "http://hl7.org/fhir/us/qicore/StructureDefinition/qicore-medicationrequest" ]
      },
      "status": "active",
      "intent": "order",
      "medicationCodeableConcept": {
        "coding": [ {
          "system": "http://www.nlm.nih.gov/research/umls/rxnorm",
          "version": "06052023",
          "code": "1115257",
          "display": "1.5 ML leuprolide acetate 30 MG/ML Prefilled Syringe"
        } ]
      },
      "subject": {
        "reference": "Patient/77b28b84-d0aa-4aa8-9a07-2922938394de"
      },
      "authoredOn": "2026-02-04T08:00:00.000Z",
      "requester": {
        "reference": "http://myGoodHealthcare.com/fhir/Practitioner/593481c3-6e47-473c-8d90-80d90f8abc4c"
      },
      "dosageInstruction": [ {
        "timing": {
          "repeat": {
            "boundsPeriod": {
              "start": "2026-02-04T08:00:00.000Z",
              "end": "2026-03-04T08:00:00.000Z"
            }
          }
        }
      } ]
    }
  }, {
    "fullUrl": "https://madie.cms.gov/ServiceRequest/41fda3af-4730-41dd-9eff-25a54d8b613f",
    "resource": {
      "resourceType": "ServiceRequest",
      "id": "41fda3af-4730-41dd-9eff-25a54d8b613f",
      "meta": {
        "profile": [ "http://hl7.org/fhir/us/qicore/StructureDefinition/qicore-servicerequest" ]
      },
      "status": "active",
      "intent": "order",
      "code": {
        "coding": [ {
          "system": "http://snomed.info/sct",
          "version": "http://snomed.info/sct/731000124108/version/20250301",
          "code": "456381000124102",
          "display": "Injection of leuprolide acetate for twelve month period (regime/therapy)"
        } ]
      },
      "subject": {
        "reference": "Patient/77b28b84-d0aa-4aa8-9a07-2922938394de"
      },
      "authoredOn": "2026-02-04T08:00:00.000Z"
    }
  }, {
    "fullUrl": "https://madie.cms.gov/MeasureReport/2d0c0a48-7c50-4d41-ae32-8c59c427b2f9",
    "resource": {
      "resourceType": "MeasureReport",
      "id": "2d0c0a48-7c50-4d41-ae32-8c59c427b2f9",
      "meta": {
        "profile": [ "http://hl7.org/fhir/us/cqfmeasures/StructureDefinition/test-case-cqfm" ]
      },
      "contained": [ {
        "resourceType": "Parameters",
        "id": "ff78f695-67b7-44aa-a544-d895779ed3a2-parameters",
        "parameter": [ {
          "name": "subject",
          "valueString": "77b28b84-d0aa-4aa8-9a07-2922938394de"
        } ]
      } ],
      "extension": [ {
        "url": "http://hl7.org/fhir/StructureDefinition/cqf-inputParameters",
        "valueReference": {
          "reference": "#ff78f695-67b7-44aa-a544-d895779ed3a2-parameters"
        }
      }, {
        "url": "http://hl7.org/fhir/us/cqfmeasures/StructureDefinition/cqfm-testCaseDescription",
        "valueMarkdown": "Dx of Prostate Cancer. DEXA is within 3 month period, but uses Invalid Code.  Fails NUMER criteria."
      } ],
      "modifierExtension": [ {
        "url": "http://hl7.org/fhir/us/cqfmeasures/StructureDefinition/cqfm-isTestCase",
        "valueBoolean": true
      } ],
      "status": "complete",
      "type": "individual",
      "measure": "https://madie.cms.gov/Measure/CMS645FHIRBoneDensityPCADTherapy",
      "period": {
        "start": "2026-01-01",
        "end": "2026-12-31"
      },
      "group": [ {
        "id": "Group_1",
        "population": [ {
          "id": "InitialPopulation_1",
          "code": {
            "coding": [ {
              "system": "http://terminology.hl7.org/CodeSystem/measure-population",
              "code": "initial-population",
              "display": "Initial Population"
            } ]
          },
          "count": 1
        }, {
          "id": "Denominator_1",
          "code": {
            "coding": [ {
              "system": "http://terminology.hl7.org/CodeSystem/measure-population",
              "code": "denominator",
              "display": "Denominator"
            } ]
          },
          "count": 1
        }, {
          "id": "Numerator_1",
          "code": {
            "coding": [ {
              "system": "http://terminology.hl7.org/CodeSystem/measure-population",
              "code": "numerator",
              "display": "Numerator"
            } ]
          },
          "count": 0
        }, {
          "id": "DenominatorException_1",
          "code": {
            "coding": [ {
              "system": "http://terminology.hl7.org/CodeSystem/measure-population",
              "code": "denominator-exception",
              "display": "Denominator Exception"
            } ]
          },
          "count": 0
        } ],
        "measureScore": {
          "value": 1.0
        }
      } ],
      "evaluatedResource": [ {
        "reference": "Patient/77b28b84-d0aa-4aa8-9a07-2922938394de"
      }, {
        "reference": "Encounter/6ca72a38-6e05-46fd-8ea9-dd2cf0b3ec84"
      }, {
        "reference": "Condition/f958c4aa-9336-49af-ad06-2a13adc77305"
      }, {
        "reference": "Observation/e3f21145-beb3-429d-952e-65e1811704e3"
      }, {
        "reference": "Practitioner/593481c3-6e47-473c-8d90-80d90f8abc4c"
      }, {
        "reference": "MedicationRequest/fa10ac1d-657a-403e-a526-56aa104b9174"
      }, {
        "reference": "ServiceRequest/41fda3af-4730-41dd-9eff-25a54d8b613f"
      } ]
    }
  } ]
}