{
  "resourceType": "Bundle",
  "id": "657cbdc9b4f1f0343662347a",
  "type": "transaction",
  "entry": [ {
    "fullUrl": "https://madie.cms.gov/Patient/84f623e8-b488-4ca8-acb5-ed8fae38d43d",
    "resource": {
      "resourceType": "Patient",
      "id": "84f623e8-b488-4ca8-acb5-ed8fae38d43d",
      "meta": {
        "profile": [ "http://hl7.org/fhir/us/qicore/StructureDefinition/qicore-patient" ]
      },
      "extension": [ {
        "url": "http://hl7.org/fhir/us/core/StructureDefinition/us-core-race",
        "extension": [ {
          "url": "ombCategory",
          "valueCoding": {
            "system": "urn:oid:2.16.840.1.113883.6.238",
            "code": "2106-3",
            "display": "White",
            "userSelected": true
          }
        }, {
          "url": "text",
          "valueString": "White"
        } ]
      }, {
        "url": "http://hl7.org/fhir/us/core/StructureDefinition/us-core-ethnicity",
        "extension": [ {
          "url": "ombCategory",
          "valueCoding": {
            "system": "urn:oid:2.16.840.1.113883.6.238",
            "code": "2186-5",
            "display": "Not Hispanic or Latino",
            "userSelected": true
          }
        }, {
          "url": "text",
          "valueString": "Not Hispanic or Latino"
        } ]
      } ],
      "identifier": [ {
        "type": {
          "coding": [ {
            "system": "http://terminology.hl7.org/CodeSystem/v2-0203",
            "code": "MR"
          } ]
        },
        "system": "https://bonnie-fhir.healthit.gov/",
        "value": "657cbdc9b4f1f0343662347a"
      } ],
      "name": [ {
        "family": "MedicationAdministrationPass",
        "given": [ "MedicationAdministrationAttributes" ]
      } ],
      "gender": "female",
      "birthDate": "2008-01-01"
    },
    "request": {
      "method": "PUT",
      "url": "Patient/84f623e8-b488-4ca8-acb5-ed8fae38d43d"
    }
  }, {
    "fullUrl": "https://madie.cms.gov/Encounter/ac866e2c-983a-474b-866a-bef1e69f9bab",
    "resource": {
      "resourceType": "Encounter",
      "id": "ac866e2c-983a-474b-866a-bef1e69f9bab",
      "meta": {
        "profile": [ "http://hl7.org/fhir/us/qicore/StructureDefinition/qicore-encounter" ]
      },
      "status": "finished",
      "class": {
        "system": "http://terminology.hl7.org/CodeSystem/v3-ActCode",
        "code": "ACUTE",
        "display": "inpatient acute"
      },
      "type": [ {
        "coding": [ {
          "system": "http://snomed.info/sct",
          "version": "2024",
          "code": "32485007",
          "display": "Hospital admission (procedure)",
          "userSelected": true
        } ]
      } ],
      "subject": {
        "reference": "Patient/84f623e8-b488-4ca8-acb5-ed8fae38d43d"
      },
      "period": {
        "start": "2026-01-01T08:00:00.000Z",
        "end": "2026-01-02T09:15:00.000Z"
      },
      "diagnosis": [ {
        "condition": {
          "reference": "Condition/96515cbe-4dfe-43a9-97c9-49bf5aab7b66"
        },
        "use": {
          "coding": [ {
            "system": "http://terminology.hl7.org/CodeSystem/diagnosis-role",
            "code": "billing"
          } ]
        },
        "rank": 1
      } ]
    },
    "request": {
      "method": "PUT",
      "url": "Encounter/ac866e2c-983a-474b-866a-bef1e69f9bab"
    }
  }, {
    "fullUrl": "https://madie.cms.gov/Location/6910cd3b-662d-4a55-aecd-53541e607e46",
    "resource": {
      "resourceType": "Location",
      "id": "6910cd3b-662d-4a55-aecd-53541e607e46",
      "meta": {
        "profile": [ "http://hl7.org/fhir/us/qicore/StructureDefinition/qicore-location" ]
      },
      "identifier": [ {
        "use": "usual",
        "system": "http://exampleoflocation.com",
        "value": "B1-S.F2"
      } ],
      "name": "Medical Surgical East, first floor",
      "type": [ {
        "coding": [ {
          "system": "https://www.cdc.gov/nhsn/cdaportal/terminology/codesystem/hsloc.html",
          "code": "1028-0",
          "display": "Medical Cardiac Critical Care",
          "userSelected": true
        } ]
      } ]
    },
    "request": {
      "method": "PUT",
      "url": "Location/6910cd3b-662d-4a55-aecd-53541e607e46"
    }
  }, {
    "fullUrl": "https://madie.cms.gov/MedicationRequest/90902fac-ed34-4162-a523-b1c510b7c703",
    "resource": {
      "resourceType": "MedicationRequest",
      "id": "90902fac-ed34-4162-a523-b1c510b7c703",
      "meta": {
        "profile": [ "http://hl7.org/fhir/us/qicore/StructureDefinition/qicore-medicationrequest" ]
      },
      "status": "completed",
      "intent": "order",
      "category": [ {
        "coding": [ {
          "system": "http://terminology.hl7.org/CodeSystem/medication-admin-category",
          "code": "inpatient",
          "display": "Inpatient"
        } ],
        "text": "Inpatient"
      } ],
      "medicationCodeableConcept": {
        "coding": [ {
          "system": "http://www.nlm.nih.gov/research/umls/rxnorm",
          "version": "06052023",
          "code": "1007184"
        } ]
      },
      "subject": {
        "reference": "Patient/84f623e8-b488-4ca8-acb5-ed8fae38d43d"
      },
      "authoredOn": "2026-01-01T08:15:00.000Z",
      "requester": {
        "reference": "Practitioner/33d87640-6b2a-40b0-ab11-542478a88d5a"
      },
      "dosageInstruction": [ {
        "timing": {
          "repeat": {
            "boundsPeriod": {
              "start": "2025-01-01T08:15:00.000Z"
            }
          }
        }
      } ]
    },
    "request": {
      "method": "PUT",
      "url": "MedicationRequest/90902fac-ed34-4162-a523-b1c510b7c703"
    }
  }, {
    "fullUrl": "https://madie.cms.gov/Medication/f35762dd-d870-400b-9693-5629075e9977",
    "resource": {
      "resourceType": "Medication",
      "id": "f35762dd-d870-400b-9693-5629075e9977",
      "meta": {
        "profile": [ "http://hl7.org/fhir/us/qicore/StructureDefinition/qicore-medication" ]
      },
      "code": {
        "coding": [ {
          "system": "http://www.nlm.nih.gov/research/umls/rxnorm",
          "code": "1007184",
          "display": "insulin aspart protamine, human / insulin aspart, human"
        } ]
      },
      "status": "active",
      "manufacturer": {
        "reference": "Organization/c1a94575-2118-4f59-9746-7e131bf3e520"
      },
      "form": {
        "coding": [ {
          "system": "http://snomed.info/sct",
          "code": "385219001",
          "display": "Conventional release solution for injection (dose form)"
        } ]
      },
      "ingredient": [ {
        "itemCodeableConcept": {
          "coding": [ {
            "system": "http://snomed.info/sct",
            "code": "420609005",
            "display": "Human regular insulin (substance)"
          } ]
        },
        "strength": {
          "numerator": {
            "value": 12,
            "system": "http://unitsofmeasure.org",
            "code": "mg"
          },
          "denominator": {
            "value": 1.2,
            "system": "http://unitsofmeasure.org",
            "code": "mL"
          }
        }
      } ],
      "batch": {
        "lotNumber": "9494788",
        "expirationDate": "2026-05-22"
      }
    },
    "request": {
      "method": "PUT",
      "url": "Medication/f35762dd-d870-400b-9693-5629075e9977"
    }
  }, {
    "fullUrl": "https://madie.cms.gov/MedicationAdministration/1a5484e9-a1dd-4cf2-a1e5-2c6e0f1cc4b8",
    "resource": {
      "resourceType": "MedicationAdministration",
      "id": "1a5484e9-a1dd-4cf2-a1e5-2c6e0f1cc4b8",
      "meta": {
        "profile": [ "http://hl7.org/fhir/us/qicore/StructureDefinition/qicore-medicationadministration" ]
      },
      "instantiates": [ "http://www.bccancer.bc.ca/chemotherapy-protocols-site/Documents/Lymphoma-Myeloma/ULYBRENTUX%20Protocol_1Jun2017.pdf" ],
      "partOf": [ {
        "reference": "Procedure/biopsy"
      } ],
      "status": "completed",
      "statusReason": [ {
        "coding": [ {
          "system": "http://snomed.info/sct",
          "code": "373147003",
          "display": "Administration of medication not done due to contraindication (situation)"
        } ]
      } ],
      "category": {
        "coding": [ {
          "system": "http://terminology.hl7.org/CodeSystem/medicationrequest-category",
          "code": "inpatient",
          "display": "Inpatient"
        } ]
      },
      "medicationReference": {
        "reference": "Medication/f35762dd-d870-400b-9693-5629075e9977"
      },
      "subject": {
        "reference": "Patient/84f623e8-b488-4ca8-acb5-ed8fae38d43d"
      },
      "context": {
        "reference": "Encounter/0195917c-35dc-7667-a14f-1bc2c7481b78"
      },
      "supportingInformation": [ {
        "reference": "Condition/019595f8-e3af-7a05-bd02-cb1d0344a4b5"
      } ],
      "effectivePeriod": {
        "start": "2026-01-01T10:05:00.000Z",
        "end": "2026-01-01T10:10:00.000Z"
      },
      "performer": [ {
        "actor": {
          "reference": "Practitioner/f007",
          "display": "Patrick Pump"
        }
      } ],
      "reasonCode": [ {
        "coding": [ {
          "system": "http://snomed.info/sct",
          "code": "183932001",
          "display": "Procedure contraindicated (situation)",
          "userSelected": true
        } ]
      } ],
      "reasonReference": [ {
        "reference": "Condition/f201",
        "display": "condition for prescribing this medication"
      } ],
      "request": {
        "reference": "MedicationRequest/medrx0305"
      },
      "device": [ {
        "reference": "Device/f001"
      } ],
      "note": [ {
        "text": "Patient started Bupropion this morning - will administer in a reduced dose tomorrow"
      } ],
      "dosage": {
        "route": {
          "coding": [ {
            "system": "http://snomed.info/sct",
            "code": "26643006",
            "display": "Oral route (qualifier value)"
          } ]
        },
        "dose": {
          "value": 600,
          "unit": "mg",
          "system": "http://unitsofmeasure.org",
          "code": "mg"
        }
      }
    },
    "request": {
      "method": "PUT",
      "url": "MedicationAdministration/1a5484e9-a1dd-4cf2-a1e5-2c6e0f1cc4b8"
    }
  }, {
    "fullUrl": "https://madie.cms.gov/Coverage/591523dc-2ebc-45f9-ab0f-eba85339e603",
    "resource": {
      "resourceType": "Coverage",
      "id": "591523dc-2ebc-45f9-ab0f-eba85339e603",
      "meta": {
        "profile": [ "http://hl7.org/fhir/us/qicore/StructureDefinition/qicore-coverage" ]
      },
      "identifier": [ {
        "system": "http://benefitsinc.com/certificate",
        "value": "12345"
      } ],
      "status": "active",
      "type": {
        "coding": [ {
          "system": "https://nahdo.org/sopt",
          "version": "1.0.1",
          "code": "1",
          "display": "MEDICARE",
          "userSelected": true
        } ]
      },
      "subscriberId": "AB9876",
      "beneficiary": {
        "reference": "Patient/84f623e8-b488-4ca8-acb5-ed8fae38d43d"
      },
      "relationship": {
        "coding": [ {
          "system": "http://terminology.hl7.org/CodeSystem/subscriber-relationship",
          "code": "self"
        } ]
      },
      "payor": [ {
        "reference": "Organization/c1a94575-2118-4f59-9746-7e131bf3e520"
      } ]
    },
    "request": {
      "method": "PUT",
      "url": "Coverage/591523dc-2ebc-45f9-ab0f-eba85339e603"
    }
  }, {
    "fullUrl": "https://madie.cms.gov/Organization/c1a94575-2118-4f59-9746-7e131bf3e520",
    "resource": {
      "resourceType": "Organization",
      "id": "c1a94575-2118-4f59-9746-7e131bf3e520",
      "meta": {
        "profile": [ "http://hl7.org/fhir/us/qicore/StructureDefinition/qicore-organization" ]
      },
      "identifier": [ {
        "use": "temp",
        "system": "urn:oid:2.16.840.1.113883.4.4",
        "value": "21-3259825"
      } ],
      "active": true,
      "type": [ {
        "coding": [ {
          "system": "http://terminology.hl7.org/CodeSystem/organization-type",
          "code": "pay",
          "display": "Payer"
        } ]
      } ],
      "name": "Blue Cross Blue Shield of Texas",
      "telecom": [ {
        "system": "phone",
        "value": "(+1) 972-766-6900"
      } ],
      "address": [ {
        "use": "billing",
        "type": "postal",
        "line": [ "P.O. Box 660044" ],
        "city": "Dallas",
        "state": "TX",
        "postalCode": "75266-0044",
        "country": "USA"
      } ]
    },
    "request": {
      "method": "PUT",
      "url": "Organization/c1a94575-2118-4f59-9746-7e131bf3e520"
    }
  }, {
    "fullUrl": "https://madie.cms.gov/Practitioner/bcef8bad-5431-467e-a7fe-26af28d91beb",
    "resource": {
      "resourceType": "Practitioner",
      "id": "bcef8bad-5431-467e-a7fe-26af28d91beb",
      "meta": {
        "profile": [ "http://hl7.org/fhir/us/qicore/StructureDefinition/qicore-practitioner" ]
      },
      "identifier": [ {
        "system": "http://hl7.org/fhir/sid/us-npi",
        "value": "0723660813"
      } ],
      "name": [ {
        "family": "Evil",
        "prefix": [ "Dr" ]
      } ]
    },
    "request": {
      "method": "PUT",
      "url": "Practitioner/bcef8bad-5431-467e-a7fe-26af28d91beb"
    }
  }, {
    "fullUrl": "https://madie.cms.gov/MeasureReport/32fb3319-0274-45ae-b283-12b2fb032be7",
    "resource": {
      "resourceType": "MeasureReport",
      "id": "32fb3319-0274-45ae-b283-12b2fb032be7",
      "meta": {
        "profile": [ "http://hl7.org/fhir/us/cqfmeasures/StructureDefinition/test-case-cqfm" ]
      },
      "contained": [ {
        "resourceType": "Parameters",
        "id": "bcfe7d47-6200-4dae-898f-b0e92eb571a8-parameters",
        "parameter": [ {
          "name": "subject",
          "valueString": "84f623e8-b488-4ca8-acb5-ed8fae38d43d"
        } ]
      } ],
      "extension": [ {
        "url": "http://hl7.org/fhir/StructureDefinition/cqf-inputParameters",
        "valueReference": {
          "reference": "#bcfe7d47-6200-4dae-898f-b0e92eb571a8-parameters"
        }
      }, {
        "url": "http://hl7.org/fhir/us/cqfmeasures/StructureDefinition/cqfm-testCaseDescription",
        "valueMarkdown": "Testing Medication Administration attributes"
      } ],
      "modifierExtension": [ {
        "url": "http://hl7.org/fhir/us/cqfmeasures/StructureDefinition/cqfm-isTestCase",
        "valueBoolean": true
      } ],
      "status": "complete",
      "type": "individual",
      "measure": "https://madie.cms.gov/Measure/NHSNGlycemicControlHypoglycemiaInitialPopulation",
      "period": {
        "start": "2026-01-01",
        "end": "2026-12-31"
      },
      "group": [ {
        "id": "Group_1",
        "population": [ {
          "id": "InitialPopulation_1",
          "code": {
            "coding": [ {
              "system": "http://terminology.hl7.org/CodeSystem/measure-population",
              "code": "initial-population",
              "display": "Initial Population"
            } ]
          },
          "count": 1
        } ],
        "measureScore": {
          "value": 0.0
        }
      } ],
      "evaluatedResource": [ {
        "reference": "Patient/84f623e8-b488-4ca8-acb5-ed8fae38d43d"
      }, {
        "reference": "Encounter/ac866e2c-983a-474b-866a-bef1e69f9bab"
      }, {
        "reference": "Location/6910cd3b-662d-4a55-aecd-53541e607e46"
      }, {
        "reference": "MedicationRequest/90902fac-ed34-4162-a523-b1c510b7c703"
      }, {
        "reference": "Medication/f35762dd-d870-400b-9693-5629075e9977"
      }, {
        "reference": "MedicationAdministration/1a5484e9-a1dd-4cf2-a1e5-2c6e0f1cc4b8"
      }, {
        "reference": "Coverage/591523dc-2ebc-45f9-ab0f-eba85339e603"
      }, {
        "reference": "Organization/c1a94575-2118-4f59-9746-7e131bf3e520"
      }, {
        "reference": "Practitioner/bcef8bad-5431-467e-a7fe-26af28d91beb"
      } ]
    },
    "request": {
      "method": "PUT",
      "url": "MeasureReport/32fb3319-0274-45ae-b283-12b2fb032be7"
    }
  } ]
}