{
  "resourceType": "Bundle",
  "id": "612e6b5002c62a011f2ed433",
  "type": "transaction",
  "entry": [ {
    "fullUrl": "https://madie.cms.gov/Patient/1701c7fe-de21-4bb9-8404-92cb1ef4e638",
    "resource": {
      "resourceType": "Patient",
      "id": "1701c7fe-de21-4bb9-8404-92cb1ef4e638",
      "meta": {
        "profile": [ "http://hl7.org/fhir/us/qicore/StructureDefinition/qicore-patient" ]
      },
      "text": {
        "status": "generated",
        "div": "<div xmlns=\"http://www.w3.org/1999/xhtml\"><div class=\"hapiHeaderText\">PtRef_MO_Warf_EDendTimeEQEncStartTime <b>NUMERPASS </b></div><table class=\"hapiPropertyTable\"><tbody><tr><td>Identifier</td><td>35e854fe06e36e7e02449812c3316da3</td></tr><tr><td>Date of birth</td><td><span>02 January 1974</span></td></tr></tbody></table></div>"
      },
      "extension": [ {
        "url": "http://hl7.org/fhir/us/core/StructureDefinition/us-core-race",
        "extension": [ {
          "url": "ombCategory",
          "valueCoding": {
            "system": "urn:oid:2.16.840.1.113883.6.238",
            "code": "1002-5",
            "display": "American Indian or Alaska Native",
            "userSelected": true
          }
        }, {
          "url": "text",
          "valueString": "American Indian or Alaska Native"
        } ]
      }, {
        "url": "http://hl7.org/fhir/us/core/StructureDefinition/us-core-ethnicity",
        "extension": [ {
          "url": "ombCategory",
          "valueCoding": {
            "system": "urn:oid:2.16.840.1.113883.6.238",
            "code": "2135-2",
            "display": "Hispanic or Latino",
            "userSelected": true
          }
        }, {
          "url": "text",
          "valueString": "Hispanic or Latino"
        } ]
      } ],
      "identifier": [ {
        "type": {
          "coding": [ {
            "system": "http://terminology.hl7.org/CodeSystem/v2-0203",
            "code": "MR"
          } ]
        },
        "system": "https://bonnie-fhir.healthit.gov/",
        "value": "612e6b5002c62a011f2ed433"
      } ],
      "active": true,
      "name": [ {
        "use": "usual",
        "family": "NUMERPass",
        "given": [ "PtRefMOWarfEDendTimeEQEncStartTime" ]
      } ],
      "gender": "male",
      "birthDate": "1975-01-02"
    },
    "request": {
      "method": "PUT",
      "url": "Patient/1701c7fe-de21-4bb9-8404-92cb1ef4e638"
    }
  }, {
    "fullUrl": "https://madie.cms.gov/Encounter/96f2b14a-156a-4b1f-bda4-c8d5b45e8992",
    "resource": {
      "resourceType": "Encounter",
      "id": "96f2b14a-156a-4b1f-bda4-c8d5b45e8992",
      "meta": {
        "profile": [ "http://hl7.org/fhir/us/qicore/StructureDefinition/qicore-encounter" ]
      },
      "status": "finished",
      "class": {
        "system": "http://terminology.hl7.org/CodeSystem/v3-ActCode",
        "code": "EMER",
        "display": "emergency"
      },
      "type": [ {
        "coding": [ {
          "system": "http://snomed.info/sct",
          "code": "4525004"
        } ]
      } ],
      "subject": {
        "reference": "Patient/1701c7fe-de21-4bb9-8404-92cb1ef4e638"
      },
      "period": {
        "start": "2026-10-31T05:00:00.000+00:00",
        "end": "2026-11-01T08:00:00.000+00:00"
      },
      "length": {
        "value": 1,
        "unit": "days"
      }
    },
    "request": {
      "method": "PUT",
      "url": "Encounter/96f2b14a-156a-4b1f-bda4-c8d5b45e8992"
    }
  }, {
    "fullUrl": "https://madie.cms.gov/Encounter/68f631cd-d396-4a3b-b422-da7a50048cb2",
    "resource": {
      "resourceType": "Encounter",
      "id": "68f631cd-d396-4a3b-b422-da7a50048cb2",
      "meta": {
        "profile": [ "http://hl7.org/fhir/us/qicore/StructureDefinition/qicore-encounter" ]
      },
      "status": "finished",
      "class": {
        "system": "http://terminology.hl7.org/CodeSystem/v3-ActCode",
        "code": "IMP",
        "display": "inpatient encounter"
      },
      "type": [ {
        "coding": [ {
          "system": "http://snomed.info/sct",
          "code": "8715000"
        } ]
      } ],
      "subject": {
        "reference": "Patient/1701c7fe-de21-4bb9-8404-92cb1ef4e638"
      },
      "period": {
        "start": "2026-11-01T08:00:00.000+00:00",
        "end": "2026-11-26T08:15:00.000+00:00"
      },
      "length": {
        "value": 25,
        "unit": "days"
      }
    },
    "request": {
      "method": "PUT",
      "url": "Encounter/68f631cd-d396-4a3b-b422-da7a50048cb2"
    }
  }, {
    "fullUrl": "https://madie.cms.gov/Coverage/e2d3d258-ddde-47ad-a443-4da3a1e0e15f",
    "resource": {
      "resourceType": "Coverage",
      "id": "e2d3d258-ddde-47ad-a443-4da3a1e0e15f",
      "status": "active",
      "beneficiary": {
        "reference": "Patient/1701c7fe-de21-4bb9-8404-92cb1ef4e638"
      },
      "period": {
        "start": "1975-01-02T08:00:00.000+00:00"
      },
      "payor": [ {
        "reference": "Organization/de8b5e8c-6889-48f9-9db5-b1fa5df2bbb7"
      } ]
    },
    "request": {
      "method": "PUT",
      "url": "Coverage/e2d3d258-ddde-47ad-a443-4da3a1e0e15f"
    }
  }, {
    "fullUrl": "https://madie.cms.gov/MedicationRequest/28a79c97-2197-4f12-841f-557e7504a235",
    "resource": {
      "resourceType": "MedicationRequest",
      "id": "28a79c97-2197-4f12-841f-557e7504a235",
      "meta": {
        "profile": [ "http://hl7.org/fhir/us/qicore/StructureDefinition/qicore-medicationnotrequested" ]
      },
      "status": "completed",
      "intent": "order",
      "category": [ {
        "coding": [ {
          "system": "http://terminology.hl7.org/CodeSystem/medicationrequest-category",
          "code": "community"
        } ]
      } ],
      "doNotPerform": true,
      "medicationCodeableConcept": {
        "coding": [ {
          "system": "http://www.nlm.nih.gov/research/umls/rxnorm",
          "code": "855288"
        } ]
      },
      "subject": {
        "reference": "Patient/1701c7fe-de21-4bb9-8404-92cb1ef4e638"
      },
      "authoredOn": "2026-11-01T07:00:00.000+00:00",
      "requester": {
        "reference": "Practitioner/123456"
      },
      "reasonCode": [ {
        "coding": [ {
          "system": "http://snomed.info/sct",
          "code": "443390004",
          "display": "Refusal of treatment by patient (situation)",
          "userSelected": true
        } ]
      } ],
      "dosageInstruction": [ {
        "timing": {
          "repeat": {
            "boundsPeriod": {
              "start": "2026-11-03T09:00:00.000+00:00"
            }
          }
        }
      } ]
    },
    "request": {
      "method": "PUT",
      "url": "MedicationRequest/28a79c97-2197-4f12-841f-557e7504a235"
    }
  }, {
    "fullUrl": "https://madie.cms.gov/Organization/de8b5e8c-6889-48f9-9db5-b1fa5df2bbb7",
    "resource": {
      "resourceType": "Organization",
      "id": "de8b5e8c-6889-48f9-9db5-b1fa5df2bbb7",
      "meta": {
        "profile": [ "http://hl7.org/fhir/us/qicore/StructureDefinition/qicore-organization" ]
      },
      "identifier": [ {
        "use": "temp",
        "system": "urn:oid:2.16.840.1.113883.4.4",
        "value": "21-3259825"
      } ],
      "active": true,
      "type": [ {
        "coding": [ {
          "system": "http://terminology.hl7.org/CodeSystem/organization-type",
          "code": "pay",
          "display": "Payer"
        } ]
      } ],
      "name": "Blue Cross Blue Shield of Texas",
      "telecom": [ {
        "system": "phone",
        "value": "(+1) 972-766-6900"
      } ],
      "address": [ {
        "use": "billing",
        "type": "postal",
        "line": [ "P.O. Box 660044" ],
        "city": "Dallas",
        "state": "TX",
        "postalCode": "75266-0044",
        "country": "USA"
      } ]
    },
    "request": {
      "method": "PUT",
      "url": "Organization/de8b5e8c-6889-48f9-9db5-b1fa5df2bbb7"
    }
  }, {
    "fullUrl": "https://madie.cms.gov/Practitioner/2a5c4fb0-74f2-489e-a006-d444e70be4a3",
    "resource": {
      "resourceType": "Practitioner",
      "id": "2a5c4fb0-74f2-489e-a006-d444e70be4a3",
      "identifier": [ {
        "system": "http://hl7.org/fhir/sid/us-npi",
        "value": "123456"
      } ],
      "name": [ {
        "family": "Evil",
        "prefix": [ "Dr" ]
      } ]
    },
    "request": {
      "method": "PUT",
      "url": "Practitioner/2a5c4fb0-74f2-489e-a006-d444e70be4a3"
    }
  }, {
    "fullUrl": "https://madie.cms.gov/MeasureReport/5d30f43d-5f5b-4bc2-94af-69933fd6b1c4",
    "resource": {
      "resourceType": "MeasureReport",
      "id": "5d30f43d-5f5b-4bc2-94af-69933fd6b1c4",
      "meta": {
        "profile": [ "http://hl7.org/fhir/us/cqfmeasures/StructureDefinition/test-case-cqfm" ]
      },
      "contained": [ {
        "resourceType": "Parameters",
        "id": "86df8ba7-053a-4510-98ee-b066c99e9c7c-parameters",
        "parameter": [ {
          "name": "subject",
          "valueString": "1701c7fe-de21-4bb9-8404-92cb1ef4e638"
        } ]
      } ],
      "extension": [ {
        "url": "http://hl7.org/fhir/StructureDefinition/cqf-inputParameters",
        "valueReference": {
          "reference": "#86df8ba7-053a-4510-98ee-b066c99e9c7c-parameters"
        }
      }, {
        "url": "http://hl7.org/fhir/us/cqfmeasures/StructureDefinition/cqfm-testCaseDescription",
        "valueMarkdown": "\">18, ED visits before encounter, medication not order(Warfarin ), patient refused during the ED encounter.  ED endTime concurrent w EncInp startTime.\n\"\n"
      } ],
      "modifierExtension": [ {
        "url": "http://hl7.org/fhir/us/cqfmeasures/StructureDefinition/cqfm-isTestCase",
        "valueBoolean": true
      } ],
      "status": "complete",
      "type": "individual",
      "measure": "https://madie.cms.gov/Measure/CMS108FHIRVTEProphylaxis",
      "period": {
        "start": "2026-01-01",
        "end": "2026-12-31"
      },
      "group": [ {
        "id": "Group_1",
        "population": [ {
          "id": "InitialPopulation_1",
          "code": {
            "coding": [ {
              "system": "http://terminology.hl7.org/CodeSystem/measure-population",
              "code": "initial-population",
              "display": "Initial Population"
            } ]
          },
          "count": 1
        }, {
          "id": "Denominator_1",
          "code": {
            "coding": [ {
              "system": "http://terminology.hl7.org/CodeSystem/measure-population",
              "code": "denominator",
              "display": "Denominator"
            } ]
          },
          "count": 1
        }, {
          "id": "DenominatorExclusion_1",
          "code": {
            "coding": [ {
              "system": "http://terminology.hl7.org/CodeSystem/measure-population",
              "code": "denominator-exclusion",
              "display": "Denominator Exclusion"
            } ]
          },
          "count": 0
        }, {
          "id": "Numerator_1",
          "code": {
            "coding": [ {
              "system": "http://terminology.hl7.org/CodeSystem/measure-population",
              "code": "numerator",
              "display": "Numerator"
            } ]
          },
          "count": 1
        } ],
        "measureScore": {
          "value": 0.0
        }
      } ],
      "evaluatedResource": [ {
        "reference": "Patient/1701c7fe-de21-4bb9-8404-92cb1ef4e638"
      }, {
        "reference": "Encounter/96f2b14a-156a-4b1f-bda4-c8d5b45e8992"
      }, {
        "reference": "Encounter/68f631cd-d396-4a3b-b422-da7a50048cb2"
      }, {
        "reference": "Coverage/e2d3d258-ddde-47ad-a443-4da3a1e0e15f"
      }, {
        "reference": "MedicationRequest/28a79c97-2197-4f12-841f-557e7504a235"
      }, {
        "reference": "Organization/de8b5e8c-6889-48f9-9db5-b1fa5df2bbb7"
      }, {
        "reference": "Practitioner/2a5c4fb0-74f2-489e-a006-d444e70be4a3"
      } ]
    },
    "request": {
      "method": "PUT",
      "url": "MeasureReport/5d30f43d-5f5b-4bc2-94af-69933fd6b1c4"
    }
  } ]
}