{
  "resourceType": "Bundle",
  "id": "363b28a9-e77d-4fee-aaaf-73ebb35bc57c",
  "type": "transaction",
  "entry": [ {
    "fullUrl": "https://madie.cms.gov/Patient/cff9d7db-ba56-4527-8cd4-3a6412945f16",
    "resource": {
      "resourceType": "Patient",
      "id": "cff9d7db-ba56-4527-8cd4-3a6412945f16",
      "meta": {
        "profile": [ "http://hl7.org/fhir/us/qicore/StructureDefinition/qicore-patient" ]
      },
      "extension": [ {
        "url": "http://hl7.org/fhir/us/core/StructureDefinition/us-core-race",
        "extension": [ {
          "url": "ombCategory",
          "valueCoding": {
            "system": "urn:oid:2.16.840.1.113883.6.238",
            "code": "2106-3",
            "display": "White"
          }
        }, {
          "url": "text",
          "valueString": "White"
        } ]
      }, {
        "url": "http://hl7.org/fhir/us/core/StructureDefinition/us-core-ethnicity",
        "extension": [ {
          "url": "ombCategory",
          "valueCoding": {
            "system": "urn:oid:2.16.840.1.113883.6.238",
            "code": "2135-2",
            "display": "Hispanic or Latino"
          }
        }, {
          "url": "text",
          "valueString": "Hispanic or Latino"
        } ]
      } ],
      "identifier": [ {
        "system": "http://hospital.smarthealthit.org",
        "value": "999999999"
      } ],
      "name": [ {
        "family": "Example",
        "given": [ "Patient" ]
      } ],
      "gender": "male",
      "birthDate": "1956-01-01"
    },
    "request": {
      "method": "PUT",
      "url": "Patient/cff9d7db-ba56-4527-8cd4-3a6412945f16"
    }
  }, {
    "fullUrl": "https://madie.cms.gov/Encounter/56e39257-450d-4a3e-bb37-1fb895661ad1",
    "resource": {
      "resourceType": "Encounter",
      "id": "56e39257-450d-4a3e-bb37-1fb895661ad1",
      "meta": {
        "profile": [ "http://hl7.org/fhir/us/qicore/StructureDefinition/qicore-encounter" ]
      },
      "status": "finished",
      "class": {
        "system": "http://terminology.hl7.org/CodeSystem/v3-ActCode",
        "code": "IMP",
        "display": "inpatient encounter"
      },
      "type": [ {
        "coding": [ {
          "system": "http://snomed.info/sct",
          "code": "183452005"
        } ]
      } ],
      "subject": {
        "reference": "Patient/cff9d7db-ba56-4527-8cd4-3a6412945f16"
      },
      "period": {
        "start": "2026-04-07T08:00:00.000+00:00",
        "end": "2026-04-11T08:15:00.000+00:00"
      }
    },
    "request": {
      "method": "PUT",
      "url": "Encounter/56e39257-450d-4a3e-bb37-1fb895661ad1"
    }
  }, {
    "fullUrl": "https://madie.cms.gov/Condition/3568e0f2-f56d-436e-9a07-e4f0a2447cd5",
    "resource": {
      "resourceType": "Condition",
      "id": "3568e0f2-f56d-436e-9a07-e4f0a2447cd5",
      "meta": {
        "profile": [ "http://hl7.org/fhir/us/qicore/StructureDefinition/qicore-condition-encounter-diagnosis" ]
      },
      "category": [ {
        "coding": [ {
          "system": "http://terminology.hl7.org/CodeSystem/condition-category",
          "code": "encounter-diagnosis",
          "display": "Encounter Diagnosis"
        } ]
      } ],
      "code": {
        "coding": [ {
          "system": "http://hl7.org/fhir/sid/icd-10-cm",
          "code": "E10.21",
          "display": "Type 1 diabetes mellitus with diabetic nephropathy"
        } ]
      },
      "subject": {
        "reference": "Patient/cff9d7db-ba56-4527-8cd4-3a6412945f16"
      },
      "onsetDateTime": "2011-01-02"
    },
    "request": {
      "method": "PUT",
      "url": "Condition/3568e0f2-f56d-436e-9a07-e4f0a2447cd5"
    }
  }, {
    "fullUrl": "https://madie.cms.gov/Observation/7f7c7f50-635a-4536-9024-bd1afa741487",
    "resource": {
      "resourceType": "Observation",
      "id": "7f7c7f50-635a-4536-9024-bd1afa741487",
      "meta": {
        "profile": [ "http://hl7.org/fhir/us/qicore/StructureDefinition/qicore-observation-lab" ]
      },
      "status": "final",
      "category": [ {
        "coding": [ {
          "system": "http://terminology.hl7.org/CodeSystem/observation-category",
          "code": "laboratory",
          "display": "Laboratory"
        } ]
      } ],
      "code": {
        "coding": [ {
          "system": "http://loinc.org",
          "version": "2.72",
          "code": "1556-0",
          "display": "Fasting glucose [Mass/volume] in Capillary blood",
          "userSelected": true
        } ]
      },
      "subject": {
        "reference": "Patient/cff9d7db-ba56-4527-8cd4-3a6412945f16"
      },
      "effectiveDateTime": "2026-04-09T07:00:00.000+00:00",
      "valueQuantity": {
        "value": 320,
        "unit": "mg/dL"
      }
    },
    "request": {
      "method": "PUT",
      "url": "Observation/7f7c7f50-635a-4536-9024-bd1afa741487"
    }
  }, {
    "fullUrl": "https://madie.cms.gov/MeasureReport/eb879220-8c9f-4c3d-be49-9c4baeebd226",
    "resource": {
      "resourceType": "MeasureReport",
      "id": "eb879220-8c9f-4c3d-be49-9c4baeebd226",
      "meta": {
        "profile": [ "http://hl7.org/fhir/us/cqfmeasures/StructureDefinition/test-case-cqfm" ]
      },
      "contained": [ {
        "resourceType": "Parameters",
        "id": "51416fe1-1d22-46a0-82bc-13f13d484cf4-parameters",
        "parameter": [ {
          "name": "subject",
          "valueString": "cff9d7db-ba56-4527-8cd4-3a6412945f16"
        } ]
      } ],
      "extension": [ {
        "url": "http://hl7.org/fhir/StructureDefinition/cqf-inputParameters",
        "valueReference": {
          "reference": "#51416fe1-1d22-46a0-82bc-13f13d484cf4-parameters"
        }
      }, {
        "url": "http://hl7.org/fhir/us/cqfmeasures/StructureDefinition/cqfm-testCaseDescription",
        "valueMarkdown": "IP encounter where glucose level >300 mg/dL during encounter, occurring after the first 24 hours of admission. Meets Numerator. "
      } ],
      "modifierExtension": [ {
        "url": "http://hl7.org/fhir/us/cqfmeasures/StructureDefinition/cqfm-isTestCase",
        "valueBoolean": true
      } ],
      "status": "complete",
      "type": "individual",
      "measure": "https://madie.cms.gov/Measure/CMS871FHIRHHHyper",
      "period": {
        "start": "2026-01-01",
        "end": "2026-12-31"
      },
      "group": [ {
        "id": "Group_1",
        "population": [ {
          "id": "InitialPopulation_1",
          "code": {
            "coding": [ {
              "system": "http://terminology.hl7.org/CodeSystem/measure-population",
              "code": "initial-population",
              "display": "Initial Population"
            } ]
          },
          "count": 1
        }, {
          "id": "Denominator_1",
          "code": {
            "coding": [ {
              "system": "http://terminology.hl7.org/CodeSystem/measure-population",
              "code": "denominator",
              "display": "Denominator"
            } ]
          },
          "count": 1
        }, {
          "id": "DenominatorExclusion_1",
          "code": {
            "coding": [ {
              "system": "http://terminology.hl7.org/CodeSystem/measure-population",
              "code": "denominator-exclusion",
              "display": "Denominator Exclusion"
            } ]
          },
          "count": 0
        }, {
          "id": "Numerator_1",
          "code": {
            "coding": [ {
              "system": "http://terminology.hl7.org/CodeSystem/measure-population",
              "code": "numerator",
              "display": "Numerator"
            } ]
          },
          "count": 1
        }, {
          "id": "NumeratorExclusion_1",
          "code": {
            "coding": [ {
              "system": "http://terminology.hl7.org/CodeSystem/measure-population",
              "code": "numerator-exclusion",
              "display": "Numerator Exclusion"
            } ]
          },
          "count": 0
        }, {
          "id": "MeasureObservation_1_1_1",
          "code": {
            "coding": [ {
              "system": "http://terminology.hl7.org/CodeSystem/measure-population",
              "code": "measure-observation",
              "display": "Measure Observation"
            } ]
          },
          "count": 3
        }, {
          "id": "MeasureObservation_1_2_1",
          "code": {
            "coding": [ {
              "system": "http://terminology.hl7.org/CodeSystem/measure-population",
              "code": "measure-observation",
              "display": "Measure Observation"
            } ]
          },
          "count": 1
        } ],
        "measureScore": {
          "value": 0.0
        }
      } ],
      "evaluatedResource": [ {
        "reference": "Patient/cff9d7db-ba56-4527-8cd4-3a6412945f16"
      }, {
        "reference": "Encounter/56e39257-450d-4a3e-bb37-1fb895661ad1"
      }, {
        "reference": "Condition/3568e0f2-f56d-436e-9a07-e4f0a2447cd5"
      }, {
        "reference": "Observation/7f7c7f50-635a-4536-9024-bd1afa741487"
      } ]
    },
    "request": {
      "method": "PUT",
      "url": "MeasureReport/eb879220-8c9f-4c3d-be49-9c4baeebd226"
    }
  } ]
}