{
  "resourceType": "Bundle",
  "id": "NUMPass-70-on-Jan1-1",
  "type": "transaction",
  "entry": [ {
    "fullUrl": "https://madie.cms.gov/Patient/dbe9bd60-ca07-4e9d-917b-1a2791617bb0",
    "resource": {
      "resourceType": "Patient",
      "id": "dbe9bd60-ca07-4e9d-917b-1a2791617bb0",
      "meta": {
        "profile": [ "http://hl7.org/fhir/us/qicore/StructureDefinition/qicore-patient" ]
      },
      "extension": [ {
        "url": "http://hl7.org/fhir/us/core/StructureDefinition/us-core-race",
        "extension": [ {
          "url": "ombCategory",
          "valueCoding": {
            "system": "urn:oid:2.16.840.1.113883.6.238",
            "code": "2028-9",
            "display": "Asian"
          }
        }, {
          "url": "text",
          "valueString": "Asian"
        } ]
      }, {
        "url": "http://hl7.org/fhir/us/core/StructureDefinition/us-core-ethnicity",
        "extension": [ {
          "url": "ombCategory",
          "valueCoding": {
            "system": "urn:oid:2.16.840.1.113883.6.238",
            "code": "2186-5",
            "display": "Not Hispanic or Latino"
          }
        }, {
          "url": "text",
          "valueString": "Not Hispanic or Latino"
        } ]
      } ],
      "identifier": [ {
        "system": "http://hospital.smarthealthit.org",
        "value": "999999995"
      } ],
      "name": [ {
        "family": "NUMPass",
        "given": [ "NUMPass-70-on-Jan1-1" ]
      } ],
      "gender": "male",
      "birthDate": "1956-01-01"
    },
    "request": {
      "method": "PUT",
      "url": "Patient/dbe9bd60-ca07-4e9d-917b-1a2791617bb0"
    }
  }, {
    "fullUrl": "https://madie.cms.gov/Encounter/23f62f63-bffc-422d-a8a5-73b5a2d654c8",
    "resource": {
      "resourceType": "Encounter",
      "id": "23f62f63-bffc-422d-a8a5-73b5a2d654c8",
      "meta": {
        "profile": [ "http://hl7.org/fhir/us/qicore/StructureDefinition/qicore-encounter" ]
      },
      "status": "finished",
      "class": {
        "system": "http://terminology.hl7.org/CodeSystem/v3-ActCode",
        "code": "AMB",
        "display": "ambulatory"
      },
      "type": [ {
        "coding": [ {
          "system": "http://snomed.info/sct",
          "code": "11429006"
        } ]
      } ],
      "subject": {
        "reference": "Patient/dbe9bd60-ca07-4e9d-917b-1a2791617bb0"
      },
      "period": {
        "start": "2026-01-04T08:00:00.000+00:00",
        "end": "2026-01-04T08:00:00.000+00:00"
      }
    },
    "request": {
      "method": "PUT",
      "url": "Encounter/23f62f63-bffc-422d-a8a5-73b5a2d654c8"
    }
  }, {
    "fullUrl": "https://madie.cms.gov/Encounter/d4527b8b-6c07-4dc8-9983-b46632ba434c",
    "resource": {
      "resourceType": "Encounter",
      "id": "d4527b8b-6c07-4dc8-9983-b46632ba434c",
      "meta": {
        "profile": [ "http://hl7.org/fhir/us/qicore/StructureDefinition/qicore-encounter" ]
      },
      "status": "finished",
      "class": {
        "system": "http://terminology.hl7.org/CodeSystem/v3-ActCode",
        "code": "AMB",
        "display": "ambulatory"
      },
      "type": [ {
        "coding": [ {
          "system": "http://www.ama-assn.org/go/cpt",
          "code": "99203",
          "display": "Office or other outpatient visit for the evaluation and management of a new patient, which requires a medically appropriate history and/or examination and low level of medical decision making. When using time for code selection, 30-44 minutes of total time is spent on the date of the encounter."
        } ]
      } ],
      "subject": {
        "reference": "Patient/dbe9bd60-ca07-4e9d-917b-1a2791617bb0"
      },
      "period": {
        "start": "2026-01-04T08:00:00.000+00:00",
        "end": "2026-01-04T08:00:00.000+00:00"
      }
    },
    "request": {
      "method": "PUT",
      "url": "Encounter/d4527b8b-6c07-4dc8-9983-b46632ba434c"
    }
  }, {
    "fullUrl": "https://madie.cms.gov/Observation/7513770a-a435-43cd-afca-e6b4417a60f6",
    "resource": {
      "resourceType": "Observation",
      "id": "7513770a-a435-43cd-afca-e6b4417a60f6",
      "meta": {
        "profile": [ "http://hl7.org/fhir/us/core/StructureDefinition/us-core-bmi" ]
      },
      "status": "final",
      "category": [ {
        "coding": [ {
          "system": "http://terminology.hl7.org/CodeSystem/observation-category",
          "code": "vital-signs",
          "display": "Vital Signs"
        } ]
      } ],
      "code": {
        "coding": [ {
          "system": "http://loinc.org",
          "code": "39156-5",
          "display": "Body mass index (BMI) [Ratio]"
        } ]
      },
      "subject": {
        "reference": "Patient/dbe9bd60-ca07-4e9d-917b-1a2791617bb0"
      },
      "effectiveDateTime": "2026-01-04T08:00:00.000+00:00",
      "issued": "2026-01-04T08:00:00.000+00:00",
      "valueQuantity": {
        "value": 23,
        "unit": "kg/m2",
        "system": "http://unitsofmeasure.org",
        "code": "kg/m2"
      }
    },
    "request": {
      "method": "PUT",
      "url": "Observation/7513770a-a435-43cd-afca-e6b4417a60f6"
    }
  }, {
    "fullUrl": "https://madie.cms.gov/Condition/724ed47f-8a8a-43e6-a069-9d78a2d6d54c",
    "resource": {
      "resourceType": "Condition",
      "id": "724ed47f-8a8a-43e6-a069-9d78a2d6d54c",
      "meta": {
        "profile": [ "http://hl7.org/fhir/us/qicore/StructureDefinition/qicore-condition-problems-health-concerns" ]
      },
      "clinicalStatus": {
        "coding": [ {
          "system": "http://terminology.hl7.org/CodeSystem/condition-clinical",
          "code": "active",
          "display": "active",
          "userSelected": true
        } ]
      },
      "category": [ {
        "coding": [ {
          "system": "http://terminology.hl7.org/CodeSystem/condition-category",
          "code": "problem-list-item",
          "display": "Problem List Item"
        } ]
      } ],
      "code": {
        "coding": [ {
          "system": "http://snomed.info/sct",
          "code": "714628002"
        } ]
      },
      "subject": {
        "reference": "Patient/dbe9bd60-ca07-4e9d-917b-1a2791617bb0"
      },
      "onsetDateTime": "2026-02-02T00:00:00.000+00:00"
    },
    "request": {
      "method": "PUT",
      "url": "Condition/724ed47f-8a8a-43e6-a069-9d78a2d6d54c"
    }
  }, {
    "fullUrl": "https://madie.cms.gov/MeasureReport/52b6ec2b-1985-4b1c-b77f-3e37b2c67047",
    "resource": {
      "resourceType": "MeasureReport",
      "id": "52b6ec2b-1985-4b1c-b77f-3e37b2c67047",
      "meta": {
        "profile": [ "http://hl7.org/fhir/us/cqfmeasures/StructureDefinition/test-case-cqfm" ]
      },
      "contained": [ {
        "resourceType": "Parameters",
        "id": "323fa35f-a684-4681-9244-fc0300acccad-parameters",
        "parameter": [ {
          "name": "subject",
          "valueString": "dbe9bd60-ca07-4e9d-917b-1a2791617bb0"
        } ]
      } ],
      "extension": [ {
        "url": "http://hl7.org/fhir/StructureDefinition/cqf-inputParameters",
        "valueReference": {
          "reference": "#323fa35f-a684-4681-9244-fc0300acccad-parameters"
        }
      }, {
        "url": "http://hl7.org/fhir/us/cqfmeasures/StructureDefinition/cqfm-testCaseDescription",
        "valueMarkdown": "DEN-prediabetes-diagnosis-dayoftestJan2"
      } ],
      "modifierExtension": [ {
        "url": "http://hl7.org/fhir/us/cqfmeasures/StructureDefinition/cqfm-isTestCase",
        "valueBoolean": true
      } ],
      "status": "complete",
      "type": "individual",
      "measure": "https://madie.cms.gov/Measure/CMS1154ScreeningPrediabetesFHIR",
      "period": {
        "start": "2026-01-01",
        "end": "2026-12-31"
      },
      "group": [ {
        "id": "Group_1",
        "population": [ {
          "id": "InitialPopulation_1",
          "code": {
            "coding": [ {
              "system": "http://terminology.hl7.org/CodeSystem/measure-population",
              "code": "initial-population",
              "display": "Initial Population"
            } ]
          },
          "count": 1
        }, {
          "id": "Denominator_1",
          "code": {
            "coding": [ {
              "system": "http://terminology.hl7.org/CodeSystem/measure-population",
              "code": "denominator",
              "display": "Denominator"
            } ]
          },
          "count": 1
        }, {
          "id": "DenominatorExclusion_1",
          "code": {
            "coding": [ {
              "system": "http://terminology.hl7.org/CodeSystem/measure-population",
              "code": "denominator-exclusion",
              "display": "Denominator Exclusion"
            } ]
          },
          "count": 0
        }, {
          "id": "Numerator_1",
          "code": {
            "coding": [ {
              "system": "http://terminology.hl7.org/CodeSystem/measure-population",
              "code": "numerator",
              "display": "Numerator"
            } ]
          },
          "count": 0
        } ],
        "measureScore": {
          "value": 1.0
        }
      } ],
      "evaluatedResource": [ {
        "reference": "Patient/dbe9bd60-ca07-4e9d-917b-1a2791617bb0"
      }, {
        "reference": "Encounter/23f62f63-bffc-422d-a8a5-73b5a2d654c8"
      }, {
        "reference": "Encounter/d4527b8b-6c07-4dc8-9983-b46632ba434c"
      }, {
        "reference": "Observation/7513770a-a435-43cd-afca-e6b4417a60f6"
      }, {
        "reference": "Condition/724ed47f-8a8a-43e6-a069-9d78a2d6d54c"
      } ]
    },
    "request": {
      "method": "PUT",
      "url": "MeasureReport/52b6ec2b-1985-4b1c-b77f-3e37b2c67047"
    }
  } ]
}