{
  "resourceType": "Bundle",
  "id": "6359776b6aee9629c8298235",
  "type": "transaction",
  "entry": [ {
    "fullUrl": "https://madie.cms.gov/Patient/313f7916-7e09-40d2-bcb3-06cdf149cc79",
    "resource": {
      "resourceType": "Patient",
      "id": "313f7916-7e09-40d2-bcb3-06cdf149cc79",
      "meta": {
        "profile": [ "http://hl7.org/fhir/us/qicore/StructureDefinition/qicore-patient" ]
      },
      "text": {
        "status": "generated",
        "div": "<div xmlns=\"http://www.w3.org/1999/xhtml\"><div class=\"hapiHeaderText\">RISKHct24hours1MinB4EDOTTriageEnc  <b>RISKFail</b></div><table class=\"hapiPropertyTable\"><tbody><tr><td>Date of birth</td><td><span>01 February 2004</span></td></tr></tbody></table></div>"
      },
      "extension": [ {
        "url": "http://hl7.org/fhir/us/core/StructureDefinition/us-core-race",
        "extension": [ {
          "url": "ombCategory",
          "valueCoding": {
            "system": "urn:oid:2.16.840.1.113883.6.238",
            "code": "1002-5",
            "display": "American Indian or Alaska Native",
            "userSelected": true
          }
        }, {
          "url": "text",
          "valueString": "American Indian or Alaska Native"
        } ]
      }, {
        "url": "http://hl7.org/fhir/us/core/StructureDefinition/us-core-ethnicity",
        "extension": [ {
          "url": "ombCategory",
          "valueCoding": {
            "system": "urn:oid:2.16.840.1.113883.6.238",
            "code": "2135-2",
            "display": "Hispanic or Latino",
            "userSelected": true
          }
        }, {
          "url": "text",
          "valueString": "Hispanic or Latino"
        } ]
      } ],
      "identifier": [ {
        "type": {
          "coding": [ {
            "system": "http://terminology.hl7.org/CodeSystem/v2-0203",
            "code": "MR"
          } ]
        },
        "system": "https://bonnie-fhir.healthit.gov/",
        "value": "6359776b6aee9629c8298235"
      } ],
      "active": true,
      "name": [ {
        "use": "usual",
        "family": "RiskFail",
        "given": [ "RISKHct24hours1MinB4EDOTTriageEnc" ]
      } ],
      "gender": "female",
      "birthDate": "2005-02-01"
    },
    "request": {
      "method": "PUT",
      "url": "Patient/313f7916-7e09-40d2-bcb3-06cdf149cc79"
    }
  }, {
    "fullUrl": "https://madie.cms.gov/Observation/40ae3828-b0c3-401e-a260-ad015554e869",
    "resource": {
      "resourceType": "Observation",
      "id": "40ae3828-b0c3-401e-a260-ad015554e869",
      "meta": {
        "profile": [ "http://hl7.org/fhir/us/qicore/StructureDefinition/qicore-simple-observation" ]
      },
      "status": "final",
      "category": [ {
        "coding": [ {
          "system": "http://terminology.hl7.org/CodeSystem/observation-category",
          "code": "exam",
          "display": "exam",
          "userSelected": true
        } ]
      } ],
      "code": {
        "coding": [ {
          "system": "http://loinc.org",
          "code": "93857-1"
        } ]
      },
      "subject": {
        "reference": "Patient/313f7916-7e09-40d2-bcb3-06cdf149cc79"
      },
      "effectiveDateTime": "2026-02-01T08:00:00.000+00:00",
      "performer": [ {
        "reference": "Organization/example1",
        "display": "Hendricks Country Hospital"
      } ],
      "valueDateTime": "2026-02-01T08:00:00.000+00:00"
    },
    "request": {
      "method": "PUT",
      "url": "Observation/40ae3828-b0c3-401e-a260-ad015554e869"
    }
  }, {
    "fullUrl": "https://madie.cms.gov/Observation/984febf2-6657-4d55-acbd-857c46816eb9",
    "resource": {
      "resourceType": "Observation",
      "id": "984febf2-6657-4d55-acbd-857c46816eb9",
      "meta": {
        "profile": [ "http://hl7.org/fhir/us/qicore/StructureDefinition/qicore-simple-observation" ]
      },
      "status": "final",
      "category": [ {
        "coding": [ {
          "system": "http://terminology.hl7.org/CodeSystem/observation-category",
          "code": "exam",
          "display": "exam",
          "userSelected": true
        } ]
      } ],
      "code": {
        "coding": [ {
          "system": "http://loinc.org",
          "code": "11884-4"
        } ]
      },
      "subject": {
        "reference": "Patient/313f7916-7e09-40d2-bcb3-06cdf149cc79"
      },
      "effectiveDateTime": "2026-02-01T08:00:00.000+00:00",
      "performer": [ {
        "reference": "Organization/example1",
        "display": "Hendricks Country Hospital"
      } ],
      "valueQuantity": {
        "value": 21,
        "system": "http://unitsofmeasure.org",
        "code": "wk"
      }
    },
    "request": {
      "method": "PUT",
      "url": "Observation/984febf2-6657-4d55-acbd-857c46816eb9"
    }
  }, {
    "fullUrl": "https://madie.cms.gov/Encounter/11d53814-8c9b-4ffa-a938-f71d9d84f957",
    "resource": {
      "resourceType": "Encounter",
      "id": "11d53814-8c9b-4ffa-a938-f71d9d84f957",
      "meta": {
        "profile": [ "http://hl7.org/fhir/us/qicore/StructureDefinition/qicore-encounter" ]
      },
      "status": "finished",
      "class": {
        "system": "http://terminology.hl7.org/CodeSystem/v3-ActCode",
        "code": "IMP",
        "display": "inpatient encounter"
      },
      "type": [ {
        "coding": [ {
          "system": "http://snomed.info/sct",
          "code": "183452005"
        } ]
      } ],
      "subject": {
        "reference": "Patient/313f7916-7e09-40d2-bcb3-06cdf149cc79"
      },
      "period": {
        "start": "2026-02-01T08:00:00.000+00:00",
        "end": "2026-02-05T08:15:00.000+00:00"
      }
    },
    "request": {
      "method": "PUT",
      "url": "Encounter/11d53814-8c9b-4ffa-a938-f71d9d84f957"
    }
  }, {
    "fullUrl": "https://madie.cms.gov/Encounter/57bd24f6-52df-42bd-ae82-50b01e515ee8",
    "resource": {
      "resourceType": "Encounter",
      "id": "57bd24f6-52df-42bd-ae82-50b01e515ee8",
      "meta": {
        "profile": [ "http://hl7.org/fhir/us/qicore/StructureDefinition/qicore-encounter" ]
      },
      "status": "finished",
      "class": {
        "system": "http://terminology.hl7.org/CodeSystem/v3-ActCode",
        "code": "EMER",
        "display": "emergency"
      },
      "type": [ {
        "coding": [ {
          "system": "http://snomed.info/sct",
          "code": "4525004"
        } ]
      } ],
      "subject": {
        "reference": "Patient/313f7916-7e09-40d2-bcb3-06cdf149cc79"
      },
      "period": {
        "start": "2026-02-01T07:00:00.000+00:00",
        "end": "2026-02-01T07:59:00.000+00:00"
      }
    },
    "request": {
      "method": "PUT",
      "url": "Encounter/57bd24f6-52df-42bd-ae82-50b01e515ee8"
    }
  }, {
    "fullUrl": "https://madie.cms.gov/Procedure/fd992562-f4a2-4639-b3f4-662ff08e18aa",
    "resource": {
      "resourceType": "Procedure",
      "id": "fd992562-f4a2-4639-b3f4-662ff08e18aa",
      "meta": {
        "profile": [ "http://hl7.org/fhir/us/qicore/StructureDefinition/qicore-procedure" ]
      },
      "extension": [ {
        "url": "http://hl7.org/fhir/us/qicore/StructureDefinition/qicore-recorded",
        "valueDateTime": "2026-02-04T13:35:00.000+00:00"
      } ],
      "status": "completed",
      "code": {
        "coding": [ {
          "system": "http://snomed.info/sct",
          "code": "10745001"
        } ]
      },
      "subject": {
        "reference": "Patient/313f7916-7e09-40d2-bcb3-06cdf149cc79"
      },
      "performedPeriod": {
        "start": "2026-02-01T08:00:00.000+00:00",
        "end": "2026-02-05T08:15:00.000+00:00"
      }
    },
    "request": {
      "method": "PUT",
      "url": "Procedure/fd992562-f4a2-4639-b3f4-662ff08e18aa"
    }
  }, {
    "fullUrl": "https://madie.cms.gov/Observation/3acd4ec2-002a-4afc-adf5-6054a4d25071",
    "resource": {
      "resourceType": "Observation",
      "id": "3acd4ec2-002a-4afc-adf5-6054a4d25071",
      "meta": {
        "profile": [ "http://hl7.org/fhir/us/core/StructureDefinition/us-core-observation-lab" ]
      },
      "status": "final",
      "category": [ {
        "coding": [ {
          "system": "http://terminology.hl7.org/CodeSystem/observation-category",
          "code": "laboratory",
          "display": "laboratory",
          "userSelected": true
        } ]
      } ],
      "code": {
        "coding": [ {
          "system": "http://loinc.org",
          "version": "2.73",
          "code": "20570-8",
          "display": "Hematocrit [Volume Fraction] in Blood",
          "userSelected": true
        } ]
      },
      "subject": {
        "reference": "Patient/313f7916-7e09-40d2-bcb3-06cdf149cc79"
      },
      "effectiveDateTime": "2026-01-31T06:59:00.000+00:00",
      "issued": "2026-01-31T06:59:00.000+00:00",
      "valueQuantity": {
        "value": 20,
        "unit": "%"
      }
    },
    "request": {
      "method": "PUT",
      "url": "Observation/3acd4ec2-002a-4afc-adf5-6054a4d25071"
    }
  }, {
    "fullUrl": "https://madie.cms.gov/MeasureReport/74df3f76-63af-4eaa-9a91-57037f2d50fb",
    "resource": {
      "resourceType": "MeasureReport",
      "id": "74df3f76-63af-4eaa-9a91-57037f2d50fb",
      "meta": {
        "profile": [ "http://hl7.org/fhir/us/cqfmeasures/StructureDefinition/test-case-cqfm" ]
      },
      "contained": [ {
        "resourceType": "Parameters",
        "id": "c191293b-14ce-4df5-9a8d-f0e22041558c-parameters",
        "parameter": [ {
          "name": "subject",
          "valueString": "313f7916-7e09-40d2-bcb3-06cdf149cc79"
        } ]
      } ],
      "extension": [ {
        "url": "http://hl7.org/fhir/StructureDefinition/cqf-inputParameters",
        "valueReference": {
          "reference": "#c191293b-14ce-4df5-9a8d-f0e22041558c-parameters"
        }
      }, {
        "url": "http://hl7.org/fhir/us/cqfmeasures/StructureDefinition/cqfm-testCaseDescription",
        "valueMarkdown": "Patient with hematocrit that starts 24 hours and 1 minute before ED OB Triage encounter.\n"
      } ],
      "modifierExtension": [ {
        "url": "http://hl7.org/fhir/us/cqfmeasures/StructureDefinition/cqfm-isTestCase",
        "valueBoolean": true
      } ],
      "status": "complete",
      "type": "individual",
      "measure": "https://madie.cms.gov/Measure/CMS1028FHIRPCSevereOBComps",
      "period": {
        "start": "2026-01-01",
        "end": "2026-12-31"
      },
      "group": [ {
        "id": "Group_1",
        "population": [ {
          "id": "InitialPopulation_1",
          "code": {
            "coding": [ {
              "system": "http://terminology.hl7.org/CodeSystem/measure-population",
              "code": "initial-population",
              "display": "Initial Population"
            } ]
          },
          "count": 1
        }, {
          "id": "Denominator_1",
          "code": {
            "coding": [ {
              "system": "http://terminology.hl7.org/CodeSystem/measure-population",
              "code": "denominator",
              "display": "Denominator"
            } ]
          },
          "count": 1
        }, {
          "id": "Numerator_1",
          "code": {
            "coding": [ {
              "system": "http://terminology.hl7.org/CodeSystem/measure-population",
              "code": "numerator",
              "display": "Numerator"
            } ]
          },
          "count": 0
        }, {
          "id": "NumeratorExclusion_1",
          "code": {
            "coding": [ {
              "system": "http://terminology.hl7.org/CodeSystem/measure-population",
              "code": "numerator-exclusion",
              "display": "Numerator Exclusion"
            } ]
          },
          "count": 0
        } ],
        "measureScore": {
          "value": 0.0
        }
      }, {
        "id": "Group_2",
        "population": [ {
          "id": "InitialPopulation_2",
          "code": {
            "coding": [ {
              "system": "http://terminology.hl7.org/CodeSystem/measure-population",
              "code": "initial-population",
              "display": "Initial Population"
            } ]
          },
          "count": 1
        }, {
          "id": "Denominator_2",
          "code": {
            "coding": [ {
              "system": "http://terminology.hl7.org/CodeSystem/measure-population",
              "code": "denominator",
              "display": "Denominator"
            } ]
          },
          "count": 1
        }, {
          "id": "Numerator_2",
          "code": {
            "coding": [ {
              "system": "http://terminology.hl7.org/CodeSystem/measure-population",
              "code": "numerator",
              "display": "Numerator"
            } ]
          },
          "count": 0
        }, {
          "id": "NumeratorExclusion_2",
          "code": {
            "coding": [ {
              "system": "http://terminology.hl7.org/CodeSystem/measure-population",
              "code": "numerator-exclusion",
              "display": "Numerator Exclusion"
            } ]
          },
          "count": 0
        } ],
        "measureScore": {
          "value": 0.0
        }
      } ],
      "evaluatedResource": [ {
        "reference": "Patient/313f7916-7e09-40d2-bcb3-06cdf149cc79"
      }, {
        "reference": "Observation/40ae3828-b0c3-401e-a260-ad015554e869"
      }, {
        "reference": "Observation/984febf2-6657-4d55-acbd-857c46816eb9"
      }, {
        "reference": "Encounter/11d53814-8c9b-4ffa-a938-f71d9d84f957"
      }, {
        "reference": "Encounter/57bd24f6-52df-42bd-ae82-50b01e515ee8"
      }, {
        "reference": "Procedure/fd992562-f4a2-4639-b3f4-662ff08e18aa"
      }, {
        "reference": "Observation/3acd4ec2-002a-4afc-adf5-6054a4d25071"
      } ]
    },
    "request": {
      "method": "PUT",
      "url": "MeasureReport/74df3f76-63af-4eaa-9a91-57037f2d50fb"
    }
  } ]
}