{
  "resourceType": "Bundle",
  "id": "tests-NumerPass-OneHospitalizationTwoClaimsWithFallPOA-bundle",
  "type": "transaction",
  "entry": [ {
    "fullUrl": "https://madie.cms.gov/Encounter/9831ffe7-862e-4bad-9426-6ec32203b108",
    "resource": {
      "resourceType": "Encounter",
      "id": "9831ffe7-862e-4bad-9426-6ec32203b108",
      "meta": {
        "profile": [ "http://hl7.org/fhir/us/qicore/StructureDefinition/qicore-encounter" ]
      },
      "status": "finished",
      "class": {
        "system": "http://terminology.hl7.org/CodeSystem/v3-ActCode",
        "code": "IMP",
        "display": "inpatient encounter"
      },
      "type": [ {
        "coding": [ {
          "system": "http://snomed.info/sct",
          "code": "183452005",
          "display": "Emergency hospital admission"
        } ]
      } ],
      "subject": {
        "reference": "Patient/559b63eb-fb48-45f5-bf6c-4f7c2901007d"
      },
      "period": {
        "start": "2026-10-19T08:30:00.000Z",
        "end": "2026-10-21T08:15:00.000Z"
      },
      "reasonCode": [ {
        "coding": [ {
          "system": "http://snomed.info/sct",
          "code": "14047009"
        } ]
      }, {
        "coding": [ {
          "system": "http://snomed.info/sct",
          "code": "64859006"
        } ]
      } ]
    },
    "request": {
      "method": "PUT",
      "url": "Encounter/9831ffe7-862e-4bad-9426-6ec32203b108"
    }
  }, {
    "fullUrl": "https://madie.cms.gov/Encounter/b534d3e3-250a-4ce8-b5b9-a34bf71cd354",
    "resource": {
      "resourceType": "Encounter",
      "id": "b534d3e3-250a-4ce8-b5b9-a34bf71cd354",
      "meta": {
        "profile": [ "http://hl7.org/fhir/us/qicore/StructureDefinition/qicore-encounter" ]
      },
      "status": "finished",
      "class": {
        "system": "http://terminology.hl7.org/CodeSystem/v3-ActCode",
        "code": "EMER",
        "display": "emergency encounter"
      },
      "type": [ {
        "coding": [ {
          "system": "http://snomed.info/sct",
          "code": "4525004",
          "display": "Emergency department patient visit (procedure)"
        } ]
      } ],
      "subject": {
        "reference": "Patient/559b63eb-fb48-45f5-bf6c-4f7c2901007d"
      },
      "period": {
        "start": "2026-10-18T09:15:00.000Z",
        "end": "2026-10-19T08:15:00.000Z"
      }
    },
    "request": {
      "method": "PUT",
      "url": "Encounter/b534d3e3-250a-4ce8-b5b9-a34bf71cd354"
    }
  }, {
    "fullUrl": "https://madie.cms.gov/Patient/559b63eb-fb48-45f5-bf6c-4f7c2901007d",
    "resource": {
      "resourceType": "Patient",
      "id": "559b63eb-fb48-45f5-bf6c-4f7c2901007d",
      "meta": {
        "profile": [ "http://hl7.org/fhir/us/qicore/StructureDefinition/qicore-patient" ]
      },
      "extension": [ {
        "url": "http://hl7.org/fhir/us/core/StructureDefinition/us-core-race",
        "extension": [ {
          "url": "ombCategory",
          "valueCoding": {
            "system": "urn:oid:2.16.840.1.113883.6.238",
            "code": "2106-3",
            "display": "White"
          }
        }, {
          "url": "text",
          "valueString": "White"
        } ]
      }, {
        "url": "http://hl7.org/fhir/us/core/StructureDefinition/us-core-ethnicity",
        "extension": [ {
          "url": "ombCategory",
          "valueCoding": {
            "system": "urn:oid:2.16.840.1.113883.6.238",
            "code": "2135-2",
            "display": "Hispanic or Latino"
          }
        }, {
          "url": "text",
          "valueString": "Hispanic or Latino"
        } ]
      }, {
        "url": "http://hl7.org/fhir/us/core/StructureDefinition/us-core-sex",
        "valueCode": "248153007"
      } ],
      "identifier": [ {
        "system": "http://hospital.smarthealthit.org",
        "value": "999999999"
      } ],
      "name": [ {
        "family": "Example",
        "given": [ "Patient" ]
      } ],
      "gender": "female",
      "birthDate": "1956-01-01"
    },
    "request": {
      "method": "PUT",
      "url": "Patient/559b63eb-fb48-45f5-bf6c-4f7c2901007d"
    }
  }, {
    "fullUrl": "https://madie.cms.gov/Claim/f62cbda0-1db7-4f13-80f7-1986e59624c6",
    "resource": {
      "resourceType": "Claim",
      "id": "f62cbda0-1db7-4f13-80f7-1986e59624c6",
      "meta": {
        "profile": [ "http://hl7.org/fhir/us/qicore/StructureDefinition/qicore-claim" ]
      },
      "status": "active",
      "type": {
        "coding": [ {
          "system": "http://terminology.hl7.org/CodeSystem/claim-type",
          "code": "institutional",
          "display": "Institutional"
        } ]
      },
      "use": "claim",
      "patient": {
        "reference": "Patient/559b63eb-fb48-45f5-bf6c-4f7c2901007d"
      },
      "created": "2026-10-22",
      "provider": {
        "reference": "Practitioner/892b8b69-a68b-4c1e-b8c3-76e46521dcb2"
      },
      "priority": {
        "coding": [ {
          "system": "http://terminology.hl7.org/CodeSystem/processpriority",
          "code": "normal"
        } ]
      },
      "diagnosis": [ {
        "sequence": 1,
        "diagnosisCodeableConcept": {
          "coding": [ {
            "system": "http://snomed.info/sct",
            "code": "14047009"
          } ]
        },
        "onAdmission": {
          "coding": [ {
            "system": "https://www.cms.gov/Medicare/Medicare-Fee-for-Service-Payment/HospitalAcqCond/Coding",
            "code": "Y"
          } ]
        }
      } ],
      "insurance": [ {
        "sequence": 1,
        "focal": true,
        "coverage": {
          "reference": "Coverage/2f8adeed-83ed-4d76-994f-38c442e3f861"
        }
      } ],
      "item": [ {
        "sequence": 1,
        "diagnosisSequence": [ 1, 2 ],
        "productOrService": {
          "coding": [ {
            "system": "http://terminology.hl7.org/CodeSystem/ex-USCLS",
            "code": "1101"
          } ]
        },
        "encounter": [ {
          "reference": "Encounter/9831ffe7-862e-4bad-9426-6ec32203b108"
        } ]
      } ]
    },
    "request": {
      "method": "PUT",
      "url": "Claim/f62cbda0-1db7-4f13-80f7-1986e59624c6"
    }
  }, {
    "fullUrl": "https://madie.cms.gov/Claim/584dfd20-5ecd-46a5-b50d-f587a05e885a",
    "resource": {
      "resourceType": "Claim",
      "id": "584dfd20-5ecd-46a5-b50d-f587a05e885a",
      "meta": {
        "profile": [ "http://hl7.org/fhir/us/qicore/StructureDefinition/qicore-claim" ]
      },
      "status": "active",
      "type": {
        "coding": [ {
          "system": "http://terminology.hl7.org/CodeSystem/claim-type",
          "code": "institutional",
          "display": "Institutional"
        } ]
      },
      "use": "claim",
      "patient": {
        "reference": "Patient/559b63eb-fb48-45f5-bf6c-4f7c2901007d"
      },
      "created": "2026-11-01",
      "provider": {
        "reference": "Practitioner/892b8b69-a68b-4c1e-b8c3-76e46521dcb2"
      },
      "priority": {
        "coding": [ {
          "system": "http://terminology.hl7.org/CodeSystem/processpriority",
          "code": "normal"
        } ]
      },
      "diagnosis": [ {
        "sequence": 1,
        "diagnosisCodeableConcept": {
          "coding": [ {
            "system": "http://hl7.org/fhir/sid/icd-10-cm",
            "code": "M80.00XA",
            "display": "Age-related osteoporosis with current pathological fracture, unspecified site, initial encounter for fracture"
          } ]
        },
        "onAdmission": {
          "coding": [ {
            "system": "https://www.cms.gov/Medicare/Medicare-Fee-for-Service-Payment/HospitalAcqCond/Coding",
            "code": "N"
          } ]
        }
      } ],
      "insurance": [ {
        "sequence": 1,
        "focal": true,
        "coverage": {
          "reference": "Coverage/2f8adeed-83ed-4d76-994f-38c442e3f861"
        }
      } ],
      "item": [ {
        "sequence": 1,
        "diagnosisSequence": [ 1, 2 ],
        "productOrService": {
          "coding": [ {
            "system": "http://terminology.hl7.org/CodeSystem/ex-USCLS",
            "code": "1101"
          } ]
        },
        "encounter": [ {
          "reference": "Encounter/9831ffe7-862e-4bad-9426-6ec32203b108"
        } ]
      } ]
    },
    "request": {
      "method": "PUT",
      "url": "Claim/584dfd20-5ecd-46a5-b50d-f587a05e885a"
    }
  }, {
    "fullUrl": "https://madie.cms.gov/Practitioner/892b8b69-a68b-4c1e-b8c3-76e46521dcb2",
    "resource": {
      "resourceType": "Practitioner",
      "id": "892b8b69-a68b-4c1e-b8c3-76e46521dcb2",
      "identifier": [ {
        "system": "http://www.cms.gov/identifiers/pracitioners",
        "value": "P12345"
      } ],
      "name": [ {
        "use": "official",
        "family": "Smith",
        "given": [ "John" ]
      } ],
      "qualification": [ {
        "identifier": [ {
          "system": "http://hl7.org/fhir/sid/us-npi",
          "value": "1234567890"
        } ],
        "code": {
          "coding": [ {
            "system": "http://terminology.hl7.org/CodeSystem/v2-0203",
            "code": "MD",
            "display": "Medical License number"
          } ]
        }
      } ]
    },
    "request": {
      "method": "PUT",
      "url": "Practitioner/892b8b69-a68b-4c1e-b8c3-76e46521dcb2"
    }
  }, {
    "fullUrl": "https://madie.cms.gov/Coverage/2f8adeed-83ed-4d76-994f-38c442e3f861",
    "resource": {
      "resourceType": "Coverage",
      "id": "2f8adeed-83ed-4d76-994f-38c442e3f861",
      "status": "active",
      "beneficiary": {
        "reference": "Patient/559b63eb-fb48-45f5-bf6c-4f7c2901007d"
      },
      "payor": [ {
        "reference": "Organization/425d035d-dae2-40ee-a365-f592007d0733"
      } ]
    },
    "request": {
      "method": "PUT",
      "url": "Coverage/2f8adeed-83ed-4d76-994f-38c442e3f861"
    }
  }, {
    "fullUrl": "https://madie.cms.gov/Organization/425d035d-dae2-40ee-a365-f592007d0733",
    "resource": {
      "resourceType": "Organization",
      "id": "425d035d-dae2-40ee-a365-f592007d0733",
      "identifier": [ {
        "system": "http://cms.gov/insurance-ids",
        "value": "AET12345"
      } ],
      "type": [ {
        "coding": [ {
          "system": "http://terminology.hl7.org/CodeSystem/organization-type",
          "code": "prov",
          "display": "Healthcare Provider"
        } ]
      } ],
      "name": "Aetna Insurance",
      "telecom": [ {
        "system": "phone",
        "value": "+1-800-123-4567"
      } ],
      "address": [ {
        "line": [ "123 Main Street" ],
        "city": "Cityville",
        "state": "CA",
        "postalCode": "12345",
        "country": "USA"
      } ]
    },
    "request": {
      "method": "PUT",
      "url": "Organization/425d035d-dae2-40ee-a365-f592007d0733"
    }
  }, {
    "fullUrl": "https://madie.cms.gov/MeasureReport/2837e926-c00c-48a5-8a3f-5291d098d2e5",
    "resource": {
      "resourceType": "MeasureReport",
      "id": "2837e926-c00c-48a5-8a3f-5291d098d2e5",
      "meta": {
        "profile": [ "http://hl7.org/fhir/us/cqfmeasures/StructureDefinition/test-case-cqfm" ]
      },
      "contained": [ {
        "resourceType": "Parameters",
        "id": "58c76f0a-151d-4a46-b5f8-8f21802f2c89-parameters",
        "parameter": [ {
          "name": "subject",
          "valueString": "559b63eb-fb48-45f5-bf6c-4f7c2901007d"
        } ]
      } ],
      "extension": [ {
        "url": "http://hl7.org/fhir/StructureDefinition/cqf-inputParameters",
        "valueReference": {
          "reference": "#58c76f0a-151d-4a46-b5f8-8f21802f2c89-parameters"
        }
      }, {
        "url": "http://hl7.org/fhir/us/cqfmeasures/StructureDefinition/cqfm-testCaseDescription",
        "valueMarkdown": "Test Case - Claim 1 - Fall with POA\n Claim 2 - Injury with no POA\n\nExpected result that DENOM and DENEX = 1"
      } ],
      "modifierExtension": [ {
        "url": "http://hl7.org/fhir/us/cqfmeasures/StructureDefinition/cqfm-isTestCase",
        "valueBoolean": true
      } ],
      "status": "complete",
      "type": "individual",
      "measure": "https://madie.cms.gov/Measure/CMS1017FHIRHHFI",
      "period": {
        "start": "2026-01-01",
        "end": "2026-12-31"
      },
      "group": [ {
        "id": "Group_1",
        "population": [ {
          "id": "InitialPopulation_1",
          "code": {
            "coding": [ {
              "system": "http://terminology.hl7.org/CodeSystem/measure-population",
              "code": "initial-population",
              "display": "Initial Population"
            } ]
          },
          "count": 1
        }, {
          "id": "Denominator_1",
          "code": {
            "coding": [ {
              "system": "http://terminology.hl7.org/CodeSystem/measure-population",
              "code": "denominator",
              "display": "Denominator"
            } ]
          },
          "count": 1
        }, {
          "id": "DenominatorExclusion_1",
          "code": {
            "coding": [ {
              "system": "http://terminology.hl7.org/CodeSystem/measure-population",
              "code": "denominator-exclusion",
              "display": "Denominator Exclusion"
            } ]
          },
          "count": 1
        }, {
          "id": "Numerator_1",
          "code": {
            "coding": [ {
              "system": "http://terminology.hl7.org/CodeSystem/measure-population",
              "code": "numerator",
              "display": "Numerator"
            } ]
          },
          "count": 1
        }, {
          "id": "NumeratorExclusion_1",
          "code": {
            "coding": [ {
              "system": "http://terminology.hl7.org/CodeSystem/measure-population",
              "code": "numerator-exclusion",
              "display": "Numerator Exclusion"
            } ]
          },
          "count": 1
        } ],
        "measureScore": {
          "value": 0.0
        }
      } ],
      "evaluatedResource": [ {
        "reference": "Encounter/9831ffe7-862e-4bad-9426-6ec32203b108"
      }, {
        "reference": "Encounter/b534d3e3-250a-4ce8-b5b9-a34bf71cd354"
      }, {
        "reference": "Patient/559b63eb-fb48-45f5-bf6c-4f7c2901007d"
      }, {
        "reference": "Claim/f62cbda0-1db7-4f13-80f7-1986e59624c6"
      }, {
        "reference": "Claim/584dfd20-5ecd-46a5-b50d-f587a05e885a"
      }, {
        "reference": "Practitioner/892b8b69-a68b-4c1e-b8c3-76e46521dcb2"
      }, {
        "reference": "Coverage/2f8adeed-83ed-4d76-994f-38c442e3f861"
      }, {
        "reference": "Organization/425d035d-dae2-40ee-a365-f592007d0733"
      } ]
    },
    "request": {
      "method": "PUT",
      "url": "MeasureReport/2837e926-c00c-48a5-8a3f-5291d098d2e5"
    }
  } ]
}