{
  "resourceType": "Bundle",
  "id": "DENEXPass-Immunodeficiency",
  "type": "transaction",
  "entry": [ {
    "fullUrl": "https://madie.cms.gov/Patient/01afc812-4d8e-47da-9a2b-805e5554c101",
    "resource": {
      "resourceType": "Patient",
      "id": "01afc812-4d8e-47da-9a2b-805e5554c101",
      "meta": {
        "profile": [ "http://hl7.org/fhir/us/qicore/StructureDefinition/qicore-patient" ]
      },
      "extension": [ {
        "url": "http://hl7.org/fhir/us/core/StructureDefinition/us-core-race",
        "extension": [ {
          "url": "ombCategory",
          "valueCoding": {
            "system": "urn:oid:2.16.840.1.113883.6.238",
            "code": "2028-9",
            "display": "Asian"
          }
        }, {
          "url": "text",
          "valueString": "Asian"
        } ]
      }, {
        "url": "http://hl7.org/fhir/us/core/StructureDefinition/us-core-ethnicity",
        "extension": [ {
          "url": "ombCategory",
          "valueCoding": {
            "system": "urn:oid:2.16.840.1.113883.6.238",
            "code": "2135-2",
            "display": "Hispanic or Latino"
          }
        }, {
          "url": "text",
          "valueString": "Hispanic or Latino"
        } ]
      } ],
      "identifier": [ {
        "system": "http://hospital.smarthealthit.org",
        "value": "999999995"
      } ],
      "name": [ {
        "family": "Bertha",
        "given": [ "Betty" ]
      } ],
      "gender": "female",
      "birthDate": "2024-01-01"
    },
    "request": {
      "method": "PUT",
      "url": "Patient/01afc812-4d8e-47da-9a2b-805e5554c101"
    }
  }, {
    "fullUrl": "https://madie.cms.gov/Encounter/aede3257-93d8-4f01-a816-b1ba66518386",
    "resource": {
      "resourceType": "Encounter",
      "id": "aede3257-93d8-4f01-a816-b1ba66518386",
      "meta": {
        "profile": [ "http://hl7.org/fhir/us/qicore/StructureDefinition/qicore-encounter" ]
      },
      "status": "finished",
      "class": {
        "system": "http://terminology.hl7.org/CodeSystem/v3-ActCode",
        "code": "AMB",
        "display": "ambulatory"
      },
      "type": [ {
        "coding": [ {
          "system": "http://snomed.info/sct",
          "code": "185317003",
          "display": "Telephone encounter (procedure)"
        } ]
      } ],
      "subject": {
        "reference": "Patient/01afc812-4d8e-47da-9a2b-805e5554c101"
      },
      "period": {
        "start": "2026-01-01T01:00:00.000+00:00",
        "end": "2026-01-01T01:15:00.000+00:00"
      }
    },
    "request": {
      "method": "PUT",
      "url": "Encounter/aede3257-93d8-4f01-a816-b1ba66518386"
    }
  }, {
    "fullUrl": "https://madie.cms.gov/Condition/6978ad6c-c122-4291-8067-d012ee69371e",
    "resource": {
      "resourceType": "Condition",
      "id": "6978ad6c-c122-4291-8067-d012ee69371e",
      "meta": {
        "profile": [ "http://hl7.org/fhir/us/qicore/StructureDefinition/qicore-condition-problems-health-concerns" ]
      },
      "clinicalStatus": {
        "coding": [ {
          "system": "http://terminology.hl7.org/CodeSystem/condition-clinical",
          "code": "active"
        } ]
      },
      "category": [ {
        "coding": [ {
          "system": "http://terminology.hl7.org/CodeSystem/condition-category",
          "code": "problem-list-item",
          "display": "Problem List Item"
        } ]
      } ],
      "code": {
        "coding": [ {
          "system": "http://snomed.info/sct",
          "code": "18827005",
          "display": "Complement abnormality (disorder)"
        } ]
      },
      "subject": {
        "reference": "Patient/01afc812-4d8e-47da-9a2b-805e5554c101"
      },
      "onsetDateTime": "2025-01-02T00:00:00.000+00:00"
    },
    "request": {
      "method": "PUT",
      "url": "Condition/6978ad6c-c122-4291-8067-d012ee69371e"
    }
  }, {
    "fullUrl": "https://madie.cms.gov/Immunization/0b0cf793-175f-459d-ba3b-e268d42b0d7f",
    "resource": {
      "resourceType": "Immunization",
      "id": "0b0cf793-175f-459d-ba3b-e268d42b0d7f",
      "meta": {
        "profile": [ "http://hl7.org/fhir/us/qicore/StructureDefinition/qicore-immunization" ]
      },
      "status": "completed",
      "vaccineCode": {
        "coding": [ {
          "system": "http://hl7.org/fhir/sid/cvx",
          "code": "146",
          "display": "DTaP,IPV,Hib,HepB"
        } ]
      },
      "patient": {
        "reference": "Patient/01afc812-4d8e-47da-9a2b-805e5554c101"
      },
      "occurrenceDateTime": "2025-01-02T00:00:00.000+00:00",
      "recorded": "2025-01-02T00:00:00.000+00:00",
      "primarySource": true
    },
    "request": {
      "method": "PUT",
      "url": "Immunization/0b0cf793-175f-459d-ba3b-e268d42b0d7f"
    }
  }, {
    "fullUrl": "https://madie.cms.gov/Immunization/53378472-0fe5-494a-a5cb-6f2d7c1bb953",
    "resource": {
      "resourceType": "Immunization",
      "id": "53378472-0fe5-494a-a5cb-6f2d7c1bb953",
      "meta": {
        "profile": [ "http://hl7.org/fhir/us/qicore/StructureDefinition/qicore-immunization" ]
      },
      "status": "completed",
      "vaccineCode": {
        "coding": [ {
          "system": "http://hl7.org/fhir/sid/cvx",
          "code": "146",
          "display": "DTaP,IPV,Hib,HepB"
        } ]
      },
      "patient": {
        "reference": "Patient/01afc812-4d8e-47da-9a2b-805e5554c101"
      },
      "occurrenceDateTime": "2025-01-05T00:00:00.000+00:00",
      "recorded": "2025-01-02T00:00:00.000+00:00",
      "primarySource": true
    },
    "request": {
      "method": "PUT",
      "url": "Immunization/53378472-0fe5-494a-a5cb-6f2d7c1bb953"
    }
  }, {
    "fullUrl": "https://madie.cms.gov/Immunization/00171e88-b7b3-4392-9ac3-6d0e324778c0",
    "resource": {
      "resourceType": "Immunization",
      "id": "00171e88-b7b3-4392-9ac3-6d0e324778c0",
      "meta": {
        "profile": [ "http://hl7.org/fhir/us/qicore/StructureDefinition/qicore-immunization" ]
      },
      "status": "completed",
      "vaccineCode": {
        "coding": [ {
          "system": "http://hl7.org/fhir/sid/cvx",
          "code": "146",
          "display": "DTaP,IPV,Hib,HepB"
        } ]
      },
      "patient": {
        "reference": "Patient/01afc812-4d8e-47da-9a2b-805e5554c101"
      },
      "occurrenceDateTime": "2025-01-07T00:00:00.000+00:00",
      "recorded": "2025-01-02T00:00:00.000+00:00",
      "primarySource": true
    },
    "request": {
      "method": "PUT",
      "url": "Immunization/00171e88-b7b3-4392-9ac3-6d0e324778c0"
    }
  }, {
    "fullUrl": "https://madie.cms.gov/Immunization/55ca9725-bb1e-4941-92c6-0cf97eab5a05",
    "resource": {
      "resourceType": "Immunization",
      "id": "55ca9725-bb1e-4941-92c6-0cf97eab5a05",
      "meta": {
        "profile": [ "http://hl7.org/fhir/us/qicore/StructureDefinition/qicore-immunization" ]
      },
      "status": "completed",
      "vaccineCode": {
        "coding": [ {
          "system": "http://hl7.org/fhir/sid/cvx",
          "code": "146",
          "display": "DTaP,IPV,Hib,HepB"
        } ]
      },
      "patient": {
        "reference": "Patient/01afc812-4d8e-47da-9a2b-805e5554c101"
      },
      "occurrenceDateTime": "2025-01-10T00:00:00.000+00:00",
      "recorded": "2025-01-02T00:00:00.000+00:00",
      "primarySource": true
    },
    "request": {
      "method": "PUT",
      "url": "Immunization/55ca9725-bb1e-4941-92c6-0cf97eab5a05"
    }
  }, {
    "fullUrl": "https://madie.cms.gov/Immunization/d63e8ee5-0eef-4e38-a9ba-8d516811f8bf",
    "resource": {
      "resourceType": "Immunization",
      "id": "d63e8ee5-0eef-4e38-a9ba-8d516811f8bf",
      "meta": {
        "profile": [ "http://hl7.org/fhir/us/qicore/StructureDefinition/qicore-immunization" ]
      },
      "status": "completed",
      "vaccineCode": {
        "coding": [ {
          "system": "http://hl7.org/fhir/sid/cvx",
          "code": "146",
          "display": "DTaP,IPV,Hib,HepB"
        } ]
      },
      "patient": {
        "reference": "Patient/01afc812-4d8e-47da-9a2b-805e5554c101"
      },
      "occurrenceDateTime": "2025-01-02T00:00:00.000+00:00",
      "recorded": "2025-01-02T00:00:00.000+00:00",
      "primarySource": true
    },
    "request": {
      "method": "PUT",
      "url": "Immunization/d63e8ee5-0eef-4e38-a9ba-8d516811f8bf"
    }
  }, {
    "fullUrl": "https://madie.cms.gov/Immunization/c60b560d-c674-4447-8255-c75b44264681",
    "resource": {
      "resourceType": "Immunization",
      "id": "c60b560d-c674-4447-8255-c75b44264681",
      "meta": {
        "profile": [ "http://hl7.org/fhir/us/qicore/StructureDefinition/qicore-immunization" ]
      },
      "status": "completed",
      "vaccineCode": {
        "coding": [ {
          "system": "http://hl7.org/fhir/sid/cvx",
          "code": "146",
          "display": "DTaP,IPV,Hib,HepB"
        } ]
      },
      "patient": {
        "reference": "Patient/01afc812-4d8e-47da-9a2b-805e5554c101"
      },
      "occurrenceDateTime": "2025-01-06T00:00:00.000+00:00",
      "recorded": "2025-01-02T00:00:00.000+00:00",
      "primarySource": true
    },
    "request": {
      "method": "PUT",
      "url": "Immunization/c60b560d-c674-4447-8255-c75b44264681"
    }
  }, {
    "fullUrl": "https://madie.cms.gov/Immunization/9fcf103f-0776-4f2e-a28c-af3e957df42f",
    "resource": {
      "resourceType": "Immunization",
      "id": "9fcf103f-0776-4f2e-a28c-af3e957df42f",
      "meta": {
        "profile": [ "http://hl7.org/fhir/us/qicore/StructureDefinition/qicore-immunization" ]
      },
      "status": "completed",
      "vaccineCode": {
        "coding": [ {
          "system": "http://hl7.org/fhir/sid/cvx",
          "code": "146",
          "display": "DTaP,IPV,Hib,HepB"
        } ]
      },
      "patient": {
        "reference": "Patient/01afc812-4d8e-47da-9a2b-805e5554c101"
      },
      "occurrenceDateTime": "2025-01-09T00:00:00.000+00:00",
      "recorded": "2025-01-02T00:00:00.000+00:00",
      "primarySource": true
    },
    "request": {
      "method": "PUT",
      "url": "Immunization/9fcf103f-0776-4f2e-a28c-af3e957df42f"
    }
  }, {
    "fullUrl": "https://madie.cms.gov/Immunization/22b8262c-e67f-4a2c-83cf-6d4fff78c847",
    "resource": {
      "resourceType": "Immunization",
      "id": "22b8262c-e67f-4a2c-83cf-6d4fff78c847",
      "meta": {
        "profile": [ "http://hl7.org/fhir/us/qicore/StructureDefinition/qicore-immunization" ]
      },
      "status": "completed",
      "vaccineCode": {
        "coding": [ {
          "system": "http://hl7.org/fhir/sid/cvx",
          "code": "94",
          "display": "measles, mumps, rubella, and varicella virus vaccine"
        } ]
      },
      "patient": {
        "reference": "Patient/01afc812-4d8e-47da-9a2b-805e5554c101"
      },
      "occurrenceDateTime": "2025-01-02T00:00:00.000+00:00",
      "recorded": "2025-01-02T00:00:00.000+00:00",
      "primarySource": true
    },
    "request": {
      "method": "PUT",
      "url": "Immunization/22b8262c-e67f-4a2c-83cf-6d4fff78c847"
    }
  }, {
    "fullUrl": "https://madie.cms.gov/Immunization/27cc6a29-0cf5-4b08-b7fd-e969bd4fd506",
    "resource": {
      "resourceType": "Immunization",
      "id": "27cc6a29-0cf5-4b08-b7fd-e969bd4fd506",
      "meta": {
        "profile": [ "http://hl7.org/fhir/us/qicore/StructureDefinition/qicore-immunization" ]
      },
      "status": "completed",
      "vaccineCode": {
        "coding": [ {
          "system": "http://hl7.org/fhir/sid/cvx",
          "code": "49",
          "display": "Haemophilus influenzae type b vaccine, PRP-OMP conjugate"
        } ]
      },
      "patient": {
        "reference": "Patient/01afc812-4d8e-47da-9a2b-805e5554c101"
      },
      "occurrenceDateTime": "2025-01-02T00:00:00.000+00:00",
      "recorded": "2025-01-02T00:00:00.000+00:00",
      "primarySource": true
    },
    "request": {
      "method": "PUT",
      "url": "Immunization/27cc6a29-0cf5-4b08-b7fd-e969bd4fd506"
    }
  }, {
    "fullUrl": "https://madie.cms.gov/Immunization/388add13-8f12-4176-a3fc-5f912e23621e",
    "resource": {
      "resourceType": "Immunization",
      "id": "388add13-8f12-4176-a3fc-5f912e23621e",
      "meta": {
        "profile": [ "http://hl7.org/fhir/us/qicore/StructureDefinition/qicore-immunization" ]
      },
      "status": "completed",
      "vaccineCode": {
        "coding": [ {
          "system": "http://hl7.org/fhir/sid/cvx",
          "code": "49",
          "display": "Haemophilus influenzae type b vaccine, PRP-OMP conjugate"
        } ]
      },
      "patient": {
        "reference": "Patient/01afc812-4d8e-47da-9a2b-805e5554c101"
      },
      "occurrenceDateTime": "2025-01-02T00:00:00.000+00:00",
      "recorded": "2025-01-02T00:00:00.000+00:00",
      "primarySource": true
    },
    "request": {
      "method": "PUT",
      "url": "Immunization/388add13-8f12-4176-a3fc-5f912e23621e"
    }
  }, {
    "fullUrl": "https://madie.cms.gov/Immunization/efe7906a-0550-4716-82a8-f3ab0950fade",
    "resource": {
      "resourceType": "Immunization",
      "id": "efe7906a-0550-4716-82a8-f3ab0950fade",
      "meta": {
        "profile": [ "http://hl7.org/fhir/us/qicore/StructureDefinition/qicore-immunization" ]
      },
      "status": "completed",
      "vaccineCode": {
        "coding": [ {
          "system": "http://hl7.org/fhir/sid/cvx",
          "code": "49",
          "display": "Haemophilus influenzae type b vaccine, PRP-OMP conjugate"
        } ]
      },
      "patient": {
        "reference": "Patient/01afc812-4d8e-47da-9a2b-805e5554c101"
      },
      "occurrenceDateTime": "2025-01-02T00:00:00.000+00:00",
      "recorded": "2025-01-02T00:00:00.000+00:00",
      "primarySource": true
    },
    "request": {
      "method": "PUT",
      "url": "Immunization/efe7906a-0550-4716-82a8-f3ab0950fade"
    }
  }, {
    "fullUrl": "https://madie.cms.gov/Immunization/01a96743-0983-47a1-bd9e-aed6c389840b",
    "resource": {
      "resourceType": "Immunization",
      "id": "01a96743-0983-47a1-bd9e-aed6c389840b",
      "meta": {
        "profile": [ "http://hl7.org/fhir/us/qicore/StructureDefinition/qicore-immunization" ]
      },
      "status": "completed",
      "vaccineCode": {
        "coding": [ {
          "system": "http://hl7.org/fhir/sid/cvx",
          "code": "51",
          "display": "Haemophilus influenzae type b conjugate and Hepatitis B vaccine"
        } ]
      },
      "patient": {
        "reference": "Patient/01afc812-4d8e-47da-9a2b-805e5554c101"
      },
      "occurrenceDateTime": "2025-01-02T00:00:00.000+00:00",
      "recorded": "2025-01-02T00:00:00.000+00:00",
      "primarySource": true
    },
    "request": {
      "method": "PUT",
      "url": "Immunization/01a96743-0983-47a1-bd9e-aed6c389840b"
    }
  }, {
    "fullUrl": "https://madie.cms.gov/Immunization/9bb691da-d746-4735-87da-a2288967d4e1",
    "resource": {
      "resourceType": "Immunization",
      "id": "9bb691da-d746-4735-87da-a2288967d4e1",
      "meta": {
        "profile": [ "http://hl7.org/fhir/us/qicore/StructureDefinition/qicore-immunization" ]
      },
      "status": "completed",
      "vaccineCode": {
        "coding": [ {
          "system": "http://hl7.org/fhir/sid/cvx",
          "code": "51",
          "display": "Haemophilus influenzae type b conjugate and Hepatitis B vaccine"
        } ]
      },
      "patient": {
        "reference": "Patient/01afc812-4d8e-47da-9a2b-805e5554c101"
      },
      "occurrenceDateTime": "2025-01-10T00:00:00.000+00:00",
      "recorded": "2025-01-02T00:00:00.000+00:00",
      "primarySource": true
    },
    "request": {
      "method": "PUT",
      "url": "Immunization/9bb691da-d746-4735-87da-a2288967d4e1"
    }
  }, {
    "fullUrl": "https://madie.cms.gov/Immunization/69d33392-e917-4044-a1b4-1f1a01491da2",
    "resource": {
      "resourceType": "Immunization",
      "id": "69d33392-e917-4044-a1b4-1f1a01491da2",
      "meta": {
        "profile": [ "http://hl7.org/fhir/us/qicore/StructureDefinition/qicore-immunization" ]
      },
      "status": "completed",
      "vaccineCode": {
        "coding": [ {
          "system": "http://hl7.org/fhir/sid/cvx",
          "code": "51",
          "display": "Haemophilus influenzae type b conjugate and Hepatitis B vaccine"
        } ]
      },
      "patient": {
        "reference": "Patient/01afc812-4d8e-47da-9a2b-805e5554c101"
      },
      "occurrenceDateTime": "2025-01-12T00:00:00.000+00:00",
      "recorded": "2025-01-02T00:00:00.000+00:00",
      "primarySource": true
    },
    "request": {
      "method": "PUT",
      "url": "Immunization/69d33392-e917-4044-a1b4-1f1a01491da2"
    }
  }, {
    "fullUrl": "https://madie.cms.gov/Immunization/543a9169-691b-42d2-abed-d872774e414d",
    "resource": {
      "resourceType": "Immunization",
      "id": "543a9169-691b-42d2-abed-d872774e414d",
      "meta": {
        "profile": [ "http://hl7.org/fhir/us/qicore/StructureDefinition/qicore-immunization" ]
      },
      "status": "completed",
      "vaccineCode": {
        "coding": [ {
          "system": "http://hl7.org/fhir/sid/cvx",
          "code": "94",
          "display": "measles, mumps, rubella, and varicella virus vaccine"
        } ]
      },
      "patient": {
        "reference": "Patient/01afc812-4d8e-47da-9a2b-805e5554c101"
      },
      "occurrenceDateTime": "2025-01-02T00:00:00.000+00:00",
      "recorded": "2025-01-02T00:00:00.000+00:00",
      "primarySource": true
    },
    "request": {
      "method": "PUT",
      "url": "Immunization/543a9169-691b-42d2-abed-d872774e414d"
    }
  }, {
    "fullUrl": "https://madie.cms.gov/Immunization/79aa2f33-5522-4d0b-8438-456c7efeaf70",
    "resource": {
      "resourceType": "Immunization",
      "id": "79aa2f33-5522-4d0b-8438-456c7efeaf70",
      "meta": {
        "profile": [ "http://hl7.org/fhir/us/qicore/StructureDefinition/qicore-immunization" ]
      },
      "status": "completed",
      "vaccineCode": {
        "coding": [ {
          "system": "http://hl7.org/fhir/sid/cvx",
          "code": "215",
          "display": "Pneumococcal conjugate vaccine 15-valent (PCV15), polysaccharide CRM197 conjugate, adjuvant, preservative free"
        } ]
      },
      "patient": {
        "reference": "Patient/01afc812-4d8e-47da-9a2b-805e5554c101"
      },
      "occurrenceDateTime": "2025-01-12T00:00:00.000+00:00",
      "recorded": "2025-01-02T00:00:00.000+00:00",
      "primarySource": true
    },
    "request": {
      "method": "PUT",
      "url": "Immunization/79aa2f33-5522-4d0b-8438-456c7efeaf70"
    }
  }, {
    "fullUrl": "https://madie.cms.gov/Immunization/5b525e46-d331-4488-a98b-ffd9765f5936",
    "resource": {
      "resourceType": "Immunization",
      "id": "5b525e46-d331-4488-a98b-ffd9765f5936",
      "meta": {
        "profile": [ "http://hl7.org/fhir/us/qicore/StructureDefinition/qicore-immunization" ]
      },
      "status": "completed",
      "vaccineCode": {
        "coding": [ {
          "system": "http://hl7.org/fhir/sid/cvx",
          "code": "215",
          "display": "Pneumococcal conjugate vaccine 15-valent (PCV15), polysaccharide CRM197 conjugate, adjuvant, preservative free"
        } ]
      },
      "patient": {
        "reference": "Patient/01afc812-4d8e-47da-9a2b-805e5554c101"
      },
      "occurrenceDateTime": "2025-01-14T00:00:00.000+00:00",
      "recorded": "2025-01-02T00:00:00.000+00:00",
      "primarySource": true
    },
    "request": {
      "method": "PUT",
      "url": "Immunization/5b525e46-d331-4488-a98b-ffd9765f5936"
    }
  }, {
    "fullUrl": "https://madie.cms.gov/Immunization/2dc4e60c-c4ef-40d7-bc0f-02b8634cb932",
    "resource": {
      "resourceType": "Immunization",
      "id": "2dc4e60c-c4ef-40d7-bc0f-02b8634cb932",
      "meta": {
        "profile": [ "http://hl7.org/fhir/us/qicore/StructureDefinition/qicore-immunization" ]
      },
      "status": "completed",
      "vaccineCode": {
        "coding": [ {
          "system": "http://hl7.org/fhir/sid/cvx",
          "code": "215",
          "display": "Pneumococcal conjugate vaccine 15-valent (PCV15), polysaccharide CRM197 conjugate, adjuvant, preservative free"
        } ]
      },
      "patient": {
        "reference": "Patient/01afc812-4d8e-47da-9a2b-805e5554c101"
      },
      "occurrenceDateTime": "2025-01-20T00:00:00.000+00:00",
      "recorded": "2025-01-02T00:00:00.000+00:00",
      "primarySource": true
    },
    "request": {
      "method": "PUT",
      "url": "Immunization/2dc4e60c-c4ef-40d7-bc0f-02b8634cb932"
    }
  }, {
    "fullUrl": "https://madie.cms.gov/Immunization/58534528-31b2-49b7-be07-36fc7080a51f",
    "resource": {
      "resourceType": "Immunization",
      "id": "58534528-31b2-49b7-be07-36fc7080a51f",
      "meta": {
        "profile": [ "http://hl7.org/fhir/us/qicore/StructureDefinition/qicore-immunization" ]
      },
      "status": "completed",
      "vaccineCode": {
        "coding": [ {
          "system": "http://hl7.org/fhir/sid/cvx",
          "code": "215",
          "display": "Pneumococcal conjugate vaccine 15-valent (PCV15), polysaccharide CRM197 conjugate, adjuvant, preservative free"
        } ]
      },
      "patient": {
        "reference": "Patient/01afc812-4d8e-47da-9a2b-805e5554c101"
      },
      "occurrenceDateTime": "2025-01-22T00:00:00.000+00:00",
      "recorded": "2025-01-02T00:00:00.000+00:00",
      "primarySource": true
    },
    "request": {
      "method": "PUT",
      "url": "Immunization/58534528-31b2-49b7-be07-36fc7080a51f"
    }
  }, {
    "fullUrl": "https://madie.cms.gov/Immunization/6b305561-9491-4908-b32d-dd299eac89ff",
    "resource": {
      "resourceType": "Immunization",
      "id": "6b305561-9491-4908-b32d-dd299eac89ff",
      "meta": {
        "profile": [ "http://hl7.org/fhir/us/qicore/StructureDefinition/qicore-immunization" ]
      },
      "status": "completed",
      "vaccineCode": {
        "coding": [ {
          "system": "http://hl7.org/fhir/sid/cvx",
          "code": "85",
          "display": "hepatitis A vaccine, unspecified formulation"
        } ]
      },
      "patient": {
        "reference": "Patient/01afc812-4d8e-47da-9a2b-805e5554c101"
      },
      "occurrenceDateTime": "2026-01-02T00:00:00.000+00:00",
      "recorded": "2026-01-02T00:00:00.000+00:00",
      "primarySource": true
    },
    "request": {
      "method": "PUT",
      "url": "Immunization/6b305561-9491-4908-b32d-dd299eac89ff"
    }
  }, {
    "fullUrl": "https://madie.cms.gov/Immunization/7c25b1f9-cd69-4d45-b31e-2cb6a089c98a",
    "resource": {
      "resourceType": "Immunization",
      "id": "7c25b1f9-cd69-4d45-b31e-2cb6a089c98a",
      "meta": {
        "profile": [ "http://hl7.org/fhir/us/qicore/StructureDefinition/qicore-immunization" ]
      },
      "status": "completed",
      "vaccineCode": {
        "coding": [ {
          "system": "http://hl7.org/fhir/sid/cvx",
          "code": "119",
          "display": "rotavirus, live, monovalent vaccine"
        } ]
      },
      "patient": {
        "reference": "Patient/01afc812-4d8e-47da-9a2b-805e5554c101"
      },
      "occurrenceDateTime": "2026-01-02T00:00:00.000+00:00",
      "recorded": "2026-01-02T00:00:00.000+00:00",
      "primarySource": true
    },
    "request": {
      "method": "PUT",
      "url": "Immunization/7c25b1f9-cd69-4d45-b31e-2cb6a089c98a"
    }
  }, {
    "fullUrl": "https://madie.cms.gov/Immunization/589cd3b5-089a-4775-a92f-1f2e1d9d456b",
    "resource": {
      "resourceType": "Immunization",
      "id": "589cd3b5-089a-4775-a92f-1f2e1d9d456b",
      "meta": {
        "profile": [ "http://hl7.org/fhir/us/qicore/StructureDefinition/qicore-immunization" ]
      },
      "status": "completed",
      "vaccineCode": {
        "coding": [ {
          "system": "http://hl7.org/fhir/sid/cvx",
          "code": "119",
          "display": "rotavirus, live, monovalent vaccine"
        } ]
      },
      "patient": {
        "reference": "Patient/01afc812-4d8e-47da-9a2b-805e5554c101"
      },
      "occurrenceDateTime": "2025-01-07T00:00:00.000+00:00",
      "recorded": "2025-01-02T00:00:00.000+00:00",
      "primarySource": true
    },
    "request": {
      "method": "PUT",
      "url": "Immunization/589cd3b5-089a-4775-a92f-1f2e1d9d456b"
    }
  }, {
    "fullUrl": "https://madie.cms.gov/Immunization/573cec9c-7277-4dda-b806-3522515087e7",
    "resource": {
      "resourceType": "Immunization",
      "id": "573cec9c-7277-4dda-b806-3522515087e7",
      "meta": {
        "profile": [ "http://hl7.org/fhir/us/qicore/StructureDefinition/qicore-immunization" ]
      },
      "status": "completed",
      "vaccineCode": {
        "coding": [ {
          "system": "http://hl7.org/fhir/sid/cvx",
          "code": "153",
          "display": "Influenza, injectable, MDCK, preservative free"
        } ]
      },
      "patient": {
        "reference": "Patient/01afc812-4d8e-47da-9a2b-805e5554c101"
      },
      "occurrenceDateTime": "2026-01-02T00:00:00.000+00:00",
      "recorded": "2026-01-02T00:00:00.000+00:00",
      "primarySource": true
    },
    "request": {
      "method": "PUT",
      "url": "Immunization/573cec9c-7277-4dda-b806-3522515087e7"
    }
  }, {
    "fullUrl": "https://madie.cms.gov/Immunization/8d055a8d-0cf2-4af4-acd8-b92cf26b2562",
    "resource": {
      "resourceType": "Immunization",
      "id": "8d055a8d-0cf2-4af4-acd8-b92cf26b2562",
      "meta": {
        "profile": [ "http://hl7.org/fhir/us/qicore/StructureDefinition/qicore-immunization" ]
      },
      "status": "completed",
      "vaccineCode": {
        "coding": [ {
          "system": "http://hl7.org/fhir/sid/cvx",
          "code": "153",
          "display": "Influenza, injectable, MDCK, preservative free"
        } ]
      },
      "patient": {
        "reference": "Patient/01afc812-4d8e-47da-9a2b-805e5554c101"
      },
      "occurrenceDateTime": "2026-01-10T00:00:00.000+00:00",
      "recorded": "2026-01-02T00:00:00.000+00:00",
      "primarySource": true
    },
    "request": {
      "method": "PUT",
      "url": "Immunization/8d055a8d-0cf2-4af4-acd8-b92cf26b2562"
    }
  }, {
    "fullUrl": "https://madie.cms.gov/MeasureReport/4186e41f-7398-4b14-8418-c69e0d192c7d",
    "resource": {
      "resourceType": "MeasureReport",
      "id": "4186e41f-7398-4b14-8418-c69e0d192c7d",
      "meta": {
        "profile": [ "http://hl7.org/fhir/us/cqfmeasures/StructureDefinition/test-case-cqfm" ]
      },
      "contained": [ {
        "resourceType": "Parameters",
        "id": "512b00f5-2641-48d4-9373-540233ee58db-parameters",
        "parameter": [ {
          "name": "subject",
          "valueString": "01afc812-4d8e-47da-9a2b-805e5554c101"
        } ]
      } ],
      "extension": [ {
        "url": "http://hl7.org/fhir/StructureDefinition/cqf-inputParameters",
        "valueReference": {
          "reference": "#512b00f5-2641-48d4-9373-540233ee58db-parameters"
        }
      }, {
        "url": "http://hl7.org/fhir/us/cqfmeasures/StructureDefinition/cqfm-testCaseDescription",
        "valueMarkdown": "Patient has immunodeficiency"
      } ],
      "modifierExtension": [ {
        "url": "http://hl7.org/fhir/us/cqfmeasures/StructureDefinition/cqfm-isTestCase",
        "valueBoolean": true
      } ],
      "status": "complete",
      "type": "individual",
      "measure": "https://madie.cms.gov/Measure/CMS117FHIRChildImmunStatus",
      "period": {
        "start": "2026-01-01",
        "end": "2026-12-31"
      },
      "group": [ {
        "id": "Group_1",
        "population": [ {
          "id": "InitialPopulation_1",
          "code": {
            "coding": [ {
              "system": "http://terminology.hl7.org/CodeSystem/measure-population",
              "code": "initial-population",
              "display": "Initial Population"
            } ]
          },
          "count": 1
        }, {
          "id": "Denominator_1",
          "code": {
            "coding": [ {
              "system": "http://terminology.hl7.org/CodeSystem/measure-population",
              "code": "denominator",
              "display": "Denominator"
            } ]
          },
          "count": 1
        }, {
          "id": "DenominatorExclusion_1",
          "code": {
            "coding": [ {
              "system": "http://terminology.hl7.org/CodeSystem/measure-population",
              "code": "denominator-exclusion",
              "display": "Denominator Exclusion"
            } ]
          },
          "count": 1
        }, {
          "id": "Numerator_1",
          "code": {
            "coding": [ {
              "system": "http://terminology.hl7.org/CodeSystem/measure-population",
              "code": "numerator",
              "display": "Numerator"
            } ]
          },
          "count": 0
        } ],
        "measureScore": {
          "value": 1.0
        }
      } ],
      "evaluatedResource": [ {
        "reference": "Patient/01afc812-4d8e-47da-9a2b-805e5554c101"
      }, {
        "reference": "Encounter/aede3257-93d8-4f01-a816-b1ba66518386"
      }, {
        "reference": "Condition/6978ad6c-c122-4291-8067-d012ee69371e"
      }, {
        "reference": "Immunization/0b0cf793-175f-459d-ba3b-e268d42b0d7f"
      }, {
        "reference": "Immunization/53378472-0fe5-494a-a5cb-6f2d7c1bb953"
      }, {
        "reference": "Immunization/00171e88-b7b3-4392-9ac3-6d0e324778c0"
      }, {
        "reference": "Immunization/55ca9725-bb1e-4941-92c6-0cf97eab5a05"
      }, {
        "reference": "Immunization/d63e8ee5-0eef-4e38-a9ba-8d516811f8bf"
      }, {
        "reference": "Immunization/c60b560d-c674-4447-8255-c75b44264681"
      }, {
        "reference": "Immunization/9fcf103f-0776-4f2e-a28c-af3e957df42f"
      }, {
        "reference": "Immunization/22b8262c-e67f-4a2c-83cf-6d4fff78c847"
      }, {
        "reference": "Immunization/27cc6a29-0cf5-4b08-b7fd-e969bd4fd506"
      }, {
        "reference": "Immunization/388add13-8f12-4176-a3fc-5f912e23621e"
      }, {
        "reference": "Immunization/efe7906a-0550-4716-82a8-f3ab0950fade"
      }, {
        "reference": "Immunization/01a96743-0983-47a1-bd9e-aed6c389840b"
      }, {
        "reference": "Immunization/9bb691da-d746-4735-87da-a2288967d4e1"
      }, {
        "reference": "Immunization/69d33392-e917-4044-a1b4-1f1a01491da2"
      }, {
        "reference": "Immunization/543a9169-691b-42d2-abed-d872774e414d"
      }, {
        "reference": "Immunization/79aa2f33-5522-4d0b-8438-456c7efeaf70"
      }, {
        "reference": "Immunization/5b525e46-d331-4488-a98b-ffd9765f5936"
      }, {
        "reference": "Immunization/2dc4e60c-c4ef-40d7-bc0f-02b8634cb932"
      }, {
        "reference": "Immunization/58534528-31b2-49b7-be07-36fc7080a51f"
      }, {
        "reference": "Immunization/6b305561-9491-4908-b32d-dd299eac89ff"
      }, {
        "reference": "Immunization/7c25b1f9-cd69-4d45-b31e-2cb6a089c98a"
      }, {
        "reference": "Immunization/589cd3b5-089a-4775-a92f-1f2e1d9d456b"
      }, {
        "reference": "Immunization/573cec9c-7277-4dda-b806-3522515087e7"
      }, {
        "reference": "Immunization/8d055a8d-0cf2-4af4-acd8-b92cf26b2562"
      } ]
    },
    "request": {
      "method": "PUT",
      "url": "MeasureReport/4186e41f-7398-4b14-8418-c69e0d192c7d"
    }
  } ]
}