{
  "resourceType": "Bundle",
  "id": "633b3f9e0968f80122503cc8",
  "type": "transaction",
  "entry": [ {
    "fullUrl": "https://madie.cms.gov/Patient/3939704e-01db-4666-8be6-12dbcb398006",
    "resource": {
      "resourceType": "Patient",
      "id": "3939704e-01db-4666-8be6-12dbcb398006",
      "meta": {
        "profile": [ "http://hl7.org/fhir/us/qicore/StructureDefinition/qicore-patient" ]
      },
      "text": {
        "status": "generated",
        "div": "<div xmlns=\"http://www.w3.org/1999/xhtml\"><div class=\"hapiHeaderText\">AssPrfDELRelvDtEQIPStart<b>DENOMPASS</b></div><table class=\"hapiPropertyTable\"><tbody><tr><td>Date of birth</td><td><span>01 February 2004</span></td></tr></tbody></table></div>"
      },
      "extension": [ {
        "url": "http://hl7.org/fhir/us/core/StructureDefinition/us-core-race",
        "extension": [ {
          "url": "ombCategory",
          "valueCoding": {
            "system": "urn:oid:2.16.840.1.113883.6.238",
            "code": "1002-5",
            "display": "American Indian or Alaska Native",
            "userSelected": true
          }
        }, {
          "url": "text",
          "valueString": "American Indian or Alaska Native"
        } ]
      }, {
        "url": "http://hl7.org/fhir/us/core/StructureDefinition/us-core-ethnicity",
        "extension": [ {
          "url": "ombCategory",
          "valueCoding": {
            "system": "urn:oid:2.16.840.1.113883.6.238",
            "code": "2135-2",
            "display": "Hispanic or Latino",
            "userSelected": true
          }
        }, {
          "url": "text",
          "valueString": "Hispanic or Latino"
        } ]
      } ],
      "identifier": [ {
        "type": {
          "coding": [ {
            "system": "http://terminology.hl7.org/CodeSystem/v2-0203",
            "code": "MR"
          } ]
        },
        "system": "https://bonnie-fhir.healthit.gov/",
        "value": "633b3f9e0968f80122503cc8"
      } ],
      "active": true,
      "name": [ {
        "use": "usual",
        "family": "DENOMPass",
        "given": [ "AssPrfDELRelvDtEQIPStart" ]
      } ],
      "gender": "female",
      "birthDate": "2005-02-01"
    },
    "request": {
      "method": "PUT",
      "url": "Patient/3939704e-01db-4666-8be6-12dbcb398006"
    }
  }, {
    "fullUrl": "https://madie.cms.gov/Observation/a3165667-6c8b-48a6-9225-c48cc528471e",
    "resource": {
      "resourceType": "Observation",
      "id": "a3165667-6c8b-48a6-9225-c48cc528471e",
      "meta": {
        "profile": [ "http://hl7.org/fhir/us/qicore/StructureDefinition/qicore-simple-observation" ]
      },
      "status": "final",
      "category": [ {
        "coding": [ {
          "system": "http://terminology.hl7.org/CodeSystem/observation-category",
          "code": "exam",
          "display": "exam",
          "userSelected": true
        } ]
      } ],
      "code": {
        "coding": [ {
          "system": "http://loinc.org",
          "code": "93857-1"
        } ]
      },
      "subject": {
        "reference": "Patient/3939704e-01db-4666-8be6-12dbcb398006"
      },
      "effectiveDateTime": "2026-02-01T08:00:00.000+00:00",
      "performer": [ {
        "reference": "Organization/example1",
        "display": "Hendricks Country Hospital"
      } ],
      "valueDateTime": "2026-02-01T08:00:00.000+00:00"
    },
    "request": {
      "method": "PUT",
      "url": "Observation/a3165667-6c8b-48a6-9225-c48cc528471e"
    }
  }, {
    "fullUrl": "https://madie.cms.gov/Observation/1250b44d-7a63-4173-869e-2573ab46e25a",
    "resource": {
      "resourceType": "Observation",
      "id": "1250b44d-7a63-4173-869e-2573ab46e25a",
      "meta": {
        "profile": [ "http://hl7.org/fhir/us/qicore/StructureDefinition/qicore-simple-observation" ]
      },
      "status": "final",
      "category": [ {
        "coding": [ {
          "system": "http://terminology.hl7.org/CodeSystem/observation-category",
          "code": "exam",
          "display": "exam",
          "userSelected": true
        } ]
      } ],
      "code": {
        "coding": [ {
          "system": "http://loinc.org",
          "code": "11778-8"
        } ]
      },
      "subject": {
        "reference": "Patient/3939704e-01db-4666-8be6-12dbcb398006"
      },
      "effectiveDateTime": "2026-02-01T08:00:00.000+00:00",
      "performer": [ {
        "reference": "Organization/example1",
        "display": "Hendricks Country Hospital"
      } ],
      "valueDateTime": "2026-02-01T08:00:00.000+00:00"
    },
    "request": {
      "method": "PUT",
      "url": "Observation/1250b44d-7a63-4173-869e-2573ab46e25a"
    }
  }, {
    "fullUrl": "https://madie.cms.gov/Encounter/c1085412-ca13-4110-a051-1b8b83b3d084",
    "resource": {
      "resourceType": "Encounter",
      "id": "c1085412-ca13-4110-a051-1b8b83b3d084",
      "meta": {
        "profile": [ "http://hl7.org/fhir/us/qicore/StructureDefinition/qicore-encounter" ]
      },
      "status": "finished",
      "class": {
        "system": "http://terminology.hl7.org/CodeSystem/v3-ActCode",
        "code": "IMP",
        "display": "inpatient encounter"
      },
      "type": [ {
        "coding": [ {
          "system": "http://snomed.info/sct",
          "code": "183452005"
        } ]
      } ],
      "subject": {
        "reference": "Patient/3939704e-01db-4666-8be6-12dbcb398006"
      },
      "period": {
        "start": "2026-02-01T08:00:00.000+00:00",
        "end": "2026-02-05T08:15:00.000+00:00"
      }
    },
    "request": {
      "method": "PUT",
      "url": "Encounter/c1085412-ca13-4110-a051-1b8b83b3d084"
    }
  }, {
    "fullUrl": "https://madie.cms.gov/Procedure/5505e4ee-813b-499f-a82a-0b9373a3afab",
    "resource": {
      "resourceType": "Procedure",
      "id": "5505e4ee-813b-499f-a82a-0b9373a3afab",
      "meta": {
        "profile": [ "http://hl7.org/fhir/us/qicore/StructureDefinition/qicore-procedure" ]
      },
      "extension": [ {
        "url": "http://hl7.org/fhir/us/qicore/StructureDefinition/qicore-recorded",
        "valueDateTime": "2014-04-05T13:35:00.000+00:00"
      } ],
      "status": "completed",
      "code": {
        "coding": [ {
          "system": "http://snomed.info/sct",
          "code": "10745001"
        } ]
      },
      "subject": {
        "reference": "Patient/3939704e-01db-4666-8be6-12dbcb398006"
      },
      "performedPeriod": {
        "start": "2026-02-01T08:00:00.000+00:00",
        "end": "2026-02-05T08:15:00.000+00:00"
      }
    },
    "request": {
      "method": "PUT",
      "url": "Procedure/5505e4ee-813b-499f-a82a-0b9373a3afab"
    }
  }, {
    "fullUrl": "https://madie.cms.gov/Coverage/6513cf1c-2496-43a4-be84-d7d51fa1c13d",
    "resource": {
      "resourceType": "Coverage",
      "id": "6513cf1c-2496-43a4-be84-d7d51fa1c13d",
      "meta": {
        "profile": [ "http://hl7.org/fhir/us/qicore/StructureDefinition/qicore-coverage" ]
      },
      "status": "active",
      "subscriberId": "523435",
      "beneficiary": {
        "reference": "Patient/3939704e-01db-4666-8be6-12dbcb398006"
      },
      "relationship": {
        "coding": [ {
          "system": "http://terminology.hl7.org/CodeSystem/subscriber-relationship",
          "code": "self"
        } ]
      },
      "payor": [ {
        "reference": "Organization/08e7fc2f-e7da-4ac3-bde2-b7c49e507da7"
      } ]
    },
    "request": {
      "method": "PUT",
      "url": "Coverage/6513cf1c-2496-43a4-be84-d7d51fa1c13d"
    }
  }, {
    "fullUrl": "https://madie.cms.gov/Organization/08e7fc2f-e7da-4ac3-bde2-b7c49e507da7",
    "resource": {
      "resourceType": "Organization",
      "id": "08e7fc2f-e7da-4ac3-bde2-b7c49e507da7",
      "meta": {
        "profile": [ "http://hl7.org/fhir/us/qicore/StructureDefinition/qicore-organization" ]
      },
      "identifier": [ {
        "use": "temp",
        "system": "urn:oid:2.16.840.1.113883.4.4",
        "value": "21-3259825"
      } ],
      "active": true,
      "type": [ {
        "coding": [ {
          "system": "http://terminology.hl7.org/CodeSystem/organization-type",
          "code": "pay",
          "display": "Payer"
        } ]
      } ],
      "name": "Blue Cross Blue Shield of Texas",
      "telecom": [ {
        "system": "phone",
        "value": "(+1) 972-766-6900"
      } ],
      "address": [ {
        "use": "billing",
        "type": "postal",
        "line": [ "P.O. Box 660044" ],
        "city": "Dallas",
        "state": "TX",
        "postalCode": "75266-0044",
        "country": "USA"
      } ]
    },
    "request": {
      "method": "PUT",
      "url": "Organization/08e7fc2f-e7da-4ac3-bde2-b7c49e507da7"
    }
  }, {
    "fullUrl": "https://madie.cms.gov/Practitioner/8d6a704a-cc0f-4610-8f62-74c2f4745e48",
    "resource": {
      "resourceType": "Practitioner",
      "id": "8d6a704a-cc0f-4610-8f62-74c2f4745e48",
      "meta": {
        "profile": [ "http://hl7.org/fhir/us/qicore/StructureDefinition/qicore-practitioner" ]
      },
      "identifier": [ {
        "system": "http://hl7.org/fhir/sid/us-npi",
        "value": "1234567890"
      } ],
      "name": [ {
        "family": "Evil",
        "prefix": [ "Dr" ]
      } ]
    },
    "request": {
      "method": "PUT",
      "url": "Practitioner/8d6a704a-cc0f-4610-8f62-74c2f4745e48"
    }
  }, {
    "fullUrl": "https://madie.cms.gov/MeasureReport/31043c73-7c97-4a60-8fae-09795dcc48dd",
    "resource": {
      "resourceType": "MeasureReport",
      "id": "31043c73-7c97-4a60-8fae-09795dcc48dd",
      "meta": {
        "profile": [ "http://hl7.org/fhir/us/cqfmeasures/StructureDefinition/test-case-cqfm" ]
      },
      "contained": [ {
        "resourceType": "Parameters",
        "id": "9d4a76a1-3fe6-4ebc-adb0-bf885037d05f-parameters",
        "parameter": [ {
          "name": "subject",
          "valueString": "3939704e-01db-4666-8be6-12dbcb398006"
        } ]
      } ],
      "extension": [ {
        "url": "http://hl7.org/fhir/StructureDefinition/cqf-inputParameters",
        "valueReference": {
          "reference": "#9d4a76a1-3fe6-4ebc-adb0-bf885037d05f-parameters"
        }
      }, {
        "url": "http://hl7.org/fhir/us/cqfmeasures/StructureDefinition/cqfm-testCaseDescription",
        "valueMarkdown": "Relevant date/Time of delivery (based on assessment performed) is equal to the inpatient start.\n"
      } ],
      "modifierExtension": [ {
        "url": "http://hl7.org/fhir/us/cqfmeasures/StructureDefinition/cqfm-isTestCase",
        "valueBoolean": true
      } ],
      "status": "complete",
      "type": "individual",
      "measure": "https://madie.cms.gov/Measure/CMS1028FHIRPCSevereOBComps",
      "period": {
        "start": "2026-01-01",
        "end": "2026-12-31"
      },
      "group": [ {
        "id": "Group_1",
        "population": [ {
          "id": "InitialPopulation_1",
          "code": {
            "coding": [ {
              "system": "http://terminology.hl7.org/CodeSystem/measure-population",
              "code": "initial-population",
              "display": "Initial Population"
            } ]
          },
          "count": 1
        }, {
          "id": "Denominator_1",
          "code": {
            "coding": [ {
              "system": "http://terminology.hl7.org/CodeSystem/measure-population",
              "code": "denominator",
              "display": "Denominator"
            } ]
          },
          "count": 1
        }, {
          "id": "Numerator_1",
          "code": {
            "coding": [ {
              "system": "http://terminology.hl7.org/CodeSystem/measure-population",
              "code": "numerator",
              "display": "Numerator"
            } ]
          },
          "count": 0
        }, {
          "id": "NumeratorExclusion_1",
          "code": {
            "coding": [ {
              "system": "http://terminology.hl7.org/CodeSystem/measure-population",
              "code": "numerator-exclusion",
              "display": "Numerator Exclusion"
            } ]
          },
          "count": 0
        } ],
        "measureScore": {
          "value": 0.0
        }
      }, {
        "id": "Group_2",
        "population": [ {
          "id": "InitialPopulation_2",
          "code": {
            "coding": [ {
              "system": "http://terminology.hl7.org/CodeSystem/measure-population",
              "code": "initial-population",
              "display": "Initial Population"
            } ]
          },
          "count": 1
        }, {
          "id": "Denominator_2",
          "code": {
            "coding": [ {
              "system": "http://terminology.hl7.org/CodeSystem/measure-population",
              "code": "denominator",
              "display": "Denominator"
            } ]
          },
          "count": 1
        }, {
          "id": "Numerator_2",
          "code": {
            "coding": [ {
              "system": "http://terminology.hl7.org/CodeSystem/measure-population",
              "code": "numerator",
              "display": "Numerator"
            } ]
          },
          "count": 0
        }, {
          "id": "NumeratorExclusion_2",
          "code": {
            "coding": [ {
              "system": "http://terminology.hl7.org/CodeSystem/measure-population",
              "code": "numerator-exclusion",
              "display": "Numerator Exclusion"
            } ]
          },
          "count": 0
        } ],
        "measureScore": {
          "value": 0.0
        }
      } ],
      "evaluatedResource": [ {
        "reference": "Patient/3939704e-01db-4666-8be6-12dbcb398006"
      }, {
        "reference": "Observation/a3165667-6c8b-48a6-9225-c48cc528471e"
      }, {
        "reference": "Observation/1250b44d-7a63-4173-869e-2573ab46e25a"
      }, {
        "reference": "Encounter/c1085412-ca13-4110-a051-1b8b83b3d084"
      }, {
        "reference": "Procedure/5505e4ee-813b-499f-a82a-0b9373a3afab"
      }, {
        "reference": "Coverage/6513cf1c-2496-43a4-be84-d7d51fa1c13d"
      }, {
        "reference": "Organization/08e7fc2f-e7da-4ac3-bde2-b7c49e507da7"
      }, {
        "reference": "Practitioner/8d6a704a-cc0f-4610-8f62-74c2f4745e48"
      } ]
    },
    "request": {
      "method": "PUT",
      "url": "MeasureReport/31043c73-7c97-4a60-8fae-09795dcc48dd"
    }
  } ]
}