{
  "resourceType": "Bundle",
  "id": "tests-NumerPass-RVwithAnticoagulantOrderAtAdmission-bundle",
  "type": "transaction",
  "entry": [ {
    "fullUrl": "https://madie.cms.gov/Encounter/f9e5efac-b145-49a3-9c17-0cc802c4e74e",
    "resource": {
      "resourceType": "Encounter",
      "id": "f9e5efac-b145-49a3-9c17-0cc802c4e74e",
      "meta": {
        "profile": [ "http://hl7.org/fhir/us/qicore/StructureDefinition/qicore-encounter" ]
      },
      "status": "finished",
      "class": {
        "system": "http://terminology.hl7.org/CodeSystem/v3-ActCode",
        "code": "IMP",
        "display": "inpatient encounter"
      },
      "type": [ {
        "coding": [ {
          "system": "http://snomed.info/sct",
          "code": "183452005"
        } ]
      } ],
      "subject": {
        "reference": "Patient/fbbd3f4a-3e8e-40b9-ac83-0e80b2c129ec"
      },
      "period": {
        "start": "2026-10-19T08:30:00.000Z",
        "end": "2026-10-21T08:15:00.000Z"
      },
      "reasonCode": [ {
        "coding": [ {
          "system": "http://snomed.info/sct",
          "code": "14047009"
        } ]
      }, {
        "coding": [ {
          "system": "http://snomed.info/sct",
          "code": "64859006"
        } ]
      } ]
    },
    "request": {
      "method": "PUT",
      "url": "Encounter/f9e5efac-b145-49a3-9c17-0cc802c4e74e"
    }
  }, {
    "fullUrl": "https://madie.cms.gov/Encounter/a4d34395-5da9-4c63-9dc2-a798d9249033",
    "resource": {
      "resourceType": "Encounter",
      "id": "a4d34395-5da9-4c63-9dc2-a798d9249033",
      "meta": {
        "profile": [ "http://hl7.org/fhir/us/qicore/StructureDefinition/qicore-encounter" ]
      },
      "status": "finished",
      "class": {
        "system": "http://terminology.hl7.org/CodeSystem/v3-ActCode",
        "code": "EMER",
        "display": "emergency encounter"
      },
      "type": [ {
        "coding": [ {
          "system": "http://snomed.info/sct",
          "code": "4525004"
        } ]
      } ],
      "subject": {
        "reference": "Patient/fbbd3f4a-3e8e-40b9-ac83-0e80b2c129ec"
      },
      "period": {
        "start": "2026-10-18T09:15:00.000Z",
        "end": "2026-10-19T08:15:00.000Z"
      }
    },
    "request": {
      "method": "PUT",
      "url": "Encounter/a4d34395-5da9-4c63-9dc2-a798d9249033"
    }
  }, {
    "fullUrl": "https://madie.cms.gov/Patient/fbbd3f4a-3e8e-40b9-ac83-0e80b2c129ec",
    "resource": {
      "resourceType": "Patient",
      "id": "fbbd3f4a-3e8e-40b9-ac83-0e80b2c129ec",
      "meta": {
        "profile": [ "http://hl7.org/fhir/us/qicore/StructureDefinition/qicore-patient" ]
      },
      "extension": [ {
        "url": "http://hl7.org/fhir/us/core/StructureDefinition/us-core-race",
        "extension": [ {
          "url": "ombCategory",
          "valueCoding": {
            "system": "urn:oid:2.16.840.1.113883.6.238",
            "code": "2106-3",
            "display": "White"
          }
        }, {
          "url": "text",
          "valueString": "White"
        } ]
      }, {
        "url": "http://hl7.org/fhir/us/core/StructureDefinition/us-core-ethnicity",
        "extension": [ {
          "url": "ombCategory",
          "valueCoding": {
            "system": "urn:oid:2.16.840.1.113883.6.238",
            "code": "2135-2",
            "display": "Hispanic or Latino"
          }
        }, {
          "url": "text",
          "valueString": "Hispanic or Latino"
        } ]
      }, {
        "url": "http://hl7.org/fhir/us/core/StructureDefinition/us-core-sex",
        "valueCode": "248153007"
      } ],
      "identifier": [ {
        "system": "http://hospital.smarthealthit.org",
        "value": "999999999"
      } ],
      "name": [ {
        "family": "Example",
        "given": [ "Patient" ]
      } ],
      "gender": "female",
      "birthDate": "1956-01-01"
    },
    "request": {
      "method": "PUT",
      "url": "Patient/fbbd3f4a-3e8e-40b9-ac83-0e80b2c129ec"
    }
  }, {
    "fullUrl": "https://madie.cms.gov/Claim/0a8491c2-e37f-49d7-992a-a45baf22cd41",
    "resource": {
      "resourceType": "Claim",
      "id": "0a8491c2-e37f-49d7-992a-a45baf22cd41",
      "meta": {
        "profile": [ "http://hl7.org/fhir/us/qicore/StructureDefinition/qicore-claim" ]
      },
      "status": "active",
      "type": {
        "coding": [ {
          "system": "http://terminology.hl7.org/CodeSystem/claim-type",
          "code": "institutional",
          "display": "Institutional"
        } ]
      },
      "use": "claim",
      "patient": {
        "reference": "Patient/fbbd3f4a-3e8e-40b9-ac83-0e80b2c129ec"
      },
      "created": "2026-10-22",
      "provider": {
        "reference": "Practitioner/df380c25-61ff-43a2-bf06-f90370ec41c4"
      },
      "priority": {
        "coding": [ {
          "system": "http://terminology.hl7.org/CodeSystem/processpriority",
          "code": "normal"
        } ]
      },
      "diagnosis": [ {
        "sequence": 1,
        "diagnosisCodeableConcept": {
          "coding": [ {
            "system": "http://snomed.info/sct",
            "code": "14047009"
          } ]
        }
      } ],
      "insurance": [ {
        "sequence": 1,
        "focal": true,
        "coverage": {
          "reference": "Coverage/0209b7fe-5cec-45bd-ae60-8704df29c4b6"
        }
      } ],
      "item": [ {
        "sequence": 1,
        "diagnosisSequence": [ 1, 2 ],
        "productOrService": {
          "coding": [ {
            "system": "http://terminology.hl7.org/CodeSystem/ex-USCLS",
            "code": "1101"
          } ]
        },
        "encounter": [ {
          "reference": "Encounter/f9e5efac-b145-49a3-9c17-0cc802c4e74e"
        } ]
      } ]
    },
    "request": {
      "method": "PUT",
      "url": "Claim/0a8491c2-e37f-49d7-992a-a45baf22cd41"
    }
  }, {
    "fullUrl": "https://madie.cms.gov/Claim/be8d011d-797a-410e-a3b2-05765362b0d9",
    "resource": {
      "resourceType": "Claim",
      "id": "be8d011d-797a-410e-a3b2-05765362b0d9",
      "meta": {
        "profile": [ "http://hl7.org/fhir/us/qicore/StructureDefinition/qicore-claim" ]
      },
      "status": "active",
      "type": {
        "coding": [ {
          "system": "http://terminology.hl7.org/CodeSystem/claim-type",
          "code": "institutional",
          "display": "Institutional"
        } ]
      },
      "use": "claim",
      "patient": {
        "reference": "Patient/fbbd3f4a-3e8e-40b9-ac83-0e80b2c129ec"
      },
      "created": "2026-11-01",
      "provider": {
        "reference": "Practitioner/practitioner-1"
      },
      "priority": {
        "coding": [ {
          "system": "http://terminology.hl7.org/CodeSystem/processpriority",
          "code": "normal"
        } ]
      },
      "diagnosis": [ {
        "sequence": 1,
        "diagnosisCodeableConcept": {
          "coding": [ {
            "system": "http://hl7.org/fhir/sid/icd-10-cm",
            "code": "M80.00XA",
            "display": "Age-related osteoporosis with current pathological fracture, unspecified site, initial encounter for fracture"
          } ]
        }
      } ],
      "insurance": [ {
        "sequence": 1,
        "focal": true,
        "coverage": {
          "reference": "Coverage/coverage-1"
        }
      } ],
      "item": [ {
        "sequence": 1,
        "diagnosisSequence": [ 1, 2 ],
        "productOrService": {
          "coding": [ {
            "system": "http://terminology.hl7.org/CodeSystem/ex-USCLS",
            "code": "1101"
          } ]
        },
        "encounter": [ {
          "reference": "Encounter/f9e5efac-b145-49a3-9c17-0cc802c4e74e"
        } ]
      } ]
    },
    "request": {
      "method": "PUT",
      "url": "Claim/be8d011d-797a-410e-a3b2-05765362b0d9"
    }
  }, {
    "fullUrl": "https://madie.cms.gov/MedicationRequest/12f094db-1756-4321-b133-7ce94b54d932",
    "resource": {
      "resourceType": "MedicationRequest",
      "id": "12f094db-1756-4321-b133-7ce94b54d932",
      "meta": {
        "profile": [ "http://hl7.org/fhir/us/qicore/StructureDefinition/qicore-medicationrequest" ]
      },
      "status": "active",
      "intent": "order",
      "category": [ {
        "coding": [ {
          "system": "http://terminology.hl7.org/CodeSystem/medicationrequest-category",
          "code": "community",
          "display": "Community"
        } ]
      } ],
      "reportedReference": {
        "reference": "Patient/fbbd3f4a-3e8e-40b9-ac83-0e80b2c129ec"
      },
      "medicationCodeableConcept": {
        "coding": [ {
          "system": "http://www.nlm.nih.gov/research/umls/rxnorm",
          "code": "1364435",
          "display": "apixaban 2.5 mg oral tablet"
        } ]
      },
      "subject": {
        "reference": "Patient/fbbd3f4a-3e8e-40b9-ac83-0e80b2c129ec"
      },
      "authoredOn": "2026-10-15",
      "requester": {
        "reference": "Practitioner/df380c25-61ff-43a2-bf06-f90370ec41c4"
      },
      "dispenseRequest": {
        "quantity": {
          "value": 14,
          "unit": "tablet",
          "system": "http://unitsofmeasure.org",
          "code": "{tablet}"
        },
        "expectedSupplyDuration": {
          "value": 14,
          "unit": "days",
          "system": "http://unitsofmeasure.org",
          "code": "d"
        }
      }
    },
    "request": {
      "method": "PUT",
      "url": "MedicationRequest/12f094db-1756-4321-b133-7ce94b54d932"
    }
  }, {
    "fullUrl": "https://madie.cms.gov/Practitioner/df380c25-61ff-43a2-bf06-f90370ec41c4",
    "resource": {
      "resourceType": "Practitioner",
      "id": "df380c25-61ff-43a2-bf06-f90370ec41c4",
      "identifier": [ {
        "system": "http://www.cms.gov/identifiers/pracitioners",
        "value": "P12345"
      } ],
      "name": [ {
        "use": "official",
        "family": "Smith",
        "given": [ "John" ]
      } ],
      "qualification": [ {
        "identifier": [ {
          "system": "http://hl7.org/fhir/sid/us-npi",
          "value": "1234567890"
        } ],
        "code": {
          "coding": [ {
            "system": "http://terminology.hl7.org/CodeSystem/v2-0203",
            "code": "MD",
            "display": "Medical License number"
          } ]
        }
      } ]
    },
    "request": {
      "method": "PUT",
      "url": "Practitioner/df380c25-61ff-43a2-bf06-f90370ec41c4"
    }
  }, {
    "fullUrl": "https://madie.cms.gov/Coverage/0209b7fe-5cec-45bd-ae60-8704df29c4b6",
    "resource": {
      "resourceType": "Coverage",
      "id": "0209b7fe-5cec-45bd-ae60-8704df29c4b6",
      "status": "active",
      "beneficiary": {
        "reference": "Patient/fbbd3f4a-3e8e-40b9-ac83-0e80b2c129ec"
      },
      "payor": [ {
        "reference": "Organization/9e6be2f6-4df1-4b93-b1e9-f40b16d90301"
      } ]
    },
    "request": {
      "method": "PUT",
      "url": "Coverage/0209b7fe-5cec-45bd-ae60-8704df29c4b6"
    }
  }, {
    "fullUrl": "https://madie.cms.gov/Organization/9e6be2f6-4df1-4b93-b1e9-f40b16d90301",
    "resource": {
      "resourceType": "Organization",
      "id": "9e6be2f6-4df1-4b93-b1e9-f40b16d90301",
      "identifier": [ {
        "system": "http://cms.gov/insurance-ids",
        "value": "AET12345"
      } ],
      "type": [ {
        "coding": [ {
          "system": "http://terminology.hl7.org/CodeSystem/organization-type",
          "code": "prov",
          "display": "Healthcare Provider"
        } ]
      } ],
      "name": "Aetna Insurance",
      "telecom": [ {
        "system": "phone",
        "value": "+1-800-123-4567"
      } ],
      "address": [ {
        "line": [ "123 Main Street" ],
        "city": "Cityville",
        "state": "CA",
        "postalCode": "12345",
        "country": "USA"
      } ]
    },
    "request": {
      "method": "PUT",
      "url": "Organization/9e6be2f6-4df1-4b93-b1e9-f40b16d90301"
    }
  }, {
    "fullUrl": "https://madie.cms.gov/MeasureReport/66785c4c-992c-404b-b8fb-39d71a2a1f16",
    "resource": {
      "resourceType": "MeasureReport",
      "id": "66785c4c-992c-404b-b8fb-39d71a2a1f16",
      "meta": {
        "profile": [ "http://hl7.org/fhir/us/cqfmeasures/StructureDefinition/test-case-cqfm" ]
      },
      "contained": [ {
        "resourceType": "Parameters",
        "id": "54509b92-0b38-4318-857c-0adbd2ec7e96-parameters",
        "parameter": [ {
          "name": "subject",
          "valueString": "fbbd3f4a-3e8e-40b9-ac83-0e80b2c129ec"
        } ]
      } ],
      "extension": [ {
        "url": "http://hl7.org/fhir/StructureDefinition/cqf-inputParameters",
        "valueReference": {
          "reference": "#54509b92-0b38-4318-857c-0adbd2ec7e96-parameters"
        }
      }, {
        "url": "http://hl7.org/fhir/us/cqfmeasures/StructureDefinition/cqfm-testCaseDescription",
        "valueMarkdown": "RVariable Encounter With Anticoagulant Order At Admission"
      } ],
      "modifierExtension": [ {
        "url": "http://hl7.org/fhir/us/cqfmeasures/StructureDefinition/cqfm-isTestCase",
        "valueBoolean": true
      } ],
      "status": "complete",
      "type": "individual",
      "measure": "https://madie.cms.gov/Measure/CMS1017FHIRHHFI",
      "period": {
        "start": "2026-01-01",
        "end": "2026-12-31"
      },
      "group": [ {
        "id": "Group_1",
        "population": [ {
          "id": "InitialPopulation_1",
          "code": {
            "coding": [ {
              "system": "http://terminology.hl7.org/CodeSystem/measure-population",
              "code": "initial-population",
              "display": "Initial Population"
            } ]
          },
          "count": 1
        }, {
          "id": "Denominator_1",
          "code": {
            "coding": [ {
              "system": "http://terminology.hl7.org/CodeSystem/measure-population",
              "code": "denominator",
              "display": "Denominator"
            } ]
          },
          "count": 1
        }, {
          "id": "MeasureObservation_1_1_1",
          "code": {
            "coding": [ {
              "system": "http://terminology.hl7.org/CodeSystem/measure-population",
              "code": "measure-observation",
              "display": "Measure Observation"
            } ]
          },
          "count": 2
        }, {
          "id": "DenominatorExclusion_1",
          "code": {
            "coding": [ {
              "system": "http://terminology.hl7.org/CodeSystem/measure-population",
              "code": "denominator-exclusion",
              "display": "Denominator Exclusion"
            } ]
          },
          "count": 0
        }, {
          "id": "Numerator_1",
          "code": {
            "coding": [ {
              "system": "http://terminology.hl7.org/CodeSystem/measure-population",
              "code": "numerator",
              "display": "Numerator"
            } ]
          },
          "count": 1
        }, {
          "id": "MeasureObservation_1_2_1",
          "code": {
            "coding": [ {
              "system": "http://terminology.hl7.org/CodeSystem/measure-population",
              "code": "measure-observation",
              "display": "Measure Observation"
            } ]
          },
          "count": 1
        }, {
          "id": "NumeratorExclusion_1",
          "code": {
            "coding": [ {
              "system": "http://terminology.hl7.org/CodeSystem/measure-population",
              "code": "numerator-exclusion",
              "display": "Numerator Exclusion"
            } ]
          },
          "count": 0
        } ],
        "measureScore": {
          "value": 0.0
        }
      } ],
      "evaluatedResource": [ {
        "reference": "Encounter/f9e5efac-b145-49a3-9c17-0cc802c4e74e"
      }, {
        "reference": "Encounter/a4d34395-5da9-4c63-9dc2-a798d9249033"
      }, {
        "reference": "Patient/fbbd3f4a-3e8e-40b9-ac83-0e80b2c129ec"
      }, {
        "reference": "Claim/0a8491c2-e37f-49d7-992a-a45baf22cd41"
      }, {
        "reference": "Claim/be8d011d-797a-410e-a3b2-05765362b0d9"
      }, {
        "reference": "MedicationRequest/12f094db-1756-4321-b133-7ce94b54d932"
      }, {
        "reference": "Practitioner/df380c25-61ff-43a2-bf06-f90370ec41c4"
      }, {
        "reference": "Coverage/0209b7fe-5cec-45bd-ae60-8704df29c4b6"
      }, {
        "reference": "Organization/9e6be2f6-4df1-4b93-b1e9-f40b16d90301"
      } ]
    },
    "request": {
      "method": "PUT",
      "url": "MeasureReport/66785c4c-992c-404b-b8fb-39d71a2a1f16"
    }
  } ]
}