{
  "resourceType": "Bundle",
  "id": "NUMPass-LabA1cNoResultInMP",
  "type": "transaction",
  "entry": [ {
    "fullUrl": "https://madie.cms.gov/Patient/21695544-0997-4b9a-989c-a535da22d033",
    "resource": {
      "resourceType": "Patient",
      "id": "21695544-0997-4b9a-989c-a535da22d033",
      "meta": {
        "profile": [ "http://hl7.org/fhir/us/qicore/StructureDefinition/qicore-patient" ]
      },
      "extension": [ {
        "url": "http://hl7.org/fhir/us/core/StructureDefinition/us-core-race",
        "extension": [ {
          "url": "ombCategory",
          "valueCoding": {
            "system": "urn:oid:2.16.840.1.113883.6.238",
            "code": "2028-9",
            "display": "Asian"
          }
        }, {
          "url": "text",
          "valueString": "Asian"
        } ]
      }, {
        "url": "http://hl7.org/fhir/us/core/StructureDefinition/us-core-ethnicity",
        "extension": [ {
          "url": "ombCategory",
          "valueCoding": {
            "system": "urn:oid:2.16.840.1.113883.6.238",
            "code": "2135-2",
            "display": "Hispanic or Latino"
          }
        }, {
          "url": "text",
          "valueString": "Hispanic or Latino"
        } ]
      } ],
      "identifier": [ {
        "system": "http://hospital.smarthealthit.org",
        "value": "999999995"
      } ],
      "name": [ {
        "family": "Bertha",
        "given": [ "Betty" ]
      } ],
      "gender": "female",
      "birthDate": "2008-01-01"
    },
    "request": {
      "method": "PUT",
      "url": "Patient/21695544-0997-4b9a-989c-a535da22d033"
    }
  }, {
    "fullUrl": "https://madie.cms.gov/Encounter/6eafc501-f5a6-4835-ae4b-20a3bd7eba77",
    "resource": {
      "resourceType": "Encounter",
      "id": "6eafc501-f5a6-4835-ae4b-20a3bd7eba77",
      "meta": {
        "profile": [ "http://hl7.org/fhir/us/qicore/StructureDefinition/qicore-encounter" ]
      },
      "status": "finished",
      "class": {
        "system": "http://terminology.hl7.org/CodeSystem/v3-ActCode",
        "code": "AMB",
        "display": "ambulatory"
      },
      "type": [ {
        "coding": [ {
          "system": "http://snomed.info/sct",
          "code": "185460008",
          "display": "Home visit request by patient (procedure)"
        } ]
      } ],
      "subject": {
        "reference": "Patient/21695544-0997-4b9a-989c-a535da22d033"
      },
      "period": {
        "start": "2026-01-01T00:00:00.000+00:00",
        "end": "2026-01-01T00:15:00.000+00:00"
      }
    },
    "request": {
      "method": "PUT",
      "url": "Encounter/6eafc501-f5a6-4835-ae4b-20a3bd7eba77"
    }
  }, {
    "fullUrl": "https://madie.cms.gov/Condition/cbf6223f-2514-4f6e-bb94-cb1b954c8204",
    "resource": {
      "resourceType": "Condition",
      "id": "cbf6223f-2514-4f6e-bb94-cb1b954c8204",
      "meta": {
        "profile": [ "http://hl7.org/fhir/us/qicore/StructureDefinition/qicore-condition-encounter-diagnosis" ]
      },
      "clinicalStatus": {
        "coding": [ {
          "system": "http://terminology.hl7.org/CodeSystem/condition-clinical",
          "code": "active"
        } ]
      },
      "category": [ {
        "coding": [ {
          "system": "http://terminology.hl7.org/CodeSystem/condition-category",
          "code": "encounter-diagnosis",
          "display": "Encounter Diagnosis"
        } ]
      } ],
      "code": {
        "coding": [ {
          "system": "http://snomed.info/sct",
          "code": "102781000119107",
          "display": "Sensory neuropathy due to type 1 diabetes mellitus (disorder)"
        } ]
      },
      "subject": {
        "reference": "Patient/21695544-0997-4b9a-989c-a535da22d033"
      },
      "onsetDateTime": "2026-01-01T23:59:00.000+00:00"
    },
    "request": {
      "method": "PUT",
      "url": "Condition/cbf6223f-2514-4f6e-bb94-cb1b954c8204"
    }
  }, {
    "fullUrl": "https://madie.cms.gov/Observation/52f367ec-e0b1-4610-916e-3563ca38991b",
    "resource": {
      "resourceType": "Observation",
      "id": "52f367ec-e0b1-4610-916e-3563ca38991b",
      "meta": {
        "profile": [ "http://hl7.org/fhir/us/qicore/StructureDefinition/qicore-observation-lab" ]
      },
      "status": "corrected",
      "category": [ {
        "coding": [ {
          "system": "http://terminology.hl7.org/CodeSystem/observation-category",
          "code": "laboratory"
        } ]
      } ],
      "code": {
        "coding": [ {
          "system": "http://loinc.org",
          "code": "17855-8",
          "display": "Hemoglobin A1c/Hemoglobin.total in Blood by calculation"
        } ]
      },
      "subject": {
        "reference": "Patient/21695544-0997-4b9a-989c-a535da22d033"
      },
      "effectivePeriod": {
        "start": "2026-01-02T00:00:00.000+00:00",
        "end": "2026-01-03T00:00:00.000+00:00"
      },
      "dataAbsentReason": {
        "extension": [ {
          "url": "http://hl7.org/fhir/StructureDefinition/data-absent-reason",
          "valueCode": "unknown"
        } ]
      }
    },
    "request": {
      "method": "PUT",
      "url": "Observation/52f367ec-e0b1-4610-916e-3563ca38991b"
    }
  }, {
    "fullUrl": "https://madie.cms.gov/MeasureReport/0d751987-5b7f-4ace-bb6a-e5ef5d2d036b",
    "resource": {
      "resourceType": "MeasureReport",
      "id": "0d751987-5b7f-4ace-bb6a-e5ef5d2d036b",
      "meta": {
        "profile": [ "http://hl7.org/fhir/us/cqfmeasures/StructureDefinition/test-case-cqfm" ]
      },
      "contained": [ {
        "resourceType": "Parameters",
        "id": "5336a1d2-651b-4077-ab3a-ce454e4a8b0d-parameters",
        "parameter": [ {
          "name": "subject",
          "valueString": "21695544-0997-4b9a-989c-a535da22d033"
        } ]
      } ],
      "extension": [ {
        "url": "http://hl7.org/fhir/StructureDefinition/cqf-inputParameters",
        "valueReference": {
          "reference": "#5336a1d2-651b-4077-ab3a-ce454e4a8b0d-parameters"
        }
      }, {
        "url": "http://hl7.org/fhir/us/cqfmeasures/StructureDefinition/cqfm-testCaseDescription",
        "valueMarkdown": "HbA1c Lab done with null result in the MP"
      } ],
      "modifierExtension": [ {
        "url": "http://hl7.org/fhir/us/cqfmeasures/StructureDefinition/cqfm-isTestCase",
        "valueBoolean": true
      } ],
      "status": "complete",
      "type": "individual",
      "measure": "https://madie.cms.gov/Measure/CMS122FHIRDiabetesAssessGT9Pct",
      "period": {
        "start": "2026-01-01",
        "end": "2026-12-31"
      },
      "group": [ {
        "id": "Group_1",
        "population": [ {
          "id": "InitialPopulation_1",
          "code": {
            "coding": [ {
              "system": "http://terminology.hl7.org/CodeSystem/measure-population",
              "code": "initial-population",
              "display": "Initial Population"
            } ]
          },
          "count": 1
        }, {
          "id": "Denominator_1",
          "code": {
            "coding": [ {
              "system": "http://terminology.hl7.org/CodeSystem/measure-population",
              "code": "denominator",
              "display": "Denominator"
            } ]
          },
          "count": 1
        }, {
          "id": "DenominatorExclusion_1",
          "code": {
            "coding": [ {
              "system": "http://terminology.hl7.org/CodeSystem/measure-population",
              "code": "denominator-exclusion",
              "display": "Denominator Exclusion"
            } ]
          },
          "count": 0
        }, {
          "id": "Numerator_1",
          "code": {
            "coding": [ {
              "system": "http://terminology.hl7.org/CodeSystem/measure-population",
              "code": "numerator",
              "display": "Numerator"
            } ]
          },
          "count": 1
        } ],
        "measureScore": {
          "value": 1.0
        }
      } ],
      "evaluatedResource": [ {
        "reference": "Patient/21695544-0997-4b9a-989c-a535da22d033"
      }, {
        "reference": "Encounter/6eafc501-f5a6-4835-ae4b-20a3bd7eba77"
      }, {
        "reference": "Condition/cbf6223f-2514-4f6e-bb94-cb1b954c8204"
      }, {
        "reference": "Observation/52f367ec-e0b1-4610-916e-3563ca38991b"
      } ]
    },
    "request": {
      "method": "PUT",
      "url": "MeasureReport/0d751987-5b7f-4ace-bb6a-e5ef5d2d036b"
    }
  } ]
}