{
  "resourceType": "Bundle",
  "id": "DENOMPass-OfficeOrOtherOutpatientVisit",
  "type": "transaction",
  "entry": [ {
    "fullUrl": "https://madie.cms.gov/Patient/3ed7af00-2d6c-4e8f-8b14-4bf7c58c6c70",
    "resource": {
      "resourceType": "Patient",
      "id": "3ed7af00-2d6c-4e8f-8b14-4bf7c58c6c70",
      "meta": {
        "profile": [ "http://hl7.org/fhir/us/qicore/StructureDefinition/qicore-patient" ]
      },
      "extension": [ {
        "url": "http://hl7.org/fhir/us/core/StructureDefinition/us-core-race",
        "extension": [ {
          "url": "ombCategory",
          "valueCoding": {
            "system": "urn:oid:2.16.840.1.113883.6.238",
            "code": "2028-9",
            "display": "Asian"
          }
        }, {
          "url": "text",
          "valueString": "Asian"
        } ]
      }, {
        "url": "http://hl7.org/fhir/us/core/StructureDefinition/us-core-ethnicity",
        "extension": [ {
          "url": "ombCategory",
          "valueCoding": {
            "system": "urn:oid:2.16.840.1.113883.6.238",
            "code": "2135-2",
            "display": "Hispanic or Latino"
          }
        }, {
          "url": "text",
          "valueString": "Hispanic or Latino"
        } ]
      } ],
      "identifier": [ {
        "system": "http://hospital.smarthealthit.org",
        "value": "999999995"
      } ],
      "name": [ {
        "family": "Bertha",
        "given": [ "Betty" ]
      } ],
      "gender": "female",
      "birthDate": "2024-01-01"
    },
    "request": {
      "method": "PUT",
      "url": "Patient/3ed7af00-2d6c-4e8f-8b14-4bf7c58c6c70"
    }
  }, {
    "fullUrl": "https://madie.cms.gov/Encounter/bca9f29b-fa88-4b04-8ba8-fbcbf20bfbee",
    "resource": {
      "resourceType": "Encounter",
      "id": "bca9f29b-fa88-4b04-8ba8-fbcbf20bfbee",
      "meta": {
        "profile": [ "http://hl7.org/fhir/us/qicore/StructureDefinition/qicore-encounter" ]
      },
      "status": "finished",
      "class": {
        "system": "http://terminology.hl7.org/CodeSystem/v3-ActCode",
        "code": "AMB",
        "display": "ambulatory"
      },
      "type": [ {
        "coding": [ {
          "system": "http://www.ama-assn.org/go/cpt",
          "code": "99211",
          "display": "Office or other outpatient visit for the evaluation and management of an established patient that may not require the presence of a physician or other qualified health care professional"
        } ]
      } ],
      "subject": {
        "reference": "Patient/3ed7af00-2d6c-4e8f-8b14-4bf7c58c6c70"
      },
      "period": {
        "start": "2026-01-01T01:00:00.000+00:00",
        "end": "2026-01-01T01:15:00.000+00:00"
      }
    },
    "request": {
      "method": "PUT",
      "url": "Encounter/bca9f29b-fa88-4b04-8ba8-fbcbf20bfbee"
    }
  }, {
    "fullUrl": "https://madie.cms.gov/MeasureReport/5bc3765e-d12f-4059-bdbc-e696bd0e2e07",
    "resource": {
      "resourceType": "MeasureReport",
      "id": "5bc3765e-d12f-4059-bdbc-e696bd0e2e07",
      "meta": {
        "profile": [ "http://hl7.org/fhir/us/cqfmeasures/StructureDefinition/test-case-cqfm" ]
      },
      "contained": [ {
        "resourceType": "Parameters",
        "id": "37f8008a-891a-4cf2-a10b-d79de759f4d0-parameters",
        "parameter": [ {
          "name": "subject",
          "valueString": "3ed7af00-2d6c-4e8f-8b14-4bf7c58c6c70"
        } ]
      } ],
      "extension": [ {
        "url": "http://hl7.org/fhir/StructureDefinition/cqf-inputParameters",
        "valueReference": {
          "reference": "#37f8008a-891a-4cf2-a10b-d79de759f4d0-parameters"
        }
      }, {
        "url": "http://hl7.org/fhir/us/cqfmeasures/StructureDefinition/cqfm-testCaseDescription",
        "valueMarkdown": "Patient has office or other outpatient encounter (encounter retrieve with DRC)"
      } ],
      "modifierExtension": [ {
        "url": "http://hl7.org/fhir/us/cqfmeasures/StructureDefinition/cqfm-isTestCase",
        "valueBoolean": true
      } ],
      "status": "complete",
      "type": "individual",
      "measure": "https://madie.cms.gov/Measure/ChildhoodImmunizationStatusFHIR",
      "period": {
        "start": "2026-01-01",
        "end": "2026-12-31"
      },
      "group": [ {
        "id": "Group_1",
        "population": [ {
          "id": "InitialPopulation_1",
          "code": {
            "coding": [ {
              "system": "http://terminology.hl7.org/CodeSystem/measure-population",
              "code": "initial-population",
              "display": "Initial Population"
            } ]
          },
          "count": 1
        }, {
          "id": "Denominator_1",
          "code": {
            "coding": [ {
              "system": "http://terminology.hl7.org/CodeSystem/measure-population",
              "code": "denominator",
              "display": "Denominator"
            } ]
          },
          "count": 1
        }, {
          "id": "DenominatorExclusion_1",
          "code": {
            "coding": [ {
              "system": "http://terminology.hl7.org/CodeSystem/measure-population",
              "code": "denominator-exclusion",
              "display": "Denominator Exclusion"
            } ]
          },
          "count": 0
        }, {
          "id": "Numerator_1",
          "code": {
            "coding": [ {
              "system": "http://terminology.hl7.org/CodeSystem/measure-population",
              "code": "numerator",
              "display": "Numerator"
            } ]
          },
          "count": 0
        } ],
        "measureScore": {
          "value": 1.0
        }
      } ],
      "evaluatedResource": [ {
        "reference": "Patient/3ed7af00-2d6c-4e8f-8b14-4bf7c58c6c70"
      }, {
        "reference": "Encounter/bca9f29b-fa88-4b04-8ba8-fbcbf20bfbee"
      } ]
    },
    "request": {
      "method": "PUT",
      "url": "MeasureReport/5bc3765e-d12f-4059-bdbc-e696bd0e2e07"
    }
  }, {
    "fullUrl": "https://madie.cms.gov/MeasureReport/13da3f96-d64f-4301-bf63-7d014afd91bb",
    "resource": {
      "resourceType": "MeasureReport",
      "id": "13da3f96-d64f-4301-bf63-7d014afd91bb",
      "meta": {
        "profile": [ "http://hl7.org/fhir/us/cqfmeasures/StructureDefinition/test-case-cqfm" ]
      },
      "contained": [ {
        "resourceType": "Parameters",
        "id": "6a2bec52-eeaf-4c80-8352-f2e60227c01f-parameters",
        "parameter": [ {
          "name": "subject",
          "valueString": "3ed7af00-2d6c-4e8f-8b14-4bf7c58c6c70"
        } ]
      } ],
      "extension": [ {
        "url": "http://hl7.org/fhir/StructureDefinition/cqf-inputParameters",
        "valueReference": {
          "reference": "#6a2bec52-eeaf-4c80-8352-f2e60227c01f-parameters"
        }
      }, {
        "url": "http://hl7.org/fhir/us/cqfmeasures/StructureDefinition/cqfm-testCaseDescription",
        "valueMarkdown": "Patient has office or other outpatient encounter (encounter retrieve with DRC)"
      } ],
      "modifierExtension": [ {
        "url": "http://hl7.org/fhir/us/cqfmeasures/StructureDefinition/cqfm-isTestCase",
        "valueBoolean": true
      } ],
      "status": "complete",
      "type": "individual",
      "measure": "https://madie.cms.gov/Measure/CMS117FHIRChildImmunStatus",
      "period": {
        "start": "2026-01-01",
        "end": "2026-12-31"
      },
      "group": [ {
        "id": "Group_1",
        "population": [ {
          "id": "InitialPopulation_1",
          "code": {
            "coding": [ {
              "system": "http://terminology.hl7.org/CodeSystem/measure-population",
              "code": "initial-population",
              "display": "Initial Population"
            } ]
          },
          "count": 1
        }, {
          "id": "Denominator_1",
          "code": {
            "coding": [ {
              "system": "http://terminology.hl7.org/CodeSystem/measure-population",
              "code": "denominator",
              "display": "Denominator"
            } ]
          },
          "count": 1
        }, {
          "id": "DenominatorExclusion_1",
          "code": {
            "coding": [ {
              "system": "http://terminology.hl7.org/CodeSystem/measure-population",
              "code": "denominator-exclusion",
              "display": "Denominator Exclusion"
            } ]
          },
          "count": 0
        }, {
          "id": "Numerator_1",
          "code": {
            "coding": [ {
              "system": "http://terminology.hl7.org/CodeSystem/measure-population",
              "code": "numerator",
              "display": "Numerator"
            } ]
          },
          "count": 0
        } ],
        "measureScore": {
          "value": 1.0
        }
      } ],
      "evaluatedResource": [ {
        "reference": "Patient/3ed7af00-2d6c-4e8f-8b14-4bf7c58c6c70"
      }, {
        "reference": "Encounter/bca9f29b-fa88-4b04-8ba8-fbcbf20bfbee"
      }, {
        "reference": "MeasureReport/5bc3765e-d12f-4059-bdbc-e696bd0e2e07"
      } ]
    },
    "request": {
      "method": "PUT",
      "url": "MeasureReport/13da3f96-d64f-4301-bf63-7d014afd91bb"
    }
  } ]
}