{
  "resourceType": "Bundle",
  "id": "633b3fa00968f80122503d16",
  "type": "transaction",
  "entry": [ {
    "fullUrl": "https://madie.cms.gov/Patient/0aed830d-d498-4ec6-8429-f9f24cccc127",
    "resource": {
      "resourceType": "Patient",
      "id": "0aed830d-d498-4ec6-8429-f9f24cccc127",
      "meta": {
        "profile": [ "http://hl7.org/fhir/us/qicore/StructureDefinition/qicore-patient" ]
      },
      "text": {
        "status": "generated",
        "div": "<div xmlns=\"http://www.w3.org/1999/xhtml\"><div class=\"hapiHeaderText\">DelProcRelDtTmEQOBSEnd<b>IPPASS</b></div><table class=\"hapiPropertyTable\"><tbody><tr><td>Date of birth</td><td><span>31 January 2004</span></td></tr></tbody></table></div>"
      },
      "extension": [ {
        "url": "http://hl7.org/fhir/us/core/StructureDefinition/us-core-race",
        "extension": [ {
          "url": "ombCategory",
          "valueCoding": {
            "system": "urn:oid:2.16.840.1.113883.6.238",
            "code": "1002-5",
            "display": "American Indian or Alaska Native",
            "userSelected": true
          }
        }, {
          "url": "text",
          "valueString": "American Indian or Alaska Native"
        } ]
      }, {
        "url": "http://hl7.org/fhir/us/core/StructureDefinition/us-core-ethnicity",
        "extension": [ {
          "url": "ombCategory",
          "valueCoding": {
            "system": "urn:oid:2.16.840.1.113883.6.238",
            "code": "2135-2",
            "display": "Hispanic or Latino",
            "userSelected": true
          }
        }, {
          "url": "text",
          "valueString": "Hispanic or Latino"
        } ]
      } ],
      "identifier": [ {
        "type": {
          "coding": [ {
            "system": "http://terminology.hl7.org/CodeSystem/v2-0203",
            "code": "MR"
          } ]
        },
        "system": "https://bonnie-fhir.healthit.gov/",
        "value": "633b3fa00968f80122503d16"
      } ],
      "active": true,
      "name": [ {
        "use": "usual",
        "family": "IPPass",
        "given": [ "DelProcRelDtTmEQOBSEnd" ]
      } ],
      "gender": "female",
      "birthDate": "2005-01-31"
    },
    "request": {
      "method": "PUT",
      "url": "Patient/0aed830d-d498-4ec6-8429-f9f24cccc127"
    }
  }, {
    "fullUrl": "https://madie.cms.gov/Encounter/3952db0d-bd18-47ec-b6c0-59c483a74cf2",
    "resource": {
      "resourceType": "Encounter",
      "id": "3952db0d-bd18-47ec-b6c0-59c483a74cf2",
      "meta": {
        "profile": [ "http://hl7.org/fhir/us/qicore/StructureDefinition/qicore-encounter" ]
      },
      "status": "finished",
      "class": {
        "system": "http://terminology.hl7.org/CodeSystem/v3-ActCode",
        "code": "IMP",
        "display": "inpatient encounter"
      },
      "type": [ {
        "coding": [ {
          "system": "http://snomed.info/sct",
          "code": "183452005"
        } ]
      } ],
      "subject": {
        "reference": "Patient/0aed830d-d498-4ec6-8429-f9f24cccc127"
      },
      "period": {
        "start": "2026-02-01T09:00:00.000+00:00",
        "end": "2026-02-05T08:15:00.000+00:00"
      }
    },
    "request": {
      "method": "PUT",
      "url": "Encounter/3952db0d-bd18-47ec-b6c0-59c483a74cf2"
    }
  }, {
    "fullUrl": "https://madie.cms.gov/Encounter/c93839ab-2f8b-4750-b127-4bf586b76804",
    "resource": {
      "resourceType": "Encounter",
      "id": "c93839ab-2f8b-4750-b127-4bf586b76804",
      "meta": {
        "profile": [ "http://hl7.org/fhir/us/qicore/StructureDefinition/qicore-encounter" ]
      },
      "status": "finished",
      "class": {
        "system": "http://terminology.hl7.org/CodeSystem/v3-ActCode",
        "code": "IMP",
        "display": "inpatient encounter"
      },
      "type": [ {
        "coding": [ {
          "system": "http://snomed.info/sct",
          "code": "448951000124107"
        } ]
      } ],
      "subject": {
        "reference": "Patient/0aed830d-d498-4ec6-8429-f9f24cccc127"
      },
      "period": {
        "start": "2026-02-01T08:00:00.000+00:00",
        "end": "2026-02-01T08:59:00.000+00:00"
      }
    },
    "request": {
      "method": "PUT",
      "url": "Encounter/c93839ab-2f8b-4750-b127-4bf586b76804"
    }
  }, {
    "fullUrl": "https://madie.cms.gov/Encounter/e2d286e0-1ebf-4592-a7d8-01de4ce4e829",
    "resource": {
      "resourceType": "Encounter",
      "id": "e2d286e0-1ebf-4592-a7d8-01de4ce4e829",
      "meta": {
        "profile": [ "http://hl7.org/fhir/us/qicore/StructureDefinition/qicore-encounter" ]
      },
      "status": "finished",
      "class": {
        "system": "http://terminology.hl7.org/CodeSystem/v3-ActCode",
        "code": "IMP",
        "display": "inpatient encounter"
      },
      "type": [ {
        "coding": [ {
          "system": "http://snomed.info/sct",
          "code": "4525004"
        } ]
      } ],
      "subject": {
        "reference": "Patient/0aed830d-d498-4ec6-8429-f9f24cccc127"
      },
      "period": {
        "start": "2026-02-01T07:00:00.000+00:00",
        "end": "2026-02-01T07:59:00.000+00:00"
      }
    },
    "request": {
      "method": "PUT",
      "url": "Encounter/e2d286e0-1ebf-4592-a7d8-01de4ce4e829"
    }
  }, {
    "fullUrl": "https://madie.cms.gov/Procedure/5b00a553-8a22-4179-b74e-1b932f5db45b",
    "resource": {
      "resourceType": "Procedure",
      "id": "5b00a553-8a22-4179-b74e-1b932f5db45b",
      "meta": {
        "profile": [ "http://hl7.org/fhir/us/qicore/StructureDefinition/qicore-procedure" ]
      },
      "extension": [ {
        "url": "http://hl7.org/fhir/us/qicore/StructureDefinition/qicore-recorded",
        "valueDateTime": "2014-04-05T13:35:00.000+00:00"
      } ],
      "status": "completed",
      "code": {
        "coding": [ {
          "system": "http://snomed.info/sct",
          "code": "10745001"
        } ]
      },
      "subject": {
        "reference": "Patient/0aed830d-d498-4ec6-8429-f9f24cccc127"
      },
      "performedDateTime": "2026-02-01T08:59:00.000+00:00"
    },
    "request": {
      "method": "PUT",
      "url": "Procedure/5b00a553-8a22-4179-b74e-1b932f5db45b"
    }
  }, {
    "fullUrl": "https://madie.cms.gov/Coverage/ebb7660c-bac6-4b9b-9003-3de68634e9aa",
    "resource": {
      "resourceType": "Coverage",
      "id": "ebb7660c-bac6-4b9b-9003-3de68634e9aa",
      "meta": {
        "profile": [ "http://hl7.org/fhir/us/qicore/StructureDefinition/qicore-coverage" ]
      },
      "status": "active",
      "beneficiary": {
        "reference": "Patient/0aed830d-d498-4ec6-8429-f9f24cccc127"
      },
      "payor": [ {
        "reference": "Organization/bff98cd3-441e-4bf2-ab11-d780d3081f0e"
      } ]
    },
    "request": {
      "method": "PUT",
      "url": "Coverage/ebb7660c-bac6-4b9b-9003-3de68634e9aa"
    }
  }, {
    "fullUrl": "https://madie.cms.gov/Organization/bff98cd3-441e-4bf2-ab11-d780d3081f0e",
    "resource": {
      "resourceType": "Organization",
      "id": "bff98cd3-441e-4bf2-ab11-d780d3081f0e",
      "meta": {
        "profile": [ "http://hl7.org/fhir/us/qicore/StructureDefinition/qicore-organization" ]
      },
      "identifier": [ {
        "use": "temp",
        "system": "urn:oid:2.16.840.1.113883.4.4",
        "value": "21-3259825"
      } ],
      "active": true,
      "type": [ {
        "coding": [ {
          "system": "http://terminology.hl7.org/CodeSystem/organization-type",
          "code": "pay",
          "display": "Payer"
        } ]
      } ],
      "name": "Blue Cross Blue Shield of Texas",
      "telecom": [ {
        "system": "phone",
        "value": "(+1) 972-766-6900"
      } ],
      "address": [ {
        "use": "billing",
        "type": "postal",
        "line": [ "P.O. Box 660044" ],
        "city": "Dallas",
        "state": "TX",
        "postalCode": "75266-0044",
        "country": "USA"
      } ]
    },
    "request": {
      "method": "PUT",
      "url": "Organization/bff98cd3-441e-4bf2-ab11-d780d3081f0e"
    }
  }, {
    "fullUrl": "https://madie.cms.gov/Practitioner/e1efc499-16f6-4e9c-bf8f-bb3726228374",
    "resource": {
      "resourceType": "Practitioner",
      "id": "e1efc499-16f6-4e9c-bf8f-bb3726228374",
      "identifier": [ {
        "system": "http://hl7.org/fhir/sid/us-npi",
        "value": "123456"
      } ],
      "name": [ {
        "family": "Evil",
        "prefix": [ "Dr" ]
      } ]
    },
    "request": {
      "method": "PUT",
      "url": "Practitioner/e1efc499-16f6-4e9c-bf8f-bb3726228374"
    }
  }, {
    "fullUrl": "https://madie.cms.gov/MeasureReport/463c622e-1e8e-4e51-80a8-2f407be2223c",
    "resource": {
      "resourceType": "MeasureReport",
      "id": "463c622e-1e8e-4e51-80a8-2f407be2223c",
      "meta": {
        "profile": [ "http://hl7.org/fhir/us/cqfmeasures/StructureDefinition/test-case-cqfm" ]
      },
      "contained": [ {
        "resourceType": "Parameters",
        "id": "96023827-d2c4-4b3c-a91e-082b6dd88f2e-parameters",
        "parameter": [ {
          "name": "subject",
          "valueString": "0aed830d-d498-4ec6-8429-f9f24cccc127"
        } ]
      } ],
      "extension": [ {
        "url": "http://hl7.org/fhir/StructureDefinition/cqf-inputParameters",
        "valueReference": {
          "reference": "#96023827-d2c4-4b3c-a91e-082b6dd88f2e-parameters"
        }
      }, {
        "url": "http://hl7.org/fhir/us/cqfmeasures/StructureDefinition/cqfm-testCaseDescription",
        "valueMarkdown": "Delivery Procedure rel date/time = OBS end.  ED/OBS/IP all meet global hospitalization criteria.\n"
      } ],
      "modifierExtension": [ {
        "url": "http://hl7.org/fhir/us/cqfmeasures/StructureDefinition/cqfm-isTestCase",
        "valueBoolean": true
      } ],
      "status": "complete",
      "type": "individual",
      "measure": "https://madie.cms.gov/Measure/CMS1028FHIRPCSevereOBComps",
      "period": {
        "start": "2026-01-01",
        "end": "2026-12-31"
      },
      "group": [ {
        "id": "Group_1",
        "population": [ {
          "id": "InitialPopulation_1",
          "code": {
            "coding": [ {
              "system": "http://terminology.hl7.org/CodeSystem/measure-population",
              "code": "initial-population",
              "display": "Initial Population"
            } ]
          },
          "count": 1
        }, {
          "id": "Denominator_1",
          "code": {
            "coding": [ {
              "system": "http://terminology.hl7.org/CodeSystem/measure-population",
              "code": "denominator",
              "display": "Denominator"
            } ]
          },
          "count": 0
        }, {
          "id": "Numerator_1",
          "code": {
            "coding": [ {
              "system": "http://terminology.hl7.org/CodeSystem/measure-population",
              "code": "numerator",
              "display": "Numerator"
            } ]
          },
          "count": 0
        }, {
          "id": "NumeratorExclusion_1",
          "code": {
            "coding": [ {
              "system": "http://terminology.hl7.org/CodeSystem/measure-population",
              "code": "numerator-exclusion",
              "display": "Numerator Exclusion"
            } ]
          },
          "count": 0
        } ],
        "measureScore": {
          "value": 0.0
        }
      }, {
        "id": "Group_2",
        "population": [ {
          "id": "InitialPopulation_2",
          "code": {
            "coding": [ {
              "system": "http://terminology.hl7.org/CodeSystem/measure-population",
              "code": "initial-population",
              "display": "Initial Population"
            } ]
          },
          "count": 1
        }, {
          "id": "Denominator_2",
          "code": {
            "coding": [ {
              "system": "http://terminology.hl7.org/CodeSystem/measure-population",
              "code": "denominator",
              "display": "Denominator"
            } ]
          },
          "count": 0
        }, {
          "id": "Numerator_2",
          "code": {
            "coding": [ {
              "system": "http://terminology.hl7.org/CodeSystem/measure-population",
              "code": "numerator",
              "display": "Numerator"
            } ]
          },
          "count": 0
        }, {
          "id": "NumeratorExclusion_2",
          "code": {
            "coding": [ {
              "system": "http://terminology.hl7.org/CodeSystem/measure-population",
              "code": "numerator-exclusion",
              "display": "Numerator Exclusion"
            } ]
          },
          "count": 0
        } ],
        "measureScore": {
          "value": 0.0
        }
      } ],
      "evaluatedResource": [ {
        "reference": "Patient/0aed830d-d498-4ec6-8429-f9f24cccc127"
      }, {
        "reference": "Encounter/3952db0d-bd18-47ec-b6c0-59c483a74cf2"
      }, {
        "reference": "Encounter/c93839ab-2f8b-4750-b127-4bf586b76804"
      }, {
        "reference": "Encounter/e2d286e0-1ebf-4592-a7d8-01de4ce4e829"
      }, {
        "reference": "Procedure/5b00a553-8a22-4179-b74e-1b932f5db45b"
      }, {
        "reference": "Coverage/ebb7660c-bac6-4b9b-9003-3de68634e9aa"
      }, {
        "reference": "Organization/bff98cd3-441e-4bf2-ab11-d780d3081f0e"
      }, {
        "reference": "Practitioner/e1efc499-16f6-4e9c-bf8f-bb3726228374"
      } ]
    },
    "request": {
      "method": "PUT",
      "url": "MeasureReport/463c622e-1e8e-4e51-80a8-2f407be2223c"
    }
  } ]
}