{
  "resourceType": "Bundle",
  "id": "657cbdc9b4f1f0343662347a",
  "type": "transaction",
  "entry": [ {
    "fullUrl": "https://madie.cms.gov/Patient/49766095-dc01-4019-9bbe-79c5eade2b74",
    "resource": {
      "resourceType": "Patient",
      "id": "49766095-dc01-4019-9bbe-79c5eade2b74",
      "meta": {
        "profile": [ "http://hl7.org/fhir/us/qicore/StructureDefinition/qicore-patient" ]
      },
      "extension": [ {
        "url": "http://hl7.org/fhir/us/core/StructureDefinition/us-core-race",
        "extension": [ {
          "url": "ombCategory",
          "valueCoding": {
            "system": "urn:oid:2.16.840.1.113883.6.238",
            "code": "2106-3",
            "display": "White",
            "userSelected": true
          }
        }, {
          "url": "text",
          "valueString": "White"
        } ]
      }, {
        "url": "http://hl7.org/fhir/us/core/StructureDefinition/us-core-ethnicity",
        "extension": [ {
          "url": "ombCategory",
          "valueCoding": {
            "system": "urn:oid:2.16.840.1.113883.6.238",
            "code": "2186-5",
            "display": "Not Hispanic or Latino",
            "userSelected": true
          }
        }, {
          "url": "text",
          "valueString": "Not Hispanic or Latino"
        } ]
      } ],
      "identifier": [ {
        "type": {
          "coding": [ {
            "system": "http://terminology.hl7.org/CodeSystem/v2-0203",
            "code": "MR"
          } ]
        },
        "system": "https://bonnie-fhir.healthit.gov/",
        "value": "657cbdc9b4f1f0343662347a"
      } ],
      "name": [ {
        "family": "ServiceRequestNotPerformedPass",
        "given": [ "ServiceRequestNotPerformed" ]
      } ],
      "gender": "female",
      "birthDate": "2008-01-01"
    },
    "request": {
      "method": "PUT",
      "url": "Patient/49766095-dc01-4019-9bbe-79c5eade2b74"
    }
  }, {
    "fullUrl": "https://madie.cms.gov/Encounter/b63f1abf-5cf8-4ffc-ba1f-efbf9e1ad521",
    "resource": {
      "resourceType": "Encounter",
      "id": "b63f1abf-5cf8-4ffc-ba1f-efbf9e1ad521",
      "meta": {
        "profile": [ "http://hl7.org/fhir/us/qicore/StructureDefinition/qicore-encounter" ]
      },
      "status": "finished",
      "class": {
        "system": "http://terminology.hl7.org/CodeSystem/v3-ActCode",
        "code": "ACUTE",
        "display": "inpatient acute"
      },
      "type": [ {
        "coding": [ {
          "system": "http://snomed.info/sct",
          "version": "2024",
          "code": "32485007",
          "display": "Hospital admission (procedure)",
          "userSelected": true
        } ]
      } ],
      "subject": {
        "reference": "Patient/49766095-dc01-4019-9bbe-79c5eade2b74"
      },
      "period": {
        "start": "2026-01-01T08:00:00.000+00:00",
        "end": "2026-01-02T09:15:00.000+00:00"
      }
    },
    "request": {
      "method": "PUT",
      "url": "Encounter/b63f1abf-5cf8-4ffc-ba1f-efbf9e1ad521"
    }
  }, {
    "fullUrl": "https://madie.cms.gov/Location/f0964243-94c6-4fd6-bd82-e93de8ea3103",
    "resource": {
      "resourceType": "Location",
      "id": "f0964243-94c6-4fd6-bd82-e93de8ea3103",
      "meta": {
        "profile": [ "http://hl7.org/fhir/us/qicore/StructureDefinition/qicore-location" ]
      },
      "identifier": [ {
        "use": "usual",
        "system": "http://exampleoflocation.com",
        "value": "B1-S.F2"
      } ],
      "name": "Medical Surgical East, first floor",
      "type": [ {
        "coding": [ {
          "system": "https://www.cdc.gov/nhsn/cdaportal/terminology/codesystem/hsloc.html",
          "code": "1028-0",
          "display": "Medical Cardiac Critical Care",
          "userSelected": true
        } ]
      } ]
    },
    "request": {
      "method": "PUT",
      "url": "Location/f0964243-94c6-4fd6-bd82-e93de8ea3103"
    }
  }, {
    "fullUrl": "https://madie.cms.gov/MedicationRequest/3f8db79a-8b53-42f3-aea9-ea3fd4246380",
    "resource": {
      "resourceType": "MedicationRequest",
      "id": "3f8db79a-8b53-42f3-aea9-ea3fd4246380",
      "meta": {
        "profile": [ "http://hl7.org/fhir/us/qicore/StructureDefinition/qicore-medicationrequest" ]
      },
      "status": "completed",
      "intent": "order",
      "medicationCodeableConcept": {
        "coding": [ {
          "system": "http://www.nlm.nih.gov/research/umls/rxnorm",
          "version": "06052023",
          "code": "1007184"
        } ]
      },
      "subject": {
        "reference": "Patient/49766095-dc01-4019-9bbe-79c5eade2b74"
      },
      "authoredOn": "2026-01-01T08:15:00.000+00:00",
      "requester": {
        "reference": "Practitioner/33d87640-6b2a-40b0-ab11-542478a88d5a"
      },
      "dosageInstruction": [ {
        "timing": {
          "repeat": {
            "boundsPeriod": {
              "start": "2025-01-01T08:15:00.000+00:00"
            }
          }
        }
      } ]
    },
    "request": {
      "method": "PUT",
      "url": "MedicationRequest/3f8db79a-8b53-42f3-aea9-ea3fd4246380"
    }
  }, {
    "fullUrl": "https://madie.cms.gov/ServiceRequest/8ed55038-6e13-4b51-b836-09a28e4ee803",
    "resource": {
      "resourceType": "ServiceRequest",
      "id": "8ed55038-6e13-4b51-b836-09a28e4ee803",
      "meta": {
        "profile": [ "http://hl7.org/fhir/us/qicore/StructureDefinition/qicore-servicerequest" ]
      },
      "status": "active",
      "intent": "order",
      "doNotPerform": true,
      "code": {
        "coding": [ {
          "system": "http://www.ama-assn.org/go/cpt",
          "version": "2024",
          "code": "64450",
          "display": "Injection(s), anesthetic agent(s) and/or steroid; other peripheral nerve or branch",
          "userSelected": true
        } ]
      },
      "subject": {
        "reference": "Patient/49766095-dc01-4019-9bbe-79c5eade2b74"
      },
      "authoredOn": "2026-01-01T08:00:00.000+00:00"
    },
    "request": {
      "method": "PUT",
      "url": "ServiceRequest/8ed55038-6e13-4b51-b836-09a28e4ee803"
    }
  }, {
    "fullUrl": "https://madie.cms.gov/Coverage/a786cc59-6945-48e2-8581-3b72e7112d53",
    "resource": {
      "resourceType": "Coverage",
      "id": "a786cc59-6945-48e2-8581-3b72e7112d53",
      "meta": {
        "profile": [ "http://hl7.org/fhir/us/qicore/StructureDefinition/qicore-coverage" ]
      },
      "identifier": [ {
        "system": "http://benefitsinc.com/certificate",
        "value": "12345"
      } ],
      "status": "active",
      "type": {
        "coding": [ {
          "system": "https://nahdo.org/sopt",
          "version": "1.0.1",
          "code": "1",
          "display": "MEDICARE",
          "userSelected": true
        } ]
      },
      "subscriberId": "AB9876",
      "beneficiary": {
        "reference": "Patient/49766095-dc01-4019-9bbe-79c5eade2b74"
      },
      "relationship": {
        "coding": [ {
          "system": "http://terminology.hl7.org/CodeSystem/subscriber-relationship",
          "code": "self"
        } ]
      },
      "period": {
        "start": "2026-01-01T00:00:00.000+00:00",
        "end": "2027-03-26T08:15:00.000+00:00"
      },
      "payor": [ {
        "reference": "Organization/b0fb58cc-3071-4afe-98d2-f63932c7a879"
      } ]
    },
    "request": {
      "method": "PUT",
      "url": "Coverage/a786cc59-6945-48e2-8581-3b72e7112d53"
    }
  }, {
    "fullUrl": "https://madie.cms.gov/Organization/b0fb58cc-3071-4afe-98d2-f63932c7a879",
    "resource": {
      "resourceType": "Organization",
      "id": "b0fb58cc-3071-4afe-98d2-f63932c7a879",
      "meta": {
        "profile": [ "http://hl7.org/fhir/us/qicore/StructureDefinition/qicore-organization" ]
      },
      "identifier": [ {
        "use": "temp",
        "system": "urn:oid:2.16.840.1.113883.4.4",
        "value": "21-3259825"
      } ],
      "active": true,
      "type": [ {
        "coding": [ {
          "system": "http://terminology.hl7.org/CodeSystem/organization-type",
          "code": "pay",
          "display": "Payer"
        } ]
      } ],
      "name": "Blue Cross Blue Shield of Texas",
      "telecom": [ {
        "system": "phone",
        "value": "(+1) 972-766-6900"
      } ],
      "address": [ {
        "use": "billing",
        "type": "postal",
        "line": [ "P.O. Box 660044" ],
        "city": "Dallas",
        "state": "TX",
        "postalCode": "75266-0044",
        "country": "USA"
      } ]
    },
    "request": {
      "method": "PUT",
      "url": "Organization/b0fb58cc-3071-4afe-98d2-f63932c7a879"
    }
  }, {
    "fullUrl": "https://madie.cms.gov/Practitioner/4fda4925-ff3f-43b0-b96a-65455f523dc9",
    "resource": {
      "resourceType": "Practitioner",
      "id": "4fda4925-ff3f-43b0-b96a-65455f523dc9",
      "meta": {
        "profile": [ "http://hl7.org/fhir/us/qicore/StructureDefinition/qicore-practitioner" ]
      },
      "identifier": [ {
        "system": "http://hl7.org/fhir/sid/us-npi",
        "value": "0723660813"
      } ],
      "name": [ {
        "family": "Evil",
        "prefix": [ "Dr" ]
      } ]
    },
    "request": {
      "method": "PUT",
      "url": "Practitioner/4fda4925-ff3f-43b0-b96a-65455f523dc9"
    }
  }, {
    "fullUrl": "https://madie.cms.gov/MeasureReport/172939e0-571f-4abd-80af-3d9a0b85a850",
    "resource": {
      "resourceType": "MeasureReport",
      "id": "172939e0-571f-4abd-80af-3d9a0b85a850",
      "meta": {
        "profile": [ "http://hl7.org/fhir/us/cqfmeasures/StructureDefinition/test-case-cqfm" ]
      },
      "contained": [ {
        "resourceType": "Parameters",
        "id": "431d12b7-b4f5-40f8-ad7c-41e0b2b2aab1-parameters",
        "parameter": [ {
          "name": "subject",
          "valueString": "49766095-dc01-4019-9bbe-79c5eade2b74"
        } ]
      } ],
      "extension": [ {
        "url": "http://hl7.org/fhir/StructureDefinition/cqf-inputParameters",
        "valueReference": {
          "reference": "#431d12b7-b4f5-40f8-ad7c-41e0b2b2aab1-parameters"
        }
      }, {
        "url": "http://hl7.org/fhir/us/cqfmeasures/StructureDefinition/cqfm-testCaseDescription",
        "valueMarkdown": "Inpatient encounter with diabetic medication during MP with SDE service request not performed"
      } ],
      "modifierExtension": [ {
        "url": "http://hl7.org/fhir/us/cqfmeasures/StructureDefinition/cqfm-isTestCase",
        "valueBoolean": true
      } ],
      "status": "complete",
      "type": "individual",
      "measure": "https://madie.cms.gov/Measure/NHSNGlycemicControlHypoglycemiaInitialPopulation",
      "period": {
        "start": "2026-01-01",
        "end": "2026-12-31"
      },
      "group": [ {
        "id": "Group_1",
        "population": [ {
          "id": "InitialPopulation_1",
          "code": {
            "coding": [ {
              "system": "http://terminology.hl7.org/CodeSystem/measure-population",
              "code": "initial-population",
              "display": "Initial Population"
            } ]
          },
          "count": 1
        } ],
        "measureScore": {
          "value": 0.0
        }
      } ],
      "evaluatedResource": [ {
        "reference": "Patient/49766095-dc01-4019-9bbe-79c5eade2b74"
      }, {
        "reference": "Encounter/b63f1abf-5cf8-4ffc-ba1f-efbf9e1ad521"
      }, {
        "reference": "Location/f0964243-94c6-4fd6-bd82-e93de8ea3103"
      }, {
        "reference": "MedicationRequest/3f8db79a-8b53-42f3-aea9-ea3fd4246380"
      }, {
        "reference": "ServiceRequest/8ed55038-6e13-4b51-b836-09a28e4ee803"
      }, {
        "reference": "Coverage/a786cc59-6945-48e2-8581-3b72e7112d53"
      }, {
        "reference": "Organization/b0fb58cc-3071-4afe-98d2-f63932c7a879"
      }, {
        "reference": "Practitioner/4fda4925-ff3f-43b0-b96a-65455f523dc9"
      } ]
    },
    "request": {
      "method": "PUT",
      "url": "MeasureReport/172939e0-571f-4abd-80af-3d9a0b85a850"
    }
  } ]
}