{
  "resourceType": "Bundle",
  "id": "63487c2d0968f80122540154",
  "type": "transaction",
  "entry": [ {
    "fullUrl": "https://madie.cms.gov/Patient/13fc77fb-6db3-4c4d-ae11-2ee08ff9acde",
    "resource": {
      "resourceType": "Patient",
      "id": "13fc77fb-6db3-4c4d-ae11-2ee08ff9acde",
      "meta": {
        "profile": [ "http://hl7.org/fhir/us/qicore/StructureDefinition/qicore-patient" ]
      },
      "text": {
        "status": "generated",
        "div": "<div xmlns=\"http://www.w3.org/1999/xhtml\"><div class=\"hapiHeaderText\">AssessPreTerm0RelDate46wk3DaysB4TimeOfDeliv <b>DENOMFail</b></div><table class=\"hapiPropertyTable\"><tbody><tr><td>Identifier</td><td>170a38ed2b827548e0441398231df0f76d8e6e9b3607e465a5af99e766749607</td></tr><tr><td>Date of birth</td><td><span>14 February 1985</span></td></tr></tbody></table></div>"
      },
      "extension": [ {
        "url": "http://hl7.org/fhir/us/core/StructureDefinition/us-core-race",
        "extension": [ {
          "url": "ombCategory",
          "valueCoding": {
            "system": "urn:oid:2.16.840.1.113883.6.238",
            "code": "1002-5",
            "display": "American Indian or Alaska Native",
            "userSelected": true
          }
        }, {
          "url": "text",
          "valueString": "American Indian or Alaska Native"
        } ]
      }, {
        "url": "http://hl7.org/fhir/us/core/StructureDefinition/us-core-ethnicity",
        "extension": [ {
          "url": "ombCategory",
          "valueCoding": {
            "system": "urn:oid:2.16.840.1.113883.6.238",
            "code": "2135-2",
            "display": "Hispanic or Latino",
            "userSelected": true
          }
        }, {
          "url": "text",
          "valueString": "Hispanic or Latino"
        } ]
      } ],
      "identifier": [ {
        "type": {
          "coding": [ {
            "system": "http://terminology.hl7.org/CodeSystem/v2-0203",
            "code": "MR"
          } ]
        },
        "system": "https://bonnie-fhir.healthit.gov/",
        "value": "63487c2d0968f80122540154"
      } ],
      "active": true,
      "name": [ {
        "use": "usual",
        "family": "DENOMFail",
        "given": [ "AssessPreTerm0RelDate46wk3DaysB4TimeOfDeliv" ]
      } ],
      "gender": "female",
      "birthDate": "1998-02-14"
    },
    "request": {
      "method": "PUT",
      "url": "Patient/13fc77fb-6db3-4c4d-ae11-2ee08ff9acde"
    }
  }, {
    "fullUrl": "https://madie.cms.gov/Observation/dbd96a94-e9d7-4d57-95d2-d3edcb4c4973",
    "resource": {
      "resourceType": "Observation",
      "id": "dbd96a94-e9d7-4d57-95d2-d3edcb4c4973",
      "meta": {
        "profile": [ "http://hl7.org/fhir/us/qicore/StructureDefinition/qicore-simple-observation" ]
      },
      "status": "final",
      "category": [ {
        "coding": [ {
          "system": "http://terminology.hl7.org/CodeSystem/observation-category",
          "code": "exam",
          "display": "exam",
          "userSelected": true
        } ]
      } ],
      "code": {
        "coding": [ {
          "system": "http://loinc.org",
          "code": "11637-6"
        } ]
      },
      "subject": {
        "reference": "Patient/13fc77fb-6db3-4c4d-ae11-2ee08ff9acde"
      },
      "effectiveDateTime": "2025-08-18T20:00:00.000+00:00",
      "valueInteger": 0
    },
    "request": {
      "method": "PUT",
      "url": "Observation/dbd96a94-e9d7-4d57-95d2-d3edcb4c4973"
    }
  }, {
    "fullUrl": "https://madie.cms.gov/Observation/7d1c989f-bcbb-4930-bf7e-31309292544c",
    "resource": {
      "resourceType": "Observation",
      "id": "7d1c989f-bcbb-4930-bf7e-31309292544c",
      "meta": {
        "profile": [ "http://hl7.org/fhir/us/qicore/StructureDefinition/qicore-simple-observation" ]
      },
      "status": "final",
      "category": [ {
        "coding": [ {
          "system": "http://terminology.hl7.org/CodeSystem/observation-category",
          "code": "exam",
          "display": "exam",
          "userSelected": true
        } ]
      } ],
      "code": {
        "coding": [ {
          "system": "http://loinc.org",
          "code": "11639-2"
        } ]
      },
      "subject": {
        "reference": "Patient/13fc77fb-6db3-4c4d-ae11-2ee08ff9acde"
      },
      "effectiveDateTime": "2012-09-19T09:00:00.000+00:00",
      "valueInteger": 0
    },
    "request": {
      "method": "PUT",
      "url": "Observation/7d1c989f-bcbb-4930-bf7e-31309292544c"
    }
  }, {
    "fullUrl": "https://madie.cms.gov/Observation/3b96ed1c-db33-47e0-899a-e0706567b744",
    "resource": {
      "resourceType": "Observation",
      "id": "3b96ed1c-db33-47e0-899a-e0706567b744",
      "meta": {
        "profile": [ "http://hl7.org/fhir/us/qicore/StructureDefinition/qicore-simple-observation" ]
      },
      "status": "final",
      "category": [ {
        "coding": [ {
          "system": "http://terminology.hl7.org/CodeSystem/observation-category",
          "code": "exam",
          "display": "exam",
          "userSelected": true
        } ]
      } ],
      "code": {
        "coding": [ {
          "system": "http://loinc.org",
          "code": "11884-4"
        } ]
      },
      "subject": {
        "reference": "Patient/13fc77fb-6db3-4c4d-ae11-2ee08ff9acde"
      },
      "effectiveDateTime": "2026-06-08T20:00:00.000+00:00",
      "valueQuantity": {
        "value": 37,
        "system": "http://unitsofmeasure.org",
        "code": "wk"
      }
    },
    "request": {
      "method": "PUT",
      "url": "Observation/3b96ed1c-db33-47e0-899a-e0706567b744"
    }
  }, {
    "fullUrl": "https://madie.cms.gov/Observation/e56fc298-69e5-4735-8786-831aaa365c1a",
    "resource": {
      "resourceType": "Observation",
      "id": "e56fc298-69e5-4735-8786-831aaa365c1a",
      "meta": {
        "profile": [ "http://hl7.org/fhir/us/qicore/StructureDefinition/qicore-simple-observation" ]
      },
      "status": "final",
      "category": [ {
        "coding": [ {
          "system": "http://terminology.hl7.org/CodeSystem/observation-category",
          "code": "exam",
          "display": "exam",
          "userSelected": true
        } ]
      } ],
      "code": {
        "coding": [ {
          "system": "http://loinc.org",
          "code": "93857-1"
        } ]
      },
      "subject": {
        "reference": "Patient/13fc77fb-6db3-4c4d-ae11-2ee08ff9acde"
      },
      "effectiveDateTime": "2026-06-08T20:00:00.000+00:00",
      "valueDateTime": "2026-06-08T20:00:00.000+00:00"
    },
    "request": {
      "method": "PUT",
      "url": "Observation/e56fc298-69e5-4735-8786-831aaa365c1a"
    }
  }, {
    "fullUrl": "https://madie.cms.gov/Encounter/4785a4ee-3159-482c-9fd2-0aa7d401cc32",
    "resource": {
      "resourceType": "Encounter",
      "id": "4785a4ee-3159-482c-9fd2-0aa7d401cc32",
      "meta": {
        "profile": [ "http://hl7.org/fhir/us/qicore/StructureDefinition/qicore-encounter" ]
      },
      "status": "finished",
      "class": {
        "system": "http://terminology.hl7.org/CodeSystem/v3-ActCode",
        "code": "IMP",
        "display": "inpatient encounter"
      },
      "type": [ {
        "coding": [ {
          "system": "http://snomed.info/sct",
          "code": "8715000"
        } ]
      } ],
      "subject": {
        "reference": "Patient/13fc77fb-6db3-4c4d-ae11-2ee08ff9acde"
      },
      "period": {
        "start": "2026-06-08T08:00:00.000+00:00",
        "end": "2026-06-10T08:15:00.000+00:00"
      },
      "length": {
        "value": 2,
        "unit": "days"
      },
      "reasonReference": [ {
        "reference": "Condition/b2df4f67-12d7-40f4-80a6-5716e1e9e4fd"
      } ]
    },
    "request": {
      "method": "PUT",
      "url": "Encounter/4785a4ee-3159-482c-9fd2-0aa7d401cc32"
    }
  }, {
    "fullUrl": "https://madie.cms.gov/Procedure/a31c990d-bca0-44ff-a16c-3497a42657de",
    "resource": {
      "resourceType": "Procedure",
      "id": "a31c990d-bca0-44ff-a16c-3497a42657de",
      "meta": {
        "profile": [ "http://hl7.org/fhir/us/qicore/StructureDefinition/qicore-procedure" ]
      },
      "extension": [ {
        "url": "http://hl7.org/fhir/us/qicore/StructureDefinition/qicore-recorded",
        "valueDateTime": "2014-04-05T13:35:00.000+00:00"
      } ],
      "status": "completed",
      "code": {
        "coding": [ {
          "system": "http://www.cms.gov/Medicare/Coding/ICD10",
          "code": "10D00Z0"
        }, {
          "system": "http://snomed.info/sct",
          "code": "4504004"
        } ]
      },
      "subject": {
        "reference": "Patient/13fc77fb-6db3-4c4d-ae11-2ee08ff9acde"
      },
      "performedPeriod": {
        "start": "2026-06-08T20:00:00.000+00:00",
        "end": "2026-06-08T20:15:00.000+00:00"
      }
    },
    "request": {
      "method": "PUT",
      "url": "Procedure/a31c990d-bca0-44ff-a16c-3497a42657de"
    }
  }, {
    "fullUrl": "https://madie.cms.gov/Condition/b2df4f67-12d7-40f4-80a6-5716e1e9e4fd",
    "resource": {
      "resourceType": "Condition",
      "id": "b2df4f67-12d7-40f4-80a6-5716e1e9e4fd",
      "meta": {
        "profile": [ "http://hl7.org/fhir/us/qicore/StructureDefinition/qicore-condition-encounter-diagnosis" ]
      },
      "category": [ {
        "coding": [ {
          "system": "http://terminology.hl7.org/CodeSystem/condition-category",
          "code": "encounter-diagnosis",
          "display": "Encounter Diagnosis"
        } ]
      } ],
      "code": {
        "coding": [ {
          "system": "http://snomed.info/sct",
          "version": "2022-09",
          "code": "169826009",
          "display": "Single live birth from singleton pregnancy (finding)",
          "userSelected": true
        } ]
      },
      "subject": {
        "reference": "Patient/13fc77fb-6db3-4c4d-ae11-2ee08ff9acde"
      },
      "encounter": {
        "reference": "Encounter/4785a4ee-3159-482c-9fd2-0aa7d401cc32"
      },
      "recordedDate": "2026-10-21T08:00:00.000+00:00"
    },
    "request": {
      "method": "PUT",
      "url": "Condition/b2df4f67-12d7-40f4-80a6-5716e1e9e4fd"
    }
  }, {
    "fullUrl": "https://madie.cms.gov/Coverage/96bf3f11-a64c-49a9-a916-337734e1ef42",
    "resource": {
      "resourceType": "Coverage",
      "id": "96bf3f11-a64c-49a9-a916-337734e1ef42",
      "meta": {
        "profile": [ "http://hl7.org/fhir/us/qicore/StructureDefinition/qicore-coverage" ]
      },
      "status": "active",
      "subscriberId": "523435",
      "beneficiary": {
        "reference": "Patient/13fc77fb-6db3-4c4d-ae11-2ee08ff9acde"
      },
      "relationship": {
        "coding": [ {
          "system": "http://terminology.hl7.org/CodeSystem/subscriber-relationship",
          "code": "self"
        } ]
      },
      "payor": [ {
        "reference": "Organization/c032528a-7141-4d4e-a0a3-401ec9043a5e"
      } ]
    },
    "request": {
      "method": "PUT",
      "url": "Coverage/96bf3f11-a64c-49a9-a916-337734e1ef42"
    }
  }, {
    "fullUrl": "https://madie.cms.gov/Organization/c032528a-7141-4d4e-a0a3-401ec9043a5e",
    "resource": {
      "resourceType": "Organization",
      "id": "c032528a-7141-4d4e-a0a3-401ec9043a5e",
      "meta": {
        "profile": [ "http://hl7.org/fhir/us/qicore/StructureDefinition/qicore-organization" ]
      },
      "identifier": [ {
        "use": "temp",
        "system": "urn:oid:2.16.840.1.113883.4.4",
        "value": "21-3259825"
      } ],
      "active": true,
      "type": [ {
        "coding": [ {
          "system": "http://terminology.hl7.org/CodeSystem/organization-type",
          "code": "pay",
          "display": "Payer"
        } ]
      } ],
      "name": "Blue Cross Blue Shield of Texas",
      "telecom": [ {
        "system": "phone",
        "value": "(+1) 972-766-6900"
      } ],
      "address": [ {
        "use": "billing",
        "type": "postal",
        "line": [ "P.O. Box 660044" ],
        "city": "Dallas",
        "state": "TX",
        "postalCode": "75266-0044",
        "country": "USA"
      } ]
    },
    "request": {
      "method": "PUT",
      "url": "Organization/c032528a-7141-4d4e-a0a3-401ec9043a5e"
    }
  }, {
    "fullUrl": "https://madie.cms.gov/Practitioner/064afd5e-c6ff-4f35-ac35-fb2391e86977",
    "resource": {
      "resourceType": "Practitioner",
      "id": "064afd5e-c6ff-4f35-ac35-fb2391e86977",
      "meta": {
        "profile": [ "http://hl7.org/fhir/us/qicore/StructureDefinition/qicore-practitioner" ]
      },
      "identifier": [ {
        "system": "http://hl7.org/fhir/sid/us-npi",
        "value": "1234567890"
      } ],
      "name": [ {
        "family": "Evil",
        "prefix": [ "Dr" ]
      } ]
    },
    "request": {
      "method": "PUT",
      "url": "Practitioner/064afd5e-c6ff-4f35-ac35-fb2391e86977"
    }
  }, {
    "fullUrl": "https://madie.cms.gov/MeasureReport/9d3a2510-4285-4aa6-a5e9-c64f6bd13566",
    "resource": {
      "resourceType": "MeasureReport",
      "id": "9d3a2510-4285-4aa6-a5e9-c64f6bd13566",
      "meta": {
        "profile": [ "http://hl7.org/fhir/us/cqfmeasures/StructureDefinition/test-case-cqfm" ]
      },
      "contained": [ {
        "resourceType": "Parameters",
        "id": "fe82dbdb-8cb9-484b-befd-ddb5b9ce9f3a-parameters",
        "parameter": [ {
          "name": "subject",
          "valueString": "13fc77fb-6db3-4c4d-ae11-2ee08ff9acde"
        } ]
      } ],
      "extension": [ {
        "url": "http://hl7.org/fhir/StructureDefinition/cqf-inputParameters",
        "valueReference": {
          "reference": "#fe82dbdb-8cb9-484b-befd-ddb5b9ce9f3a-parameters"
        }
      }, {
        "url": "http://hl7.org/fhir/us/cqfmeasures/StructureDefinition/cqfm-testCaseDescription",
        "valueMarkdown": "\"Preterm Births=0, RelDtTime > 42weeks prior to Asse delivery\nTerm Newborn=0, RelDtTime < 42weeks prior to Asse delivery and both conditions are needed to be true for DENOM to pass\"\n"
      } ],
      "modifierExtension": [ {
        "url": "http://hl7.org/fhir/us/cqfmeasures/StructureDefinition/cqfm-isTestCase",
        "valueBoolean": true
      } ],
      "status": "complete",
      "type": "individual",
      "measure": "https://madie.cms.gov/Measure/CMS0334FHIRPCCesareanBirth",
      "period": {
        "start": "2026-01-01",
        "end": "2026-12-31"
      },
      "group": [ {
        "id": "Group_1",
        "population": [ {
          "id": "InitialPopulation_1",
          "code": {
            "coding": [ {
              "system": "http://terminology.hl7.org/CodeSystem/measure-population",
              "code": "initial-population",
              "display": "Initial Population"
            } ]
          },
          "count": 1
        }, {
          "id": "Denominator_1",
          "code": {
            "coding": [ {
              "system": "http://terminology.hl7.org/CodeSystem/measure-population",
              "code": "denominator",
              "display": "Denominator"
            } ]
          },
          "count": 0
        }, {
          "id": "DenominatorExclusion_1",
          "code": {
            "coding": [ {
              "system": "http://terminology.hl7.org/CodeSystem/measure-population",
              "code": "denominator-exclusion",
              "display": "Denominator Exclusion"
            } ]
          },
          "count": 0
        }, {
          "id": "Numerator_1",
          "code": {
            "coding": [ {
              "system": "http://terminology.hl7.org/CodeSystem/measure-population",
              "code": "numerator",
              "display": "Numerator"
            } ]
          },
          "count": 0
        } ],
        "measureScore": {
          "value": 0.0
        }
      } ],
      "evaluatedResource": [ {
        "reference": "Patient/13fc77fb-6db3-4c4d-ae11-2ee08ff9acde"
      }, {
        "reference": "Observation/dbd96a94-e9d7-4d57-95d2-d3edcb4c4973"
      }, {
        "reference": "Observation/7d1c989f-bcbb-4930-bf7e-31309292544c"
      }, {
        "reference": "Observation/3b96ed1c-db33-47e0-899a-e0706567b744"
      }, {
        "reference": "Observation/e56fc298-69e5-4735-8786-831aaa365c1a"
      }, {
        "reference": "Encounter/4785a4ee-3159-482c-9fd2-0aa7d401cc32"
      }, {
        "reference": "Procedure/a31c990d-bca0-44ff-a16c-3497a42657de"
      }, {
        "reference": "Condition/b2df4f67-12d7-40f4-80a6-5716e1e9e4fd"
      }, {
        "reference": "Coverage/96bf3f11-a64c-49a9-a916-337734e1ef42"
      }, {
        "reference": "Organization/c032528a-7141-4d4e-a0a3-401ec9043a5e"
      }, {
        "reference": "Practitioner/064afd5e-c6ff-4f35-ac35-fb2391e86977"
      } ]
    },
    "request": {
      "method": "PUT",
      "url": "MeasureReport/9d3a2510-4285-4aa6-a5e9-c64f6bd13566"
    }
  } ]
}