{
  "resourceType": "Bundle",
  "id": "SDEPass-SDECoverage2",
  "type": "transaction",
  "entry": [ {
    "fullUrl": "https://madie.cms.gov/Patient/9c3b43d2-cbfd-4877-8b0e-e9e8cd9c6312",
    "resource": {
      "resourceType": "Patient",
      "id": "9c3b43d2-cbfd-4877-8b0e-e9e8cd9c6312",
      "meta": {
        "profile": [ "http://hl7.org/fhir/us/qicore/StructureDefinition/qicore-patient" ]
      },
      "extension": [ {
        "url": "http://hl7.org/fhir/us/core/StructureDefinition/us-core-race",
        "extension": [ {
          "url": "ombCategory",
          "valueCoding": {
            "system": "urn:oid:2.16.840.1.113883.6.238",
            "code": "2028-9",
            "display": "Asian",
            "userSelected": true
          }
        }, {
          "url": "text",
          "valueString": "Asian"
        }, {
          "url": "detailed",
          "valueCoding": {
            "system": "urn:oid:2.16.840.1.113883.6.238",
            "code": "1653-5",
            "display": "Tohono O'Odham"
          }
        } ]
      }, {
        "url": "http://hl7.org/fhir/us/core/StructureDefinition/us-core-ethnicity",
        "extension": [ {
          "url": "ombCategory",
          "valueCoding": {
            "system": "urn:oid:2.16.840.1.113883.6.238",
            "code": "2135-2",
            "display": "Hispanic or Latino",
            "userSelected": true
          }
        }, {
          "url": "text",
          "valueString": "Hispanic or Latino"
        }, {
          "url": "detailed",
          "valueCoding": {
            "system": "urn:oid:2.16.840.1.113883.6.238",
            "code": "2180-8",
            "display": "Puerto Rican"
          }
        } ]
      }, {
        "url": "http://hl7.org/fhir/us/core/StructureDefinition/us-core-sex",
        "valueCode": "248152002"
      } ],
      "identifier": [ {
        "system": "http://hospital.smarthealthit.org",
        "value": "999999995"
      } ],
      "name": [ {
        "family": "SDE",
        "given": [ "SDECoverage" ]
      } ],
      "gender": "unknown",
      "birthDate": "2007-01-01"
    },
    "request": {
      "method": "PUT",
      "url": "Patient/9c3b43d2-cbfd-4877-8b0e-e9e8cd9c6312"
    }
  }, {
    "fullUrl": "https://madie.cms.gov/Encounter/2320f804-37f0-4b8d-a2b5-7826b7fa3e7b",
    "resource": {
      "resourceType": "Encounter",
      "id": "2320f804-37f0-4b8d-a2b5-7826b7fa3e7b",
      "meta": {
        "profile": [ "http://hl7.org/fhir/us/qicore/StructureDefinition/qicore-encounter" ]
      },
      "status": "finished",
      "class": {
        "system": "http://terminology.hl7.org/CodeSystem/v3-ActCode",
        "code": "AMB",
        "display": "ambulatory"
      },
      "type": [ {
        "coding": [ {
          "system": "http://snomed.info/sct",
          "code": "444971000124105",
          "display": "Annual wellness visit (procedure)"
        } ]
      } ],
      "subject": {
        "reference": "Patient/9c3b43d2-cbfd-4877-8b0e-e9e8cd9c6312"
      },
      "period": {
        "start": "2026-01-01T00:00:00.000+00:00",
        "end": "2026-01-01T01:00:00.000+00:00"
      }
    },
    "request": {
      "method": "PUT",
      "url": "Encounter/2320f804-37f0-4b8d-a2b5-7826b7fa3e7b"
    }
  }, {
    "fullUrl": "https://madie.cms.gov/Coverage/7e1d292b-dceb-4972-87a6-323113e9f78e",
    "resource": {
      "resourceType": "Coverage",
      "id": "7e1d292b-dceb-4972-87a6-323113e9f78e",
      "meta": {
        "profile": [ "http://hl7.org/fhir/us/qicore/StructureDefinition/qicore-coverage" ]
      },
      "identifier": [ {
        "system": "http://benefitsinc.com/certificate",
        "value": "12345"
      } ],
      "status": "active",
      "type": {
        "coding": [ {
          "system": "https://nahdo.org/sopt",
          "code": "59",
          "display": "Other Private Insurance"
        } ]
      },
      "policyHolder": {
        "reference": "Patient/9c3b43d2-cbfd-4877-8b0e-e9e8cd9c6312"
      },
      "subscriber": {
        "reference": "Patient/9c3b43d2-cbfd-4877-8b0e-e9e8cd9c6312"
      },
      "subscriberId": "12191",
      "beneficiary": {
        "reference": "Patient/9c3b43d2-cbfd-4877-8b0e-e9e8cd9c6312"
      },
      "dependent": "0",
      "relationship": {
        "coding": [ {
          "system": "http://terminology.hl7.org/CodeSystem/subscriber-relationship",
          "code": "self"
        } ]
      },
      "period": {
        "start": "2023-01-01T06:00:00.000+00:00",
        "end": "2023-01-01T11:06:01.000+00:00"
      },
      "payor": [ {
        "reference": "Patient/9c3b43d2-cbfd-4877-8b0e-e9e8cd9c6312"
      } ],
      "order": 9
    },
    "request": {
      "method": "PUT",
      "url": "Coverage/7e1d292b-dceb-4972-87a6-323113e9f78e"
    }
  }, {
    "fullUrl": "https://madie.cms.gov/MedicationDispense/f85f8df6-75c7-4c87-bab4-5952705b0fc3",
    "resource": {
      "resourceType": "MedicationDispense",
      "id": "f85f8df6-75c7-4c87-bab4-5952705b0fc3",
      "meta": {
        "profile": [ "http://hl7.org/fhir/us/qicore/StructureDefinition/qicore-medicationdispense" ]
      },
      "status": "completed",
      "medicationCodeableConcept": {
        "coding": [ {
          "system": "http://www.nlm.nih.gov/research/umls/rxnorm",
          "code": "1099316",
          "display": "desipramine hydrochloride 75 MG Oral Tablet"
        } ]
      },
      "subject": {
        "reference": "Patient/9c3b43d2-cbfd-4877-8b0e-e9e8cd9c6312"
      },
      "daysSupply": {
        "value": 10,
        "system": "http://unitsofmeasure.org",
        "code": "d"
      },
      "whenHandedOver": "2026-01-01T01:00:00.000+00:00"
    },
    "request": {
      "method": "PUT",
      "url": "MedicationDispense/f85f8df6-75c7-4c87-bab4-5952705b0fc3"
    }
  }, {
    "fullUrl": "https://madie.cms.gov/MedicationDispense/8d8bff72-93dc-4775-b861-b3e41908168a",
    "resource": {
      "resourceType": "MedicationDispense",
      "id": "8d8bff72-93dc-4775-b861-b3e41908168a",
      "meta": {
        "profile": [ "http://hl7.org/fhir/us/qicore/StructureDefinition/qicore-medicationdispense" ]
      },
      "status": "completed",
      "medicationCodeableConcept": {
        "coding": [ {
          "system": "http://www.nlm.nih.gov/research/umls/rxnorm",
          "code": "1099316",
          "display": "desipramine hydrochloride 75 MG Oral Tablet"
        } ]
      },
      "subject": {
        "reference": "Patient/9c3b43d2-cbfd-4877-8b0e-e9e8cd9c6312"
      },
      "daysSupply": {
        "value": 10,
        "system": "http://unitsofmeasure.org",
        "code": "d"
      },
      "whenHandedOver": "2026-03-01T01:00:00.000+00:00"
    },
    "request": {
      "method": "PUT",
      "url": "MedicationDispense/8d8bff72-93dc-4775-b861-b3e41908168a"
    }
  }, {
    "fullUrl": "https://madie.cms.gov/Condition/4e4ad875-2878-4491-aee8-cbd717bf7c52",
    "resource": {
      "resourceType": "Condition",
      "id": "4e4ad875-2878-4491-aee8-cbd717bf7c52",
      "meta": {
        "profile": [ "http://hl7.org/fhir/us/qicore/StructureDefinition/qicore-condition-encounter-diagnosis" ]
      },
      "clinicalStatus": {
        "coding": [ {
          "system": "http://terminology.hl7.org/CodeSystem/condition-clinical",
          "code": "active"
        } ]
      },
      "category": [ {
        "coding": [ {
          "system": "http://terminology.hl7.org/CodeSystem/condition-category",
          "code": "encounter-diagnosis",
          "display": "Encounter Diagnosis"
        } ]
      } ],
      "code": {
        "coding": [ {
          "system": "http://snomed.info/sct",
          "code": "15193003",
          "display": "Severe recurrent major depression with psychotic features, mood-incongruent (disorder)"
        } ]
      },
      "subject": {
        "reference": "Patient/9c3b43d2-cbfd-4877-8b0e-e9e8cd9c6312"
      },
      "onsetDateTime": "2026-01-01T01:00:00.000+00:00"
    },
    "request": {
      "method": "PUT",
      "url": "Condition/4e4ad875-2878-4491-aee8-cbd717bf7c52"
    }
  }, {
    "fullUrl": "https://madie.cms.gov/MeasureReport/276724bd-793b-4101-9701-9e2cc681b0d6",
    "resource": {
      "resourceType": "MeasureReport",
      "id": "276724bd-793b-4101-9701-9e2cc681b0d6",
      "meta": {
        "profile": [ "http://hl7.org/fhir/us/cqfmeasures/StructureDefinition/test-case-cqfm" ]
      },
      "contained": [ {
        "resourceType": "Parameters",
        "id": "faa633fa-94fb-4168-ac78-fb225b0d820b-parameters",
        "parameter": [ {
          "name": "subject",
          "valueString": "3207b0d6-43cb-4dd7-a71f-db8ad4b9e07a"
        } ]
      } ],
      "extension": [ {
        "url": "http://hl7.org/fhir/StructureDefinition/cqf-inputParameters",
        "valueReference": {
          "reference": "#faa633fa-94fb-4168-ac78-fb225b0d820b-parameters"
        }
      }, {
        "url": "http://hl7.org/fhir/us/cqfmeasures/StructureDefinition/cqfm-testCaseDescription",
        "valueMarkdown": "Qualifying encounter is annual wellness visit"
      } ],
      "modifierExtension": [ {
        "url": "http://hl7.org/fhir/us/cqfmeasures/StructureDefinition/cqfm-isTestCase",
        "valueBoolean": true
      } ],
      "status": "complete",
      "type": "individual",
      "measure": "https://madie.cms.gov/Measure/CMS128FHIRAntidepressantMedManagement",
      "period": {
        "start": "2026-01-01",
        "end": "2026-12-31"
      },
      "group": [ {
        "id": "Group_1",
        "population": [ {
          "id": "InitialPopulation_1",
          "code": {
            "coding": [ {
              "system": "http://terminology.hl7.org/CodeSystem/measure-population",
              "code": "initial-population",
              "display": "Initial Population"
            } ]
          },
          "count": 1
        }, {
          "id": "Denominator_1",
          "code": {
            "coding": [ {
              "system": "http://terminology.hl7.org/CodeSystem/measure-population",
              "code": "denominator",
              "display": "Denominator"
            } ]
          },
          "count": 1
        }, {
          "id": "DenominatorExclusion_1",
          "code": {
            "coding": [ {
              "system": "http://terminology.hl7.org/CodeSystem/measure-population",
              "code": "denominator-exclusion",
              "display": "Denominator Exclusion"
            } ]
          },
          "count": 0
        }, {
          "id": "Numerator_1",
          "code": {
            "coding": [ {
              "system": "http://terminology.hl7.org/CodeSystem/measure-population",
              "code": "numerator",
              "display": "Numerator"
            } ]
          },
          "count": 0
        } ],
        "measureScore": {
          "value": 1
        }
      }, {
        "id": "Group_2",
        "population": [ {
          "id": "InitialPopulation_2",
          "code": {
            "coding": [ {
              "system": "http://terminology.hl7.org/CodeSystem/measure-population",
              "code": "initial-population",
              "display": "Initial Population"
            } ]
          },
          "count": 1
        }, {
          "id": "Denominator_2",
          "code": {
            "coding": [ {
              "system": "http://terminology.hl7.org/CodeSystem/measure-population",
              "code": "denominator",
              "display": "Denominator"
            } ]
          },
          "count": 1
        }, {
          "id": "DenominatorExclusion_2",
          "code": {
            "coding": [ {
              "system": "http://terminology.hl7.org/CodeSystem/measure-population",
              "code": "denominator-exclusion",
              "display": "Denominator Exclusion"
            } ]
          },
          "count": 0
        }, {
          "id": "Numerator_2",
          "code": {
            "coding": [ {
              "system": "http://terminology.hl7.org/CodeSystem/measure-population",
              "code": "numerator",
              "display": "Numerator"
            } ]
          },
          "count": 0
        } ],
        "measureScore": {
          "value": 1
        }
      } ],
      "evaluatedResource": [ {
        "reference": "Patient/9c3b43d2-cbfd-4877-8b0e-e9e8cd9c6312"
      }, {
        "reference": "Encounter/2320f804-37f0-4b8d-a2b5-7826b7fa3e7b"
      }, {
        "reference": "MedicationDispense/f85f8df6-75c7-4c87-bab4-5952705b0fc3"
      }, {
        "reference": "MedicationDispense/8d8bff72-93dc-4775-b861-b3e41908168a"
      }, {
        "reference": "Condition/4e4ad875-2878-4491-aee8-cbd717bf7c52"
      } ]
    },
    "request": {
      "method": "PUT",
      "url": "MeasureReport/276724bd-793b-4101-9701-9e2cc681b0d6"
    }
  }, {
    "fullUrl": "https://madie.cms.gov/MeasureReport/7a721db6-4a8a-4592-902f-8f9489296fb6",
    "resource": {
      "resourceType": "MeasureReport",
      "id": "7a721db6-4a8a-4592-902f-8f9489296fb6",
      "meta": {
        "profile": [ "http://hl7.org/fhir/us/cqfmeasures/StructureDefinition/test-case-cqfm" ]
      },
      "contained": [ {
        "resourceType": "Parameters",
        "id": "f1894f96-63a8-4d93-a03e-54d433231bb1-parameters",
        "parameter": [ {
          "name": "subject",
          "valueString": "9c3b43d2-cbfd-4877-8b0e-e9e8cd9c6312"
        } ]
      } ],
      "extension": [ {
        "url": "http://hl7.org/fhir/StructureDefinition/cqf-inputParameters",
        "valueReference": {
          "reference": "#f1894f96-63a8-4d93-a03e-54d433231bb1-parameters"
        }
      }, {
        "url": "http://hl7.org/fhir/us/cqfmeasures/StructureDefinition/cqfm-testCaseDescription",
        "valueMarkdown": "For meeting SDE 100% coverage - patient sex female"
      } ],
      "modifierExtension": [ {
        "url": "http://hl7.org/fhir/us/cqfmeasures/StructureDefinition/cqfm-isTestCase",
        "valueBoolean": true
      } ],
      "status": "complete",
      "type": "individual",
      "measure": "https://madie.cms.gov/Measure/CMS128FHIRAntidepressantMgmt",
      "period": {
        "start": "2026-01-01",
        "end": "2026-12-31"
      },
      "group": [ {
        "id": "Group_1",
        "population": [ {
          "id": "InitialPopulation_1",
          "code": {
            "coding": [ {
              "system": "http://terminology.hl7.org/CodeSystem/measure-population",
              "code": "initial-population",
              "display": "Initial Population"
            } ]
          },
          "count": 1
        }, {
          "id": "Denominator_1",
          "code": {
            "coding": [ {
              "system": "http://terminology.hl7.org/CodeSystem/measure-population",
              "code": "denominator",
              "display": "Denominator"
            } ]
          },
          "count": 1
        }, {
          "id": "DenominatorExclusion_1",
          "code": {
            "coding": [ {
              "system": "http://terminology.hl7.org/CodeSystem/measure-population",
              "code": "denominator-exclusion",
              "display": "Denominator Exclusion"
            } ]
          },
          "count": 0
        }, {
          "id": "Numerator_1",
          "code": {
            "coding": [ {
              "system": "http://terminology.hl7.org/CodeSystem/measure-population",
              "code": "numerator",
              "display": "Numerator"
            } ]
          },
          "count": 0
        } ],
        "measureScore": {
          "value": 1.0
        }
      }, {
        "id": "Group_2",
        "population": [ {
          "id": "InitialPopulation_2",
          "code": {
            "coding": [ {
              "system": "http://terminology.hl7.org/CodeSystem/measure-population",
              "code": "initial-population",
              "display": "Initial Population"
            } ]
          },
          "count": 1
        }, {
          "id": "Denominator_2",
          "code": {
            "coding": [ {
              "system": "http://terminology.hl7.org/CodeSystem/measure-population",
              "code": "denominator",
              "display": "Denominator"
            } ]
          },
          "count": 1
        }, {
          "id": "DenominatorExclusion_2",
          "code": {
            "coding": [ {
              "system": "http://terminology.hl7.org/CodeSystem/measure-population",
              "code": "denominator-exclusion",
              "display": "Denominator Exclusion"
            } ]
          },
          "count": 0
        }, {
          "id": "Numerator_2",
          "code": {
            "coding": [ {
              "system": "http://terminology.hl7.org/CodeSystem/measure-population",
              "code": "numerator",
              "display": "Numerator"
            } ]
          },
          "count": 0
        } ],
        "measureScore": {
          "value": 1.0
        }
      } ],
      "evaluatedResource": [ {
        "reference": "Patient/9c3b43d2-cbfd-4877-8b0e-e9e8cd9c6312"
      }, {
        "reference": "Encounter/2320f804-37f0-4b8d-a2b5-7826b7fa3e7b"
      }, {
        "reference": "Coverage/7e1d292b-dceb-4972-87a6-323113e9f78e"
      }, {
        "reference": "MedicationDispense/f85f8df6-75c7-4c87-bab4-5952705b0fc3"
      }, {
        "reference": "MedicationDispense/8d8bff72-93dc-4775-b861-b3e41908168a"
      }, {
        "reference": "Condition/4e4ad875-2878-4491-aee8-cbd717bf7c52"
      }, {
        "reference": "MeasureReport/276724bd-793b-4101-9701-9e2cc681b0d6"
      } ]
    },
    "request": {
      "method": "PUT",
      "url": "MeasureReport/7a721db6-4a8a-4592-902f-8f9489296fb6"
    }
  } ]
}