{
  "resourceType": "Bundle",
  "id": "62c880ed0111a60120dc2218",
  "type": "transaction",
  "entry": [ {
    "fullUrl": "https://madie.cms.gov/Patient/d6434f7f-8639-41c0-aa95-d67ae191ad37",
    "resource": {
      "resourceType": "Patient",
      "id": "d6434f7f-8639-41c0-aa95-d67ae191ad37",
      "meta": {
        "profile": [ "http://hl7.org/fhir/us/qicore/StructureDefinition/qicore-patient" ]
      },
      "extension": [ {
        "url": "http://hl7.org/fhir/us/core/StructureDefinition/us-core-race",
        "extension": [ {
          "url": "ombCategory",
          "valueCoding": {
            "system": "urn:oid:2.16.840.1.113883.6.238",
            "code": "1002-5",
            "display": "American Indian or Alaska Native"
          }
        }, {
          "url": "text",
          "valueString": "American Indian or Alaska Native"
        } ]
      }, {
        "url": "http://hl7.org/fhir/us/core/StructureDefinition/us-core-ethnicity",
        "extension": [ {
          "url": "ombCategory",
          "valueCoding": {
            "system": "urn:oid:2.16.840.1.113883.6.238",
            "code": "2135-2",
            "display": "Hispanic or Latino"
          }
        }, {
          "url": "text",
          "valueString": "Hispanic or Latino"
        } ]
      } ],
      "identifier": [ {
        "type": {
          "coding": [ {
            "system": "http://terminology.hl7.org/CodeSystem/v2-0203",
            "code": "MR"
          } ]
        },
        "system": "https://bonnie-fhir.healthit.gov/",
        "value": "62c880ed0111a60120dc2218"
      } ],
      "active": true,
      "name": [ {
        "use": "usual",
        "family": "NUMERPassPop1",
        "given": [ "PainAssessResultDecimal" ]
      } ],
      "gender": "male",
      "birthDate": "1938-06-14"
    },
    "request": {
      "method": "PUT",
      "url": "Patient/d6434f7f-8639-41c0-aa95-d67ae191ad37"
    }
  }, {
    "fullUrl": "https://madie.cms.gov/Condition/d0bd54f7-19e7-4a25-af0a-0694a9c7ff55",
    "resource": {
      "resourceType": "Condition",
      "id": "d0bd54f7-19e7-4a25-af0a-0694a9c7ff55",
      "meta": {
        "profile": [ "http://hl7.org/fhir/us/qicore/StructureDefinition/qicore-condition-problems-health-concerns" ]
      },
      "clinicalStatus": {
        "coding": [ {
          "system": "http://terminology.hl7.org/CodeSystem/condition-clinical",
          "code": "active",
          "display": "active"
        } ]
      },
      "verificationStatus": {
        "coding": [ {
          "system": "http://terminology.hl7.org/CodeSystem/condition-ver-status",
          "code": "confirmed",
          "display": "Confirmed"
        } ]
      },
      "category": [ {
        "coding": [ {
          "system": "http://terminology.hl7.org/CodeSystem/condition-category",
          "code": "problem-list-item",
          "display": "Problem List Item"
        } ]
      } ],
      "code": {
        "coding": [ {
          "system": "http://snomed.info/sct",
          "code": "107691000119101"
        } ]
      },
      "subject": {
        "reference": "Patient/d6434f7f-8639-41c0-aa95-d67ae191ad37"
      },
      "onsetDateTime": "2021-02-21T13:00:00.000+00:00"
    },
    "request": {
      "method": "PUT",
      "url": "Condition/d0bd54f7-19e7-4a25-af0a-0694a9c7ff55"
    }
  }, {
    "fullUrl": "https://madie.cms.gov/Encounter/23113cb7-840e-4e5e-9c17-0245612cf59a",
    "resource": {
      "resourceType": "Encounter",
      "id": "23113cb7-840e-4e5e-9c17-0245612cf59a",
      "meta": {
        "profile": [ "http://hl7.org/fhir/us/qicore/StructureDefinition/qicore-encounter" ]
      },
      "status": "finished",
      "class": {
        "system": "http://terminology.hl7.org/CodeSystem/v3-ActCode",
        "code": "AMB",
        "display": "ambulatory",
        "userSelected": true
      },
      "type": [ {
        "coding": [ {
          "system": "http://www.ama-assn.org/go/cpt",
          "code": "99213"
        } ]
      } ],
      "subject": {
        "reference": "Patient/d6434f7f-8639-41c0-aa95-d67ae191ad37"
      },
      "period": {
        "start": "2026-06-23T10:00:00.000+00:00",
        "end": "2026-06-23T12:00:00.000+00:00"
      }
    },
    "request": {
      "method": "PUT",
      "url": "Encounter/23113cb7-840e-4e5e-9c17-0245612cf59a"
    }
  }, {
    "fullUrl": "https://madie.cms.gov/Coverage/8911e684-a2f5-4b7a-8373-ef36ab09a3a0",
    "resource": {
      "resourceType": "Coverage",
      "id": "8911e684-a2f5-4b7a-8373-ef36ab09a3a0",
      "meta": {
        "profile": [ "http://hl7.org/fhir/us/qicore/StructureDefinition/qicore-coverage" ]
      },
      "status": "active",
      "beneficiary": {
        "reference": "Patient/d6434f7f-8639-41c0-aa95-d67ae191ad37"
      },
      "period": {
        "start": "1938-06-14T08:00:00.000+00:00"
      },
      "payor": [ {
        "reference": "Organization/d5480485-97a7-45d3-a4b5-cd820a3f116f"
      } ]
    },
    "request": {
      "method": "PUT",
      "url": "Coverage/8911e684-a2f5-4b7a-8373-ef36ab09a3a0"
    }
  }, {
    "fullUrl": "https://madie.cms.gov/Procedure/0041c38b-c6e5-4bae-9961-1f9fcadfa38f",
    "resource": {
      "resourceType": "Procedure",
      "id": "0041c38b-c6e5-4bae-9961-1f9fcadfa38f",
      "meta": {
        "profile": [ "http://hl7.org/fhir/us/qicore/StructureDefinition/qicore-procedure" ]
      },
      "extension": [ {
        "url": "http://hl7.org/fhir/us/qicore/StructureDefinition/qicore-recorded",
        "valueDateTime": "2026-05-24T12:35:00.000+00:00"
      } ],
      "status": "completed",
      "code": {
        "coding": [ {
          "system": "http://www.ama-assn.org/go/cpt",
          "code": "96409"
        } ]
      },
      "subject": {
        "reference": "Patient/d6434f7f-8639-41c0-aa95-d67ae191ad37"
      },
      "performedPeriod": {
        "start": "2026-05-24T10:45:00.000+00:00",
        "end": "2026-05-24T14:45:00.000+00:00"
      }
    },
    "request": {
      "method": "PUT",
      "url": "Procedure/0041c38b-c6e5-4bae-9961-1f9fcadfa38f"
    }
  }, {
    "fullUrl": "https://madie.cms.gov/Procedure/1bd06f3f-6b0f-45cd-9b41-781a986a3b13",
    "resource": {
      "resourceType": "Procedure",
      "id": "1bd06f3f-6b0f-45cd-9b41-781a986a3b13",
      "meta": {
        "profile": [ "http://hl7.org/fhir/us/qicore/StructureDefinition/qicore-procedure" ]
      },
      "extension": [ {
        "url": "http://hl7.org/fhir/us/qicore/StructureDefinition/qicore-recorded",
        "valueDateTime": "2026-06-23T12:35:00.000+00:00"
      } ],
      "status": "completed",
      "code": {
        "coding": [ {
          "system": "http://www.ama-assn.org/go/cpt",
          "code": "51720"
        } ]
      },
      "subject": {
        "reference": "Patient/d6434f7f-8639-41c0-aa95-d67ae191ad37"
      },
      "performedPeriod": {
        "start": "2026-06-23T13:30:00.000+00:00",
        "end": "2026-06-23T14:30:00.000+00:00"
      }
    },
    "request": {
      "method": "PUT",
      "url": "Procedure/1bd06f3f-6b0f-45cd-9b41-781a986a3b13"
    }
  }, {
    "fullUrl": "https://madie.cms.gov/Procedure/9a121832-cdc5-4f0c-9d35-9a09aca8d9b9",
    "resource": {
      "resourceType": "Procedure",
      "id": "9a121832-cdc5-4f0c-9d35-9a09aca8d9b9",
      "meta": {
        "profile": [ "http://hl7.org/fhir/us/qicore/StructureDefinition/qicore-procedure" ]
      },
      "extension": [ {
        "url": "http://hl7.org/fhir/us/qicore/StructureDefinition/qicore-recorded",
        "valueDateTime": "2026-06-23T12:35:00.000+00:00"
      } ],
      "status": "completed",
      "code": {
        "coding": [ {
          "system": "http://www.ama-assn.org/go/cpt",
          "code": "51720"
        } ]
      },
      "subject": {
        "reference": "Patient/d6434f7f-8639-41c0-aa95-d67ae191ad37"
      },
      "performedPeriod": {
        "start": "2026-06-23T15:30:00.000+00:00",
        "end": "2026-06-23T16:30:00.000+00:00"
      }
    },
    "request": {
      "method": "PUT",
      "url": "Procedure/9a121832-cdc5-4f0c-9d35-9a09aca8d9b9"
    }
  }, {
    "fullUrl": "https://madie.cms.gov/Procedure/e0966194-264e-4d05-941f-f99521d5c793",
    "resource": {
      "resourceType": "Procedure",
      "id": "e0966194-264e-4d05-941f-f99521d5c793",
      "meta": {
        "profile": [ "http://hl7.org/fhir/us/qicore/StructureDefinition/qicore-procedure" ]
      },
      "extension": [ {
        "url": "http://hl7.org/fhir/us/qicore/StructureDefinition/qicore-recorded",
        "valueDateTime": "2026-07-23T12:35:00.000+00:00"
      } ],
      "status": "completed",
      "code": {
        "coding": [ {
          "system": "http://www.ama-assn.org/go/cpt",
          "code": "96409"
        } ]
      },
      "subject": {
        "reference": "Patient/d6434f7f-8639-41c0-aa95-d67ae191ad37"
      },
      "performedPeriod": {
        "start": "2026-07-23T13:30:00.000+00:00",
        "end": "2026-07-23T16:30:00.000+00:00"
      }
    },
    "request": {
      "method": "PUT",
      "url": "Procedure/e0966194-264e-4d05-941f-f99521d5c793"
    }
  }, {
    "fullUrl": "https://madie.cms.gov/Organization/d5480485-97a7-45d3-a4b5-cd820a3f116f",
    "resource": {
      "resourceType": "Organization",
      "id": "d5480485-97a7-45d3-a4b5-cd820a3f116f",
      "meta": {
        "profile": [ "http://hl7.org/fhir/us/qicore/StructureDefinition/qicore-organization" ]
      },
      "identifier": [ {
        "use": "temp",
        "system": "urn:oid:2.16.840.1.113883.4.4",
        "value": "21-3259825"
      } ],
      "active": true,
      "type": [ {
        "coding": [ {
          "system": "http://terminology.hl7.org/CodeSystem/organization-type",
          "code": "pay",
          "display": "Payer"
        } ]
      } ],
      "name": "Blue Cross Blue Shield of Texas",
      "telecom": [ {
        "system": "phone",
        "value": "(+1) 972-766-6900"
      } ],
      "address": [ {
        "use": "billing",
        "type": "postal",
        "line": [ "P.O. Box 660044" ],
        "city": "Dallas",
        "state": "TX",
        "postalCode": "75266-0044",
        "country": "USA"
      } ]
    },
    "request": {
      "method": "PUT",
      "url": "Organization/d5480485-97a7-45d3-a4b5-cd820a3f116f"
    }
  }, {
    "fullUrl": "https://madie.cms.gov/Practitioner/4a9e8223-ca2f-49ae-9c9a-9f387595add5",
    "resource": {
      "resourceType": "Practitioner",
      "id": "4a9e8223-ca2f-49ae-9c9a-9f387595add5",
      "meta": {
        "profile": [ "http://hl7.org/fhir/us/qicore/StructureDefinition/qicore-practitioner" ]
      },
      "identifier": [ {
        "system": "http://hl7.org/fhir/sid/us-npi",
        "value": "1234567890"
      } ],
      "name": [ {
        "family": "Evil",
        "prefix": [ "Dr" ]
      } ]
    },
    "request": {
      "method": "PUT",
      "url": "Practitioner/4a9e8223-ca2f-49ae-9c9a-9f387595add5"
    }
  }, {
    "fullUrl": "https://madie.cms.gov/MeasureReport/27cd6fe6-0c10-43c7-ae09-f3904ec22496",
    "resource": {
      "resourceType": "MeasureReport",
      "id": "27cd6fe6-0c10-43c7-ae09-f3904ec22496",
      "meta": {
        "profile": [ "http://hl7.org/fhir/us/cqfmeasures/StructureDefinition/test-case-cqfm" ]
      },
      "contained": [ {
        "resourceType": "Parameters",
        "id": "8474a50f-cc0c-41cf-b808-8e0d627872fe-parameters",
        "parameter": [ {
          "name": "subject",
          "valueString": "d6434f7f-8639-41c0-aa95-d67ae191ad37"
        } ]
      } ],
      "extension": [ {
        "url": "http://hl7.org/fhir/StructureDefinition/cqf-inputParameters",
        "valueReference": {
          "reference": "#8474a50f-cc0c-41cf-b808-8e0d627872fe-parameters"
        }
      }, {
        "url": "http://hl7.org/fhir/us/cqfmeasures/StructureDefinition/cqfm-testCaseDescription",
        "valueMarkdown": "Patient with cancer diagnosis overlaps the office visit during measurement period. Chemotherapy administered prior and after office visit. Pain intensity assessment was not performed during an office visit."
      } ],
      "modifierExtension": [ {
        "url": "http://hl7.org/fhir/us/cqfmeasures/StructureDefinition/cqfm-isTestCase",
        "valueBoolean": true
      } ],
      "status": "complete",
      "type": "individual",
      "measure": "https://madie.cms.gov/Measure/CMS157FHIRPainIntensityQuantified",
      "period": {
        "start": "2026-01-01",
        "end": "2026-12-31"
      },
      "group": [ {
        "id": "Group_1",
        "population": [ {
          "id": "InitialPopulation_1",
          "code": {
            "coding": [ {
              "system": "http://terminology.hl7.org/CodeSystem/measure-population",
              "code": "initial-population",
              "display": "Initial Population"
            } ]
          },
          "count": 1
        }, {
          "id": "Denominator_1",
          "code": {
            "coding": [ {
              "system": "http://terminology.hl7.org/CodeSystem/measure-population",
              "code": "denominator",
              "display": "Denominator"
            } ]
          },
          "count": 1
        }, {
          "id": "Numerator_1",
          "code": {
            "coding": [ {
              "system": "http://terminology.hl7.org/CodeSystem/measure-population",
              "code": "numerator",
              "display": "Numerator"
            } ]
          },
          "count": 0
        } ],
        "measureScore": {
          "value": 0.0
        }
      }, {
        "id": "Group_2",
        "population": [ {
          "id": "InitialPopulation_2",
          "code": {
            "coding": [ {
              "system": "http://terminology.hl7.org/CodeSystem/measure-population",
              "code": "initial-population",
              "display": "Initial Population"
            } ]
          },
          "count": 0
        }, {
          "id": "Denominator_2",
          "code": {
            "coding": [ {
              "system": "http://terminology.hl7.org/CodeSystem/measure-population",
              "code": "denominator",
              "display": "Denominator"
            } ]
          },
          "count": 0
        }, {
          "id": "Numerator_2",
          "code": {
            "coding": [ {
              "system": "http://terminology.hl7.org/CodeSystem/measure-population",
              "code": "numerator",
              "display": "Numerator"
            } ]
          },
          "count": 0
        } ],
        "measureScore": {
          "value": 0.0
        }
      } ],
      "evaluatedResource": [ {
        "reference": "Patient/d6434f7f-8639-41c0-aa95-d67ae191ad37"
      }, {
        "reference": "Condition/d0bd54f7-19e7-4a25-af0a-0694a9c7ff55"
      }, {
        "reference": "Encounter/23113cb7-840e-4e5e-9c17-0245612cf59a"
      }, {
        "reference": "Coverage/8911e684-a2f5-4b7a-8373-ef36ab09a3a0"
      }, {
        "reference": "Procedure/0041c38b-c6e5-4bae-9961-1f9fcadfa38f"
      }, {
        "reference": "Procedure/1bd06f3f-6b0f-45cd-9b41-781a986a3b13"
      }, {
        "reference": "Procedure/9a121832-cdc5-4f0c-9d35-9a09aca8d9b9"
      }, {
        "reference": "Procedure/e0966194-264e-4d05-941f-f99521d5c793"
      }, {
        "reference": "Organization/d5480485-97a7-45d3-a4b5-cd820a3f116f"
      }, {
        "reference": "Practitioner/4a9e8223-ca2f-49ae-9c9a-9f387595add5"
      } ]
    },
    "request": {
      "method": "PUT",
      "url": "MeasureReport/27cd6fe6-0c10-43c7-ae09-f3904ec22496"
    }
  } ]
}