{
  "resourceType": "Bundle",
  "id": "617bf16e1619a529957d62c5",
  "type": "transaction",
  "entry": [ {
    "fullUrl": "https://madie.cms.gov/Patient/1a75e113-5ea8-4341-b940-deb8b5a152e6",
    "resource": {
      "resourceType": "Patient",
      "id": "1a75e113-5ea8-4341-b940-deb8b5a152e6",
      "meta": {
        "profile": [ "http://hl7.org/fhir/us/qicore/StructureDefinition/qicore-patient" ]
      },
      "extension": [ {
        "url": "http://hl7.org/fhir/us/core/StructureDefinition/us-core-race",
        "extension": [ {
          "url": "ombCategory",
          "valueCoding": {
            "system": "urn:oid:2.16.840.1.113883.6.238",
            "code": "2054-5",
            "display": "Black or African American",
            "userSelected": true
          }
        }, {
          "url": "text",
          "valueString": "Black or African American"
        } ]
      }, {
        "url": "http://hl7.org/fhir/us/core/StructureDefinition/us-core-ethnicity",
        "extension": [ {
          "url": "ombCategory",
          "valueCoding": {
            "system": "urn:oid:2.16.840.1.113883.6.238",
            "code": "2186-5",
            "display": "Not Hispanic or Latino",
            "userSelected": true
          }
        }, {
          "url": "text",
          "valueString": "Not Hispanic or Latino"
        } ]
      }, {
        "url": "http://hl7.org/fhir/us/core/StructureDefinition/us-core-sex",
        "valueCode": "248152002"
      } ],
      "identifier": [ {
        "type": {
          "coding": [ {
            "system": "http://terminology.hl7.org/CodeSystem/v2-0203",
            "code": "MR"
          } ]
        },
        "system": "https://bonnie-fhir.healthit.gov/",
        "value": "617bf16e1619a529957d62c5"
      } ],
      "name": [ {
        "family": "DenExcl7Pass",
        "given": [ "DxStartsandEndsDuring90dayPeriod" ]
      } ],
      "gender": "female",
      "birthDate": "1985-12-02"
    },
    "request": {
      "method": "PUT",
      "url": "Patient/1a75e113-5ea8-4341-b940-deb8b5a152e6"
    }
  }, {
    "fullUrl": "https://madie.cms.gov/Encounter/cac3a399-9af6-499e-90db-e573ad727456",
    "resource": {
      "resourceType": "Encounter",
      "id": "cac3a399-9af6-499e-90db-e573ad727456",
      "meta": {
        "profile": [ "http://hl7.org/fhir/us/qicore/StructureDefinition/qicore-encounter" ]
      },
      "status": "finished",
      "class": {
        "system": "http://terminology.hl7.org/CodeSystem/v3-ActCode",
        "code": "EMER",
        "display": "emergency",
        "userSelected": true
      },
      "type": [ {
        "coding": [ {
          "system": "http://snomed.info/sct",
          "version": "2020-09",
          "code": "4525004",
          "display": "Emergency department patient visit (procedure)",
          "userSelected": true
        } ]
      } ],
      "subject": {
        "reference": "Patient/1a75e113-5ea8-4341-b940-deb8b5a152e6"
      },
      "period": {
        "start": "2026-10-09T08:05:00.000+00:00",
        "end": "2026-10-10T07:15:00.000+00:00"
      },
      "reasonReference": [ {
        "reference": "Condition/8663c2ca-a16f-4b2f-9da6-d412a7f42015"
      } ]
    },
    "request": {
      "method": "PUT",
      "url": "Encounter/cac3a399-9af6-499e-90db-e573ad727456"
    }
  }, {
    "fullUrl": "https://madie.cms.gov/Condition/8663c2ca-a16f-4b2f-9da6-d412a7f42015",
    "resource": {
      "resourceType": "Condition",
      "id": "8663c2ca-a16f-4b2f-9da6-d412a7f42015",
      "meta": {
        "profile": [ "http://hl7.org/fhir/us/qicore/StructureDefinition/qicore-condition-problems-health-concerns" ]
      },
      "clinicalStatus": {
        "coding": [ {
          "system": "http://terminology.hl7.org/CodeSystem/condition-clinical",
          "code": "inactive",
          "display": "Inactive",
          "userSelected": true
        } ]
      },
      "verificationStatus": {
        "coding": [ {
          "system": "http://terminology.hl7.org/CodeSystem/condition-ver-status",
          "code": "confirmed"
        } ]
      },
      "category": [ {
        "coding": [ {
          "system": "http://terminology.hl7.org/CodeSystem/condition-category",
          "code": "problem-list-item",
          "display": "Problem List Item",
          "userSelected": true
        } ]
      } ],
      "code": {
        "coding": [ {
          "system": "http://snomed.info/sct",
          "version": "2020-09",
          "code": "401303003",
          "display": "Acute ST segment elevation myocardial infarction (disorder)",
          "userSelected": true
        } ]
      },
      "subject": {
        "reference": "Patient/1a75e113-5ea8-4341-b940-deb8b5a152e6"
      },
      "onsetDateTime": "2026-10-09T08:30:00.000+00:00",
      "abatementDateTime": "2026-10-10T06:30:00.000+00:00"
    },
    "request": {
      "method": "PUT",
      "url": "Condition/8663c2ca-a16f-4b2f-9da6-d412a7f42015"
    }
  }, {
    "fullUrl": "https://madie.cms.gov/Condition/b38568a9-4400-4ac2-b7b3-c45c5b79b748",
    "resource": {
      "resourceType": "Condition",
      "id": "b38568a9-4400-4ac2-b7b3-c45c5b79b748",
      "meta": {
        "profile": [ "http://hl7.org/fhir/us/qicore/StructureDefinition/qicore-condition-problems-health-concerns" ]
      },
      "clinicalStatus": {
        "coding": [ {
          "system": "http://terminology.hl7.org/CodeSystem/condition-clinical",
          "version": "4.0.1",
          "code": "inactive",
          "display": "Inactive",
          "userSelected": true
        } ]
      },
      "verificationStatus": {
        "coding": [ {
          "system": "http://terminology.hl7.org/CodeSystem/condition-ver-status",
          "code": "confirmed"
        } ]
      },
      "category": [ {
        "coding": [ {
          "system": "http://terminology.hl7.org/CodeSystem/condition-category",
          "code": "problem-list-item",
          "display": "Problem List Item",
          "userSelected": true
        } ]
      } ],
      "code": {
        "coding": [ {
          "system": "http://snomed.info/sct",
          "version": "2020-09",
          "code": "195186005",
          "display": "Cerebral infarction due to embolism of precerebral arteries (disorder)",
          "userSelected": true
        } ]
      },
      "subject": {
        "reference": "Patient/1a75e113-5ea8-4341-b940-deb8b5a152e6"
      },
      "onsetDateTime": "2026-08-20T08:00:00.000+00:00",
      "abatementDateTime": "2026-10-01T09:15:00.000+00:00"
    },
    "request": {
      "method": "PUT",
      "url": "Condition/b38568a9-4400-4ac2-b7b3-c45c5b79b748"
    }
  }, {
    "fullUrl": "https://madie.cms.gov/MeasureReport/d2fec0b8-f522-44e0-9d91-25c9f2bb6f16",
    "resource": {
      "resourceType": "MeasureReport",
      "id": "d2fec0b8-f522-44e0-9d91-25c9f2bb6f16",
      "meta": {
        "profile": [ "http://hl7.org/fhir/us/cqfmeasures/StructureDefinition/test-case-cqfm" ]
      },
      "contained": [ {
        "resourceType": "Parameters",
        "id": "79946e96-1aed-44ec-a57b-c6bb83658c38-parameters",
        "parameter": [ {
          "name": "subject",
          "valueString": "1a75e113-5ea8-4341-b940-deb8b5a152e6"
        } ]
      } ],
      "extension": [ {
        "url": "http://hl7.org/fhir/StructureDefinition/cqf-inputParameters",
        "valueReference": {
          "reference": "#79946e96-1aed-44ec-a57b-c6bb83658c38-parameters"
        }
      }, {
        "url": "http://hl7.org/fhir/us/cqfmeasures/StructureDefinition/cqfm-testCaseDescription",
        "valueMarkdown": "Patient has Ischemic Stroke (exclusion diagnosis) starts during and ends during 90 day period"
      } ],
      "modifierExtension": [ {
        "url": "http://hl7.org/fhir/us/cqfmeasures/StructureDefinition/cqfm-isTestCase",
        "valueBoolean": true
      } ],
      "status": "complete",
      "type": "individual",
      "measure": "https://madie.cms.gov/Measure/CMS996FHIRAptTxforSTEMI",
      "period": {
        "start": "2026-01-01",
        "end": "2026-12-31"
      },
      "group": [ {
        "id": "Group_1",
        "population": [ {
          "id": "InitialPopulation_1",
          "code": {
            "coding": [ {
              "system": "http://terminology.hl7.org/CodeSystem/measure-population",
              "code": "initial-population",
              "display": "Initial Population"
            } ]
          },
          "count": 1
        }, {
          "id": "Denominator_1",
          "code": {
            "coding": [ {
              "system": "http://terminology.hl7.org/CodeSystem/measure-population",
              "code": "denominator",
              "display": "Denominator"
            } ]
          },
          "count": 1
        }, {
          "id": "DenominatorExclusion_1",
          "code": {
            "coding": [ {
              "system": "http://terminology.hl7.org/CodeSystem/measure-population",
              "code": "denominator-exclusion",
              "display": "Denominator Exclusion"
            } ]
          },
          "count": 1
        }, {
          "id": "Numerator_1",
          "code": {
            "coding": [ {
              "system": "http://terminology.hl7.org/CodeSystem/measure-population",
              "code": "numerator",
              "display": "Numerator"
            } ]
          },
          "count": 0
        }, {
          "id": "DenominatorException_1",
          "code": {
            "coding": [ {
              "system": "http://terminology.hl7.org/CodeSystem/measure-population",
              "code": "denominator-exception",
              "display": "Denominator Exception"
            } ]
          },
          "count": 0
        } ],
        "measureScore": {
          "value": 0.0
        }
      } ],
      "evaluatedResource": [ {
        "reference": "Patient/1a75e113-5ea8-4341-b940-deb8b5a152e6"
      }, {
        "reference": "Encounter/cac3a399-9af6-499e-90db-e573ad727456"
      }, {
        "reference": "Condition/8663c2ca-a16f-4b2f-9da6-d412a7f42015"
      }, {
        "reference": "Condition/b38568a9-4400-4ac2-b7b3-c45c5b79b748"
      } ]
    },
    "request": {
      "method": "PUT",
      "url": "MeasureReport/d2fec0b8-f522-44e0-9d91-25c9f2bb6f16"
    }
  } ]
}