{
  "resourceType": "Bundle",
  "id": "tests-DenexPass-Glucose610Within7HrInterval-bundle",
  "type": "transaction",
  "entry": [ {
    "fullUrl": "https://madie.cms.gov/Condition/ffde9d6a-4c42-4ad4-87b7-d91cd49b0012",
    "resource": {
      "resourceType": "Condition",
      "id": "ffde9d6a-4c42-4ad4-87b7-d91cd49b0012",
      "meta": {
        "profile": [ "http://hl7.org/fhir/us/qicore/StructureDefinition/qicore-condition-encounter-diagnosis" ]
      },
      "clinicalStatus": {
        "coding": [ {
          "system": "http://terminology.hl7.org/CodeSystem/condition-clinical",
          "code": "active"
        } ]
      },
      "verificationStatus": {
        "coding": [ {
          "system": "http://terminology.hl7.org/CodeSystem/condition-ver-status",
          "code": "confirmed"
        } ]
      },
      "category": [ {
        "coding": [ {
          "system": "http://terminology.hl7.org/CodeSystem/condition-category",
          "code": "encounter-diagnosis",
          "display": "Encounter Diagnosis"
        } ]
      } ],
      "code": {
        "coding": [ {
          "system": "http://snomed.info/sct",
          "code": "46635009",
          "display": "Diabetes mellitus type 1 (disorder)"
        } ]
      },
      "subject": {
        "reference": "Patient/98533ccd-24ee-41b3-aab2-ef6cbf89e00d"
      },
      "encounter": {
        "reference": "Encounter/7f3f446b-3ff6-432a-8318-88a4f137d80a"
      },
      "onsetDateTime": "2026-07-11T08:00:00.000Z"
    },
    "request": {
      "method": "PUT",
      "url": "Condition/ffde9d6a-4c42-4ad4-87b7-d91cd49b0012"
    }
  }, {
    "fullUrl": "https://madie.cms.gov/Encounter/e165b535-bb27-4617-b136-1389cf559dd5",
    "resource": {
      "resourceType": "Encounter",
      "id": "e165b535-bb27-4617-b136-1389cf559dd5",
      "meta": {
        "profile": [ "http://hl7.org/fhir/us/qicore/StructureDefinition/qicore-encounter" ]
      },
      "status": "finished",
      "class": {
        "system": "http://terminology.hl7.org/CodeSystem/v3-ActCode",
        "code": "IMP",
        "display": "inpatient encounter"
      },
      "type": [ {
        "coding": [ {
          "system": "http://snomed.info/sct",
          "code": "183452005",
          "display": "Emergency hospital admission"
        } ]
      } ],
      "subject": {
        "reference": "Patient/98533ccd-24ee-41b3-aab2-ef6cbf89e00d"
      },
      "period": {
        "start": "2026-11-12T16:00:00.000Z",
        "end": "2026-11-12T19:00:00.000Z"
      },
      "reasonReference": [ {
        "reference": "Condition/ffde9d6a-4c42-4ad4-87b7-d91cd49b0012"
      } ]
    },
    "request": {
      "method": "PUT",
      "url": "Encounter/e165b535-bb27-4617-b136-1389cf559dd5"
    }
  }, {
    "fullUrl": "https://madie.cms.gov/Encounter/7f3f446b-3ff6-432a-8318-88a4f137d80a",
    "resource": {
      "resourceType": "Encounter",
      "id": "7f3f446b-3ff6-432a-8318-88a4f137d80a",
      "meta": {
        "profile": [ "http://hl7.org/fhir/us/qicore/StructureDefinition/qicore-encounter" ]
      },
      "status": "finished",
      "class": {
        "system": "http://terminology.hl7.org/CodeSystem/v3-ActCode",
        "code": "EMER",
        "display": "emergency encounter"
      },
      "type": [ {
        "coding": [ {
          "system": "http://snomed.info/sct",
          "code": "448951000124107",
          "display": "Admission to department (procedure)"
        } ]
      } ],
      "subject": {
        "reference": "Patient/98533ccd-24ee-41b3-aab2-ef6cbf89e00d"
      },
      "period": {
        "start": "2026-11-12T15:00:00.000Z",
        "end": "2026-11-12T15:45:00.000Z"
      },
      "reasonReference": [ {
        "reference": "Condition/ffde9d6a-4c42-4ad4-87b7-d91cd49b0012"
      } ]
    },
    "request": {
      "method": "PUT",
      "url": "Encounter/7f3f446b-3ff6-432a-8318-88a4f137d80a"
    }
  }, {
    "fullUrl": "https://madie.cms.gov/Patient/98533ccd-24ee-41b3-aab2-ef6cbf89e00d",
    "resource": {
      "resourceType": "Patient",
      "id": "98533ccd-24ee-41b3-aab2-ef6cbf89e00d",
      "meta": {
        "profile": [ "http://hl7.org/fhir/us/qicore/StructureDefinition/qicore-patient" ]
      },
      "extension": [ {
        "url": "http://hl7.org/fhir/us/core/StructureDefinition/us-core-race",
        "extension": [ {
          "url": "ombCategory",
          "valueCoding": {
            "system": "urn:oid:2.16.840.1.113883.6.238",
            "code": "2106-3",
            "display": "White"
          }
        }, {
          "url": "text",
          "valueString": "White"
        } ]
      }, {
        "url": "http://hl7.org/fhir/us/core/StructureDefinition/us-core-ethnicity",
        "extension": [ {
          "url": "ombCategory",
          "valueCoding": {
            "system": "urn:oid:2.16.840.1.113883.6.238",
            "code": "2135-2",
            "display": "Hispanic or Latino"
          }
        }, {
          "url": "text",
          "valueString": "Hispanic or Latino"
        } ]
      }, {
        "url": "http://hl7.org/fhir/us/core/StructureDefinition/us-core-sex",
        "valueCode": "248153007"
      } ],
      "identifier": [ {
        "system": "http://hospital.smarthealthit.org",
        "value": "999999999"
      } ],
      "name": [ {
        "family": "Example",
        "given": [ "Patient" ]
      } ],
      "gender": "female",
      "birthDate": "1956-01-01"
    },
    "request": {
      "method": "PUT",
      "url": "Patient/98533ccd-24ee-41b3-aab2-ef6cbf89e00d"
    }
  }, {
    "fullUrl": "https://madie.cms.gov/Observation/89b5386c-ec03-4fe1-88be-34dd2ecd81bb",
    "resource": {
      "resourceType": "Observation",
      "id": "89b5386c-ec03-4fe1-88be-34dd2ecd81bb",
      "meta": {
        "profile": [ "http://hl7.org/fhir/us/qicore/StructureDefinition/qicore-observation-lab" ]
      },
      "status": "final",
      "category": [ {
        "coding": [ {
          "system": "http://terminology.hl7.org/CodeSystem/observation-category",
          "code": "laboratory",
          "display": "Laboratory"
        } ]
      } ],
      "code": {
        "coding": [ {
          "system": "http://loinc.org",
          "version": "2.72",
          "code": "1547-9",
          "display": "Glucose [Mass/volume] in Serum or Plasma --baseline"
        } ]
      },
      "subject": {
        "reference": "Patient/98533ccd-24ee-41b3-aab2-ef6cbf89e00d"
      },
      "effectiveDateTime": "2026-11-12T14:20:00.000Z",
      "valueQuantity": {
        "value": 610,
        "unit": "mg/dL"
      }
    },
    "request": {
      "method": "PUT",
      "url": "Observation/89b5386c-ec03-4fe1-88be-34dd2ecd81bb"
    }
  }, {
    "fullUrl": "https://madie.cms.gov/Observation/193ceb0e-340c-46aa-af88-85a02496c194",
    "resource": {
      "resourceType": "Observation",
      "id": "193ceb0e-340c-46aa-af88-85a02496c194",
      "meta": {
        "profile": [ "http://hl7.org/fhir/us/qicore/StructureDefinition/qicore-observation-lab" ]
      },
      "status": "final",
      "category": [ {
        "coding": [ {
          "system": "http://terminology.hl7.org/CodeSystem/observation-category",
          "code": "laboratory",
          "display": "Laboratory"
        } ]
      } ],
      "code": {
        "coding": [ {
          "system": "http://loinc.org",
          "version": "2.72",
          "code": "1547-9",
          "display": "Glucose [Mass/volume] in Serum or Plasma --baseline"
        } ]
      },
      "subject": {
        "reference": "Patient/98533ccd-24ee-41b3-aab2-ef6cbf89e00d"
      },
      "effectiveDateTime": "2026-11-12T14:30:00.000Z",
      "valueQuantity": {
        "value": 800,
        "unit": "mg/dL"
      }
    },
    "request": {
      "method": "PUT",
      "url": "Observation/193ceb0e-340c-46aa-af88-85a02496c194"
    }
  }, {
    "fullUrl": "https://madie.cms.gov/MeasureReport/82c8805c-b129-4009-8533-1ed12cf5d18f",
    "resource": {
      "resourceType": "MeasureReport",
      "id": "82c8805c-b129-4009-8533-1ed12cf5d18f",
      "meta": {
        "profile": [ "http://hl7.org/fhir/us/cqfmeasures/StructureDefinition/test-case-cqfm" ]
      },
      "contained": [ {
        "resourceType": "Parameters",
        "id": "18f04c09-b012-4238-8369-94de251409bb-parameters",
        "parameter": [ {
          "name": "subject",
          "valueString": "98533ccd-24ee-41b3-aab2-ef6cbf89e00d"
        } ]
      } ],
      "extension": [ {
        "url": "http://hl7.org/fhir/StructureDefinition/cqf-inputParameters",
        "valueReference": {
          "reference": "#18f04c09-b012-4238-8369-94de251409bb-parameters"
        }
      }, {
        "url": "http://hl7.org/fhir/us/cqfmeasures/StructureDefinition/cqfm-testCaseDescription",
        "valueMarkdown": "Enc with diabetes dx, encounter starts in Obs 3pm. Meets exclusion - initial test > 600 within 1 hour prior to start of encounter (Obs visit start of 3pm) to 6 hours after start of the enc. "
      } ],
      "modifierExtension": [ {
        "url": "http://hl7.org/fhir/us/cqfmeasures/StructureDefinition/cqfm-isTestCase",
        "valueBoolean": true
      } ],
      "status": "complete",
      "type": "individual",
      "measure": "https://madie.cms.gov/Measure/CMS871FHIRHHHyper",
      "period": {
        "start": "2026-01-01",
        "end": "2026-12-31"
      },
      "group": [ {
        "id": "Group_1",
        "population": [ {
          "id": "InitialPopulation_1",
          "code": {
            "coding": [ {
              "system": "http://terminology.hl7.org/CodeSystem/measure-population",
              "code": "initial-population",
              "display": "Initial Population"
            } ]
          },
          "count": 1
        }, {
          "id": "Denominator_1",
          "code": {
            "coding": [ {
              "system": "http://terminology.hl7.org/CodeSystem/measure-population",
              "code": "denominator",
              "display": "Denominator"
            } ]
          },
          "count": 1
        }, {
          "id": "DenominatorExclusion_1",
          "code": {
            "coding": [ {
              "system": "http://terminology.hl7.org/CodeSystem/measure-population",
              "code": "denominator-exclusion",
              "display": "Denominator Exclusion"
            } ]
          },
          "count": 1
        }, {
          "id": "Numerator_1",
          "code": {
            "coding": [ {
              "system": "http://terminology.hl7.org/CodeSystem/measure-population",
              "code": "numerator",
              "display": "Numerator"
            } ]
          },
          "count": 0
        }, {
          "id": "NumeratorExclusion_1",
          "code": {
            "coding": [ {
              "system": "http://terminology.hl7.org/CodeSystem/measure-population",
              "code": "numerator-exclusion",
              "display": "Numerator Exclusion"
            } ]
          },
          "count": 0
        } ],
        "measureScore": {
          "value": 0.0
        }
      } ],
      "evaluatedResource": [ {
        "reference": "Condition/ffde9d6a-4c42-4ad4-87b7-d91cd49b0012"
      }, {
        "reference": "Encounter/e165b535-bb27-4617-b136-1389cf559dd5"
      }, {
        "reference": "Encounter/7f3f446b-3ff6-432a-8318-88a4f137d80a"
      }, {
        "reference": "Patient/98533ccd-24ee-41b3-aab2-ef6cbf89e00d"
      }, {
        "reference": "Observation/89b5386c-ec03-4fe1-88be-34dd2ecd81bb"
      }, {
        "reference": "Observation/193ceb0e-340c-46aa-af88-85a02496c194"
      } ]
    },
    "request": {
      "method": "PUT",
      "url": "MeasureReport/82c8805c-b129-4009-8533-1ed12cf5d18f"
    }
  } ]
}