{
  "resourceType": "Bundle",
  "id": "NUMPass-70-on-Jan1-1",
  "type": "transaction",
  "entry": [ {
    "fullUrl": "https://madie.cms.gov/Patient/bc9c82ca-72b5-41c4-a9a3-7e3860a9ac2d",
    "resource": {
      "resourceType": "Patient",
      "id": "bc9c82ca-72b5-41c4-a9a3-7e3860a9ac2d",
      "meta": {
        "profile": [ "http://hl7.org/fhir/us/qicore/StructureDefinition/qicore-patient" ]
      },
      "extension": [ {
        "url": "http://hl7.org/fhir/us/core/StructureDefinition/us-core-race",
        "extension": [ {
          "url": "ombCategory",
          "valueCoding": {
            "system": "urn:oid:2.16.840.1.113883.6.238",
            "code": "2028-9",
            "display": "Asian"
          }
        }, {
          "url": "text",
          "valueString": "Asian"
        } ]
      }, {
        "url": "http://hl7.org/fhir/us/core/StructureDefinition/us-core-ethnicity",
        "extension": [ {
          "url": "ombCategory",
          "valueCoding": {
            "system": "urn:oid:2.16.840.1.113883.6.238",
            "code": "2186-5",
            "display": "Not Hispanic or Latino"
          }
        }, {
          "url": "text",
          "valueString": "Not Hispanic or Latino"
        } ]
      } ],
      "identifier": [ {
        "system": "http://hospital.smarthealthit.org",
        "value": "999999995"
      } ],
      "name": [ {
        "family": "NUMPass",
        "given": [ "NUMPass-70-on-Jan1-1" ]
      } ],
      "gender": "male",
      "birthDate": "1956-01-01"
    },
    "request": {
      "method": "PUT",
      "url": "Patient/bc9c82ca-72b5-41c4-a9a3-7e3860a9ac2d"
    }
  }, {
    "fullUrl": "https://madie.cms.gov/Encounter/9143a877-e42a-4178-9b85-55d94c5487e0",
    "resource": {
      "resourceType": "Encounter",
      "id": "9143a877-e42a-4178-9b85-55d94c5487e0",
      "meta": {
        "profile": [ "http://hl7.org/fhir/us/qicore/StructureDefinition/qicore-encounter" ]
      },
      "status": "finished",
      "class": {
        "system": "http://terminology.hl7.org/CodeSystem/v3-ActCode",
        "code": "AMB",
        "display": "ambulatory"
      },
      "type": [ {
        "coding": [ {
          "system": "http://snomed.info/sct",
          "code": "11429006"
        } ]
      } ],
      "subject": {
        "reference": "Patient/bc9c82ca-72b5-41c4-a9a3-7e3860a9ac2d"
      },
      "period": {
        "start": "2026-01-04T08:00:00.000+00:00",
        "end": "2026-01-04T08:00:00.000+00:00"
      }
    },
    "request": {
      "method": "PUT",
      "url": "Encounter/9143a877-e42a-4178-9b85-55d94c5487e0"
    }
  }, {
    "fullUrl": "https://madie.cms.gov/Encounter/adda8dfb-b42d-4e3e-8697-3f1b9eeb3c0a",
    "resource": {
      "resourceType": "Encounter",
      "id": "adda8dfb-b42d-4e3e-8697-3f1b9eeb3c0a",
      "meta": {
        "profile": [ "http://hl7.org/fhir/us/qicore/StructureDefinition/qicore-encounter" ]
      },
      "status": "finished",
      "class": {
        "system": "http://terminology.hl7.org/CodeSystem/v3-ActCode",
        "code": "AMB",
        "display": "ambulatory"
      },
      "type": [ {
        "coding": [ {
          "system": "http://www.ama-assn.org/go/cpt",
          "code": "99203",
          "display": "Office or other outpatient visit for the evaluation and management of a new patient, which requires a medically appropriate history and/or examination and low level of medical decision making. When using time for code selection, 30-44 minutes of total time is spent on the date of the encounter."
        } ]
      } ],
      "subject": {
        "reference": "Patient/bc9c82ca-72b5-41c4-a9a3-7e3860a9ac2d"
      },
      "period": {
        "start": "2026-01-04T08:00:00.000+00:00",
        "end": "2026-01-04T08:00:00.000+00:00"
      }
    },
    "request": {
      "method": "PUT",
      "url": "Encounter/adda8dfb-b42d-4e3e-8697-3f1b9eeb3c0a"
    }
  }, {
    "fullUrl": "https://madie.cms.gov/Observation/498eb673-540c-467a-a0d6-77e3c55515d2",
    "resource": {
      "resourceType": "Observation",
      "id": "498eb673-540c-467a-a0d6-77e3c55515d2",
      "meta": {
        "profile": [ "http://hl7.org/fhir/us/core/StructureDefinition/us-core-bmi" ]
      },
      "status": "final",
      "category": [ {
        "coding": [ {
          "system": "http://terminology.hl7.org/CodeSystem/observation-category",
          "code": "vital-signs",
          "display": "Vital Signs"
        } ]
      } ],
      "code": {
        "coding": [ {
          "system": "http://loinc.org",
          "code": "39156-5",
          "display": "Body mass index (BMI) [Ratio]"
        } ]
      },
      "subject": {
        "reference": "Patient/bc9c82ca-72b5-41c4-a9a3-7e3860a9ac2d"
      },
      "effectiveDateTime": "2026-01-04T08:00:00.000+00:00",
      "issued": "2026-01-04T08:00:00.000+00:00",
      "valueQuantity": {
        "value": 23,
        "unit": "kg/m2",
        "system": "http://unitsofmeasure.org",
        "code": "kg/m2"
      }
    },
    "request": {
      "method": "PUT",
      "url": "Observation/498eb673-540c-467a-a0d6-77e3c55515d2"
    }
  }, {
    "fullUrl": "https://madie.cms.gov/Condition/d463a372-3385-4750-a011-05b99f82338c",
    "resource": {
      "resourceType": "Condition",
      "id": "d463a372-3385-4750-a011-05b99f82338c",
      "meta": {
        "profile": [ "http://hl7.org/fhir/us/qicore/StructureDefinition/qicore-condition-problems-health-concerns" ]
      },
      "clinicalStatus": {
        "coding": [ {
          "system": "http://terminology.hl7.org/CodeSystem/condition-clinical",
          "code": "active",
          "display": "active",
          "userSelected": true
        } ]
      },
      "category": [ {
        "coding": [ {
          "system": "http://terminology.hl7.org/CodeSystem/condition-category",
          "code": "problem-list-item",
          "display": "Problem List Item"
        } ]
      } ],
      "code": {
        "coding": [ {
          "system": "http://snomed.info/sct",
          "code": "714628002"
        } ]
      },
      "subject": {
        "reference": "Patient/bc9c82ca-72b5-41c4-a9a3-7e3860a9ac2d"
      },
      "onsetDateTime": "2020-01-01T00:00:00.000+00:00"
    },
    "request": {
      "method": "PUT",
      "url": "Condition/d463a372-3385-4750-a011-05b99f82338c"
    }
  }, {
    "fullUrl": "https://madie.cms.gov/Condition/d463a372-3385-4750-a011-05b99f82338c",
    "resource": {
      "resourceType": "Condition",
      "id": "d463a372-3385-4750-a011-05b99f82338c",
      "meta": {
        "profile": [ "http://hl7.org/fhir/us/qicore/StructureDefinition/qicore-condition-problems-health-concerns" ]
      },
      "clinicalStatus": {
        "coding": [ {
          "system": "http://terminology.hl7.org/CodeSystem/condition-clinical",
          "code": "inactive",
          "display": "inactive",
          "userSelected": true
        } ]
      },
      "category": [ {
        "coding": [ {
          "system": "http://terminology.hl7.org/CodeSystem/condition-category",
          "code": "problem-list-item",
          "display": "Problem List Item"
        } ]
      } ],
      "code": {
        "coding": [ {
          "system": "http://snomed.info/sct",
          "code": "714628002"
        } ]
      },
      "subject": {
        "reference": "Patient/bc9c82ca-72b5-41c4-a9a3-7e3860a9ac2d"
      },
      "onsetDateTime": "2025-12-31T00:00:00.000+00:00"
    },
    "request": {
      "method": "PUT",
      "url": "Condition/d463a372-3385-4750-a011-05b99f82338c"
    }
  }, {
    "fullUrl": "https://madie.cms.gov/MeasureReport/466dec57-6ceb-4f37-8daa-40f26f14a191",
    "resource": {
      "resourceType": "MeasureReport",
      "id": "466dec57-6ceb-4f37-8daa-40f26f14a191",
      "meta": {
        "profile": [ "http://hl7.org/fhir/us/cqfmeasures/StructureDefinition/test-case-cqfm" ]
      },
      "contained": [ {
        "resourceType": "Parameters",
        "id": "60ee4bd3-d716-4be9-9df4-672f723d2660-parameters",
        "parameter": [ {
          "name": "subject",
          "valueString": "bc9c82ca-72b5-41c4-a9a3-7e3860a9ac2d"
        } ]
      } ],
      "extension": [ {
        "url": "http://hl7.org/fhir/StructureDefinition/cqf-inputParameters",
        "valueReference": {
          "reference": "#60ee4bd3-d716-4be9-9df4-672f723d2660-parameters"
        }
      }, {
        "url": "http://hl7.org/fhir/us/cqfmeasures/StructureDefinition/cqfm-testCaseDescription",
        "valueMarkdown": "DENEX-prediabetes-diagnosis-dayoftest-longago-unDXdinLB"
      } ],
      "modifierExtension": [ {
        "url": "http://hl7.org/fhir/us/cqfmeasures/StructureDefinition/cqfm-isTestCase",
        "valueBoolean": true
      } ],
      "status": "complete",
      "type": "individual",
      "measure": "https://madie.cms.gov/Measure/CMS1154ScreeningPrediabetesFHIR",
      "period": {
        "start": "2026-01-01",
        "end": "2026-12-31"
      },
      "group": [ {
        "id": "Group_1",
        "population": [ {
          "id": "InitialPopulation_1",
          "code": {
            "coding": [ {
              "system": "http://terminology.hl7.org/CodeSystem/measure-population",
              "code": "initial-population",
              "display": "Initial Population"
            } ]
          },
          "count": 1
        }, {
          "id": "Denominator_1",
          "code": {
            "coding": [ {
              "system": "http://terminology.hl7.org/CodeSystem/measure-population",
              "code": "denominator",
              "display": "Denominator"
            } ]
          },
          "count": 1
        }, {
          "id": "DenominatorExclusion_1",
          "code": {
            "coding": [ {
              "system": "http://terminology.hl7.org/CodeSystem/measure-population",
              "code": "denominator-exclusion",
              "display": "Denominator Exclusion"
            } ]
          },
          "count": 1
        }, {
          "id": "Numerator_1",
          "code": {
            "coding": [ {
              "system": "http://terminology.hl7.org/CodeSystem/measure-population",
              "code": "numerator",
              "display": "Numerator"
            } ]
          },
          "count": 0
        } ],
        "measureScore": {
          "value": 1.0
        }
      } ],
      "evaluatedResource": [ {
        "reference": "Patient/bc9c82ca-72b5-41c4-a9a3-7e3860a9ac2d"
      }, {
        "reference": "Encounter/9143a877-e42a-4178-9b85-55d94c5487e0"
      }, {
        "reference": "Encounter/adda8dfb-b42d-4e3e-8697-3f1b9eeb3c0a"
      }, {
        "reference": "Observation/498eb673-540c-467a-a0d6-77e3c55515d2"
      }, {
        "reference": "Condition/d463a372-3385-4750-a011-05b99f82338c"
      }, {
        "reference": "Condition/d463a372-3385-4750-a011-05b99f82338c"
      } ]
    },
    "request": {
      "method": "PUT",
      "url": "MeasureReport/466dec57-6ceb-4f37-8daa-40f26f14a191"
    }
  } ]
}