{
  "resourceType": "Bundle",
  "id": "612e6a9302c62a011f2ea6da",
  "type": "transaction",
  "entry": [ {
    "fullUrl": "https://madie.cms.gov/Patient/e8931859-4ad8-49c8-9cdd-8697293456a2",
    "resource": {
      "resourceType": "Patient",
      "id": "e8931859-4ad8-49c8-9cdd-8697293456a2",
      "meta": {
        "profile": [ "http://hl7.org/fhir/us/qicore/StructureDefinition/qicore-patient" ]
      },
      "text": {
        "status": "generated",
        "div": "<div xmlns=\"http://www.w3.org/1999/xhtml\"><div class=\"hapiHeaderText\">MedReasonMOInjXaDAVFPDayAFAnes <b>NUMERPASS </b></div><table class=\"hapiPropertyTable\"><tbody><tr><td>Identifier</td><td>2e65528d235225a29036bb2a5e6ef1d4</td></tr><tr><td>Date of birth</td><td><span>02 January 1974</span></td></tr></tbody></table></div>"
      },
      "extension": [ {
        "url": "http://hl7.org/fhir/us/core/StructureDefinition/us-core-race",
        "extension": [ {
          "url": "ombCategory",
          "valueCoding": {
            "system": "urn:oid:2.16.840.1.113883.6.238",
            "code": "1002-5",
            "display": "American Indian or Alaska Native",
            "userSelected": true
          }
        }, {
          "url": "text",
          "valueString": "American Indian or Alaska Native"
        } ]
      }, {
        "url": "http://hl7.org/fhir/us/core/StructureDefinition/us-core-ethnicity",
        "extension": [ {
          "url": "ombCategory",
          "valueCoding": {
            "system": "urn:oid:2.16.840.1.113883.6.238",
            "code": "2135-2",
            "display": "Hispanic or Latino",
            "userSelected": true
          }
        }, {
          "url": "text",
          "valueString": "Hispanic or Latino"
        } ]
      } ],
      "identifier": [ {
        "type": {
          "coding": [ {
            "system": "http://terminology.hl7.org/CodeSystem/v2-0203",
            "code": "MR"
          } ]
        },
        "system": "https://bonnie-fhir.healthit.gov/",
        "value": "612e6a9302c62a011f2ea6da"
      } ],
      "active": true,
      "name": [ {
        "use": "usual",
        "family": "NUMERPass",
        "given": [ "MedReasonMOInjXaDAVFPDayAFAnes" ]
      } ],
      "gender": "male",
      "birthDate": "1975-01-02"
    },
    "request": {
      "method": "PUT",
      "url": "Patient/e8931859-4ad8-49c8-9cdd-8697293456a2"
    }
  }, {
    "fullUrl": "https://madie.cms.gov/Encounter/292dfd4b-8dc9-4e06-8855-a1f64dfb68bc",
    "resource": {
      "resourceType": "Encounter",
      "id": "292dfd4b-8dc9-4e06-8855-a1f64dfb68bc",
      "meta": {
        "profile": [ "http://hl7.org/fhir/us/qicore/StructureDefinition/qicore-encounter" ]
      },
      "status": "finished",
      "class": {
        "system": "http://terminology.hl7.org/CodeSystem/v3-ActCode",
        "code": "IMP",
        "display": "inpatient encounter"
      },
      "type": [ {
        "coding": [ {
          "system": "http://snomed.info/sct",
          "code": "8715000"
        } ]
      } ],
      "subject": {
        "reference": "Patient/e8931859-4ad8-49c8-9cdd-8697293456a2"
      },
      "period": {
        "start": "2026-11-01T08:00:00.000+00:00",
        "end": "2026-11-26T08:15:00.000+00:00"
      },
      "length": {
        "value": 25,
        "unit": "days"
      },
      "location": [ {
        "location": {
          "reference": "Location/e804b836-3321-4c23-9875-22fb1ea91c13"
        },
        "period": {
          "start": "2026-11-01T09:00:00.000+00:00",
          "end": "2026-11-02T08:15:00.000+00:00"
        }
      } ]
    },
    "request": {
      "method": "PUT",
      "url": "Encounter/292dfd4b-8dc9-4e06-8855-a1f64dfb68bc"
    }
  }, {
    "fullUrl": "https://madie.cms.gov/Coverage/0d0a9769-8d20-4a5e-8078-fa23e766c074",
    "resource": {
      "resourceType": "Coverage",
      "id": "0d0a9769-8d20-4a5e-8078-fa23e766c074",
      "status": "active",
      "beneficiary": {
        "reference": "Patient/e8931859-4ad8-49c8-9cdd-8697293456a2"
      },
      "period": {
        "start": "1975-01-02T08:00:00.000+00:00"
      },
      "payor": [ {
        "reference": "Organization/da9ba836-17d7-4969-b82f-54dc4ec72995"
      } ]
    },
    "request": {
      "method": "PUT",
      "url": "Coverage/0d0a9769-8d20-4a5e-8078-fa23e766c074"
    }
  }, {
    "fullUrl": "https://madie.cms.gov/Procedure/0e9fa409-5251-4599-b10b-4bbdec30322b",
    "resource": {
      "resourceType": "Procedure",
      "id": "0e9fa409-5251-4599-b10b-4bbdec30322b",
      "meta": {
        "profile": [ "http://hl7.org/fhir/us/qicore/StructureDefinition/qicore-procedurenotdone" ]
      },
      "extension": [ {
        "url": "http://hl7.org/fhir/us/qicore/StructureDefinition/qicore-recorded",
        "valueDateTime": "2026-11-03T11:35:00.000+00:00"
      } ],
      "status": "not-done",
      "statusReason": {
        "coding": [ {
          "system": "http://snomed.info/sct",
          "code": "183932001",
          "display": "Procedure contraindicated (situation)",
          "userSelected": true
        } ]
      },
      "code": {
        "coding": [ {
          "system": "http://snomed.info/sct",
          "code": "424831005",
          "display": "Application of foot pump (procedure)",
          "userSelected": true
        } ]
      },
      "subject": {
        "reference": "Patient/e8931859-4ad8-49c8-9cdd-8697293456a2"
      },
      "_performedDateTime": {
        "extension": [ {
          "url": "http://hl7.org/fhir/StructureDefinition/data-absent-reason",
          "valueCode": "not-performed"
        } ]
      }
    },
    "request": {
      "method": "PUT",
      "url": "Procedure/0e9fa409-5251-4599-b10b-4bbdec30322b"
    }
  }, {
    "fullUrl": "https://madie.cms.gov/MedicationRequest/ea25bb3a-821e-4a5f-8d2a-9e24fd7fd58e",
    "resource": {
      "resourceType": "MedicationRequest",
      "id": "ea25bb3a-821e-4a5f-8d2a-9e24fd7fd58e",
      "meta": {
        "profile": [ "http://hl7.org/fhir/us/qicore/StructureDefinition/qicore-medicationnotrequested" ]
      },
      "status": "completed",
      "intent": "order",
      "category": [ {
        "coding": [ {
          "system": "http://terminology.hl7.org/CodeSystem/medicationrequest-category",
          "code": "community"
        } ]
      } ],
      "doNotPerform": true,
      "medicationCodeableConcept": {
        "coding": [ {
          "system": "http://www.nlm.nih.gov/research/umls/rxnorm",
          "code": "861363"
        } ]
      },
      "subject": {
        "reference": "Patient/e8931859-4ad8-49c8-9cdd-8697293456a2"
      },
      "authoredOn": "2026-11-03T09:00:00.000+00:00",
      "requester": {
        "reference": "Practitioner/123456"
      },
      "reasonCode": [ {
        "coding": [ {
          "system": "http://snomed.info/sct",
          "code": "183932001",
          "display": "Procedure contraindicated (situation)",
          "userSelected": true
        } ]
      } ],
      "dosageInstruction": [ {
        "timing": {
          "repeat": {
            "boundsPeriod": {
              "start": "2026-11-03T09:00:00.000+00:00"
            }
          }
        }
      } ]
    },
    "request": {
      "method": "PUT",
      "url": "MedicationRequest/ea25bb3a-821e-4a5f-8d2a-9e24fd7fd58e"
    }
  }, {
    "fullUrl": "https://madie.cms.gov/Procedure/db2c4184-c817-4213-bdce-cacfbd952896",
    "resource": {
      "resourceType": "Procedure",
      "id": "db2c4184-c817-4213-bdce-cacfbd952896",
      "meta": {
        "profile": [ "http://hl7.org/fhir/us/qicore/StructureDefinition/qicore-procedure" ]
      },
      "extension": [ {
        "url": "http://hl7.org/fhir/us/qicore/StructureDefinition/qicore-recorded",
        "valueDateTime": "2013-11-04T13:35:00.000+00:00"
      } ],
      "status": "completed",
      "code": {
        "coding": [ {
          "system": "http://snomed.info/sct",
          "code": "18946005"
        } ]
      },
      "subject": {
        "reference": "Patient/e8931859-4ad8-49c8-9cdd-8697293456a2"
      },
      "performedPeriod": {
        "start": "2026-11-02T09:00:00.000+00:00",
        "end": "2026-11-02T09:15:00.000+00:00"
      }
    },
    "request": {
      "method": "PUT",
      "url": "Procedure/db2c4184-c817-4213-bdce-cacfbd952896"
    }
  }, {
    "fullUrl": "https://madie.cms.gov/Location/e804b836-3321-4c23-9875-22fb1ea91c13",
    "resource": {
      "resourceType": "Location",
      "id": "e804b836-3321-4c23-9875-22fb1ea91c13",
      "meta": {
        "profile": [ "http://hl7.org/fhir/us/qicore/StructureDefinition/qicore-location" ]
      },
      "identifier": [ {
        "use": "usual",
        "system": "http://exampleoflocation.com",
        "value": "B1-S.F2"
      } ],
      "name": "Medical Surgical East, first floor",
      "type": [ {
        "coding": [ {
          "system": "https://www.cdc.gov/nhsn/cdaportal/terminology/codesystem/hsloc.html",
          "code": "1025-6",
          "display": "Trauma Critical Care",
          "userSelected": true
        } ]
      } ]
    },
    "request": {
      "method": "PUT",
      "url": "Location/e804b836-3321-4c23-9875-22fb1ea91c13"
    }
  }, {
    "fullUrl": "https://madie.cms.gov/Organization/da9ba836-17d7-4969-b82f-54dc4ec72995",
    "resource": {
      "resourceType": "Organization",
      "id": "da9ba836-17d7-4969-b82f-54dc4ec72995",
      "meta": {
        "profile": [ "http://hl7.org/fhir/us/qicore/StructureDefinition/qicore-organization" ]
      },
      "identifier": [ {
        "use": "temp",
        "system": "urn:oid:2.16.840.1.113883.4.4",
        "value": "21-3259825"
      } ],
      "active": true,
      "type": [ {
        "coding": [ {
          "system": "http://terminology.hl7.org/CodeSystem/organization-type",
          "code": "pay",
          "display": "Payer"
        } ]
      } ],
      "name": "Blue Cross Blue Shield of Texas",
      "telecom": [ {
        "system": "phone",
        "value": "(+1) 972-766-6900"
      } ],
      "address": [ {
        "use": "billing",
        "type": "postal",
        "line": [ "P.O. Box 660044" ],
        "city": "Dallas",
        "state": "TX",
        "postalCode": "75266-0044",
        "country": "USA"
      } ]
    },
    "request": {
      "method": "PUT",
      "url": "Organization/da9ba836-17d7-4969-b82f-54dc4ec72995"
    }
  }, {
    "fullUrl": "https://madie.cms.gov/Practitioner/d1d947ac-8773-40a4-a91c-52fb5c5f50d5",
    "resource": {
      "resourceType": "Practitioner",
      "id": "d1d947ac-8773-40a4-a91c-52fb5c5f50d5",
      "identifier": [ {
        "system": "http://hl7.org/fhir/sid/us-npi",
        "value": "123456"
      } ],
      "name": [ {
        "family": "Evil",
        "prefix": [ "Dr" ]
      } ]
    },
    "request": {
      "method": "PUT",
      "url": "Practitioner/d1d947ac-8773-40a4-a91c-52fb5c5f50d5"
    }
  }, {
    "fullUrl": "https://madie.cms.gov/MeasureReport/cfc06289-ff74-4caa-ba81-3647f98e3646",
    "resource": {
      "resourceType": "MeasureReport",
      "id": "cfc06289-ff74-4caa-ba81-3647f98e3646",
      "meta": {
        "profile": [ "http://hl7.org/fhir/us/cqfmeasures/StructureDefinition/test-case-cqfm" ]
      },
      "contained": [ {
        "resourceType": "Parameters",
        "id": "95d8bcc4-8158-4243-b7eb-0ea4d84c905d-parameters",
        "parameter": [ {
          "name": "subject",
          "valueString": "e8931859-4ad8-49c8-9cdd-8697293456a2"
        } ]
      } ],
      "extension": [ {
        "url": "http://hl7.org/fhir/StructureDefinition/cqf-inputParameters",
        "valueReference": {
          "reference": "#95d8bcc4-8158-4243-b7eb-0ea4d84c905d-parameters"
        }
      }, {
        "url": "http://hl7.org/fhir/us/cqfmeasures/StructureDefinition/cqfm-testCaseDescription",
        "valueMarkdown": "Injection Factor Xa and VFP  not done dt medical reason on day after neuraxial anesthesia end\n"
      } ],
      "modifierExtension": [ {
        "url": "http://hl7.org/fhir/us/cqfmeasures/StructureDefinition/cqfm-isTestCase",
        "valueBoolean": true
      } ],
      "status": "complete",
      "type": "individual",
      "measure": "https://madie.cms.gov/Measure/CMS190FHIRVTEProphylaxisICU",
      "period": {
        "start": "2026-01-01",
        "end": "2026-12-31"
      },
      "group": [ {
        "id": "Group_1",
        "population": [ {
          "id": "InitialPopulation_1",
          "code": {
            "coding": [ {
              "system": "http://terminology.hl7.org/CodeSystem/measure-population",
              "code": "initial-population",
              "display": "Initial Population"
            } ]
          },
          "count": 1
        }, {
          "id": "Denominator_1",
          "code": {
            "coding": [ {
              "system": "http://terminology.hl7.org/CodeSystem/measure-population",
              "code": "denominator",
              "display": "Denominator"
            } ]
          },
          "count": 1
        }, {
          "id": "DenominatorExclusion_1",
          "code": {
            "coding": [ {
              "system": "http://terminology.hl7.org/CodeSystem/measure-population",
              "code": "denominator-exclusion",
              "display": "Denominator Exclusion"
            } ]
          },
          "count": 0
        }, {
          "id": "Numerator_1",
          "code": {
            "coding": [ {
              "system": "http://terminology.hl7.org/CodeSystem/measure-population",
              "code": "numerator",
              "display": "Numerator"
            } ]
          },
          "count": 1
        }, {
          "id": "DenominatorException_1",
          "code": {
            "coding": [ {
              "system": "http://terminology.hl7.org/CodeSystem/measure-population",
              "code": "denominator-exception",
              "display": "Denominator Exception"
            } ]
          },
          "count": 0
        } ],
        "measureScore": {
          "value": 0.0
        }
      } ],
      "evaluatedResource": [ {
        "reference": "Patient/e8931859-4ad8-49c8-9cdd-8697293456a2"
      }, {
        "reference": "Encounter/292dfd4b-8dc9-4e06-8855-a1f64dfb68bc"
      }, {
        "reference": "Coverage/0d0a9769-8d20-4a5e-8078-fa23e766c074"
      }, {
        "reference": "Procedure/0e9fa409-5251-4599-b10b-4bbdec30322b"
      }, {
        "reference": "MedicationRequest/ea25bb3a-821e-4a5f-8d2a-9e24fd7fd58e"
      }, {
        "reference": "Procedure/db2c4184-c817-4213-bdce-cacfbd952896"
      }, {
        "reference": "Location/e804b836-3321-4c23-9875-22fb1ea91c13"
      }, {
        "reference": "Organization/da9ba836-17d7-4969-b82f-54dc4ec72995"
      }, {
        "reference": "Practitioner/d1d947ac-8773-40a4-a91c-52fb5c5f50d5"
      } ]
    },
    "request": {
      "method": "PUT",
      "url": "MeasureReport/cfc06289-ff74-4caa-ba81-3647f98e3646"
    }
  } ]
}