{
  "resourceType": "Bundle",
  "id": "Patient-24-DENEXFail-HospiceEncB4MP",
  "type": "transaction",
  "entry": [ {
    "fullUrl": "https://madie.cms.gov/Patient/a7332447-3a23-42b1-bfc2-d93cc5b775af",
    "resource": {
      "resourceType": "Patient",
      "id": "a7332447-3a23-42b1-bfc2-d93cc5b775af",
      "meta": {
        "profile": [ "http://hl7.org/fhir/us/qicore/StructureDefinition/qicore-patient" ]
      },
      "extension": [ {
        "url": "http://hl7.org/fhir/us/core/StructureDefinition/us-core-race",
        "extension": [ {
          "url": "ombCategory",
          "valueCoding": {
            "system": "urn:oid:2.16.840.1.113883.6.238",
            "code": "2028-9",
            "display": "Asian"
          }
        }, {
          "url": "text",
          "valueString": "Asian"
        } ]
      }, {
        "url": "http://hl7.org/fhir/us/core/StructureDefinition/us-core-ethnicity",
        "extension": [ {
          "url": "ombCategory",
          "valueCoding": {
            "system": "urn:oid:2.16.840.1.113883.6.238",
            "code": "2135-2",
            "display": "Hispanic or Latino"
          }
        }, {
          "url": "text",
          "valueString": "Hispanic or Latino"
        } ]
      } ],
      "identifier": [ {
        "system": "http://hospital.smarthealthit.org",
        "value": "999999995"
      } ],
      "name": [ {
        "family": "Bertha",
        "given": [ "Betty" ]
      } ],
      "gender": "female",
      "birthDate": "2008-01-01"
    },
    "request": {
      "method": "PUT",
      "url": "Patient/a7332447-3a23-42b1-bfc2-d93cc5b775af"
    }
  }, {
    "fullUrl": "https://madie.cms.gov/Encounter/b8ef074f-1e27-4e7e-9576-2700906a04dd",
    "resource": {
      "resourceType": "Encounter",
      "id": "b8ef074f-1e27-4e7e-9576-2700906a04dd",
      "meta": {
        "profile": [ "http://hl7.org/fhir/us/qicore/StructureDefinition/qicore-encounter" ]
      },
      "status": "finished",
      "class": {
        "system": "http://terminology.hl7.org/CodeSystem/v3-ActCode",
        "code": "AMB",
        "display": "ambulatory"
      },
      "type": [ {
        "coding": [ {
          "system": "http://snomed.info/sct",
          "code": "185460008",
          "display": "Home visit request by patient (procedure)"
        } ]
      } ],
      "subject": {
        "reference": "Patient/a7332447-3a23-42b1-bfc2-d93cc5b775af"
      },
      "period": {
        "start": "2026-01-01T00:00:00.000+00:00",
        "end": "2026-01-01T00:15:00.000+00:00"
      }
    },
    "request": {
      "method": "PUT",
      "url": "Encounter/b8ef074f-1e27-4e7e-9576-2700906a04dd"
    }
  }, {
    "fullUrl": "https://madie.cms.gov/Condition/0046b282-7fe6-49a0-9bb3-35d03976b126",
    "resource": {
      "resourceType": "Condition",
      "id": "0046b282-7fe6-49a0-9bb3-35d03976b126",
      "meta": {
        "profile": [ "http://hl7.org/fhir/us/qicore/StructureDefinition/qicore-condition-encounter-diagnosis" ]
      },
      "clinicalStatus": {
        "coding": [ {
          "system": "http://terminology.hl7.org/CodeSystem/condition-clinical",
          "code": "active"
        } ]
      },
      "category": [ {
        "coding": [ {
          "system": "http://terminology.hl7.org/CodeSystem/condition-category",
          "code": "encounter-diagnosis",
          "display": "Encounter Diagnosis"
        } ]
      } ],
      "code": {
        "coding": [ {
          "system": "http://snomed.info/sct",
          "code": "102781000119107",
          "display": "Sensory neuropathy due to type 1 diabetes mellitus (disorder)"
        } ]
      },
      "subject": {
        "reference": "Patient/a7332447-3a23-42b1-bfc2-d93cc5b775af"
      },
      "onsetDateTime": "2026-01-01T23:59:00.000+00:00"
    },
    "request": {
      "method": "PUT",
      "url": "Condition/0046b282-7fe6-49a0-9bb3-35d03976b126"
    }
  }, {
    "fullUrl": "https://madie.cms.gov/Encounter/b8836500-9f1b-4c8b-9418-dd17c587e947",
    "resource": {
      "resourceType": "Encounter",
      "id": "b8836500-9f1b-4c8b-9418-dd17c587e947",
      "meta": {
        "profile": [ "http://hl7.org/fhir/us/qicore/StructureDefinition/qicore-encounter" ]
      },
      "status": "finished",
      "class": {
        "system": "http://terminology.hl7.org/CodeSystem/v3-ActCode",
        "code": "AMB",
        "display": "ambulatory"
      },
      "type": [ {
        "coding": [ {
          "system": "http://snomed.info/sct",
          "code": "305336008",
          "display": "Admission to hospice (procedure)"
        } ]
      } ],
      "subject": {
        "reference": "Patient/a7332447-3a23-42b1-bfc2-d93cc5b775af"
      },
      "period": {
        "start": "2025-12-31T23:59:00.000+00:00",
        "end": "2025-12-31T23:59:00.000+00:00"
      }
    },
    "request": {
      "method": "PUT",
      "url": "Encounter/b8836500-9f1b-4c8b-9418-dd17c587e947"
    }
  }, {
    "fullUrl": "https://madie.cms.gov/MeasureReport/ece514cf-7490-4d51-a263-2554c01833af",
    "resource": {
      "resourceType": "MeasureReport",
      "id": "ece514cf-7490-4d51-a263-2554c01833af",
      "meta": {
        "profile": [ "http://hl7.org/fhir/us/cqfmeasures/StructureDefinition/test-case-cqfm" ]
      },
      "contained": [ {
        "resourceType": "Parameters",
        "id": "68e5f0a2-1481-449b-be3c-ab084fa2c59c-parameters",
        "parameter": [ {
          "name": "subject",
          "valueString": "a7332447-3a23-42b1-bfc2-d93cc5b775af"
        } ]
      } ],
      "extension": [ {
        "url": "http://hl7.org/fhir/StructureDefinition/cqf-inputParameters",
        "valueReference": {
          "reference": "#68e5f0a2-1481-449b-be3c-ab084fa2c59c-parameters"
        }
      }, {
        "url": "http://hl7.org/fhir/us/cqfmeasures/StructureDefinition/cqfm-testCaseDescription",
        "valueMarkdown": "Hospice encounter before the MP"
      } ],
      "modifierExtension": [ {
        "url": "http://hl7.org/fhir/us/cqfmeasures/StructureDefinition/cqfm-isTestCase",
        "valueBoolean": true
      } ],
      "status": "complete",
      "type": "individual",
      "measure": "https://madie.cms.gov/Measure/CMS122FHIRDiabetesAssessGT9Pct",
      "period": {
        "start": "2026-01-01",
        "end": "2026-12-31"
      },
      "group": [ {
        "id": "Group_1",
        "population": [ {
          "id": "InitialPopulation_1",
          "code": {
            "coding": [ {
              "system": "http://terminology.hl7.org/CodeSystem/measure-population",
              "code": "initial-population",
              "display": "Initial Population"
            } ]
          },
          "count": 1
        }, {
          "id": "Denominator_1",
          "code": {
            "coding": [ {
              "system": "http://terminology.hl7.org/CodeSystem/measure-population",
              "code": "denominator",
              "display": "Denominator"
            } ]
          },
          "count": 1
        }, {
          "id": "DenominatorExclusion_1",
          "code": {
            "coding": [ {
              "system": "http://terminology.hl7.org/CodeSystem/measure-population",
              "code": "denominator-exclusion",
              "display": "Denominator Exclusion"
            } ]
          },
          "count": 0
        }, {
          "id": "Numerator_1",
          "code": {
            "coding": [ {
              "system": "http://terminology.hl7.org/CodeSystem/measure-population",
              "code": "numerator",
              "display": "Numerator"
            } ]
          },
          "count": 1
        } ],
        "measureScore": {
          "value": 1.0
        }
      } ],
      "evaluatedResource": [ {
        "reference": "Patient/a7332447-3a23-42b1-bfc2-d93cc5b775af"
      }, {
        "reference": "Encounter/b8ef074f-1e27-4e7e-9576-2700906a04dd"
      }, {
        "reference": "Condition/0046b282-7fe6-49a0-9bb3-35d03976b126"
      }, {
        "reference": "Encounter/b8836500-9f1b-4c8b-9418-dd17c587e947"
      } ]
    },
    "request": {
      "method": "PUT",
      "url": "MeasureReport/ece514cf-7490-4d51-a263-2554c01833af"
    }
  } ]
}