{
  "resourceType": "Bundle",
  "id": "612e6a6002c62a011f2e9dfd",
  "type": "transaction",
  "entry": [ {
    "fullUrl": "https://madie.cms.gov/Patient/0f3bb677-2879-45da-b93d-70efd50381e1",
    "resource": {
      "resourceType": "Patient",
      "id": "0f3bb677-2879-45da-b93d-70efd50381e1",
      "meta": {
        "profile": [ "http://hl7.org/fhir/us/qicore/StructureDefinition/qicore-patient" ]
      },
      "text": {
        "status": "generated",
        "div": "<div xmlns=\"http://www.w3.org/1999/xhtml\"><div class=\"hapiHeaderText\">PtRef_MA_InjXa_DayOfAnes <b>NUMERPASS </b></div><table class=\"hapiPropertyTable\"><tbody><tr><td>Identifier</td><td>bec2580a47ed4bf7691b191e0654b2de</td></tr><tr><td>Date of birth</td><td><span>02 January 1974</span></td></tr></tbody></table></div>"
      },
      "extension": [ {
        "url": "http://hl7.org/fhir/us/core/StructureDefinition/us-core-race",
        "extension": [ {
          "url": "ombCategory",
          "valueCoding": {
            "system": "urn:oid:2.16.840.1.113883.6.238",
            "code": "1002-5",
            "display": "American Indian or Alaska Native",
            "userSelected": true
          }
        }, {
          "url": "text",
          "valueString": "American Indian or Alaska Native"
        } ]
      }, {
        "url": "http://hl7.org/fhir/us/core/StructureDefinition/us-core-ethnicity",
        "extension": [ {
          "url": "ombCategory",
          "valueCoding": {
            "system": "urn:oid:2.16.840.1.113883.6.238",
            "code": "2135-2",
            "display": "Hispanic or Latino",
            "userSelected": true
          }
        }, {
          "url": "text",
          "valueString": "Hispanic or Latino"
        } ]
      } ],
      "identifier": [ {
        "type": {
          "coding": [ {
            "system": "http://terminology.hl7.org/CodeSystem/v2-0203",
            "code": "MR"
          } ]
        },
        "system": "https://bonnie-fhir.healthit.gov/",
        "value": "612e6a6002c62a011f2e9dfd"
      } ],
      "active": true,
      "name": [ {
        "use": "usual",
        "family": "NUMERPass",
        "given": [ "MAPtRefInjXaDayOfAnes" ]
      } ],
      "gender": "male",
      "birthDate": "1975-01-02"
    },
    "request": {
      "method": "PUT",
      "url": "Patient/0f3bb677-2879-45da-b93d-70efd50381e1"
    }
  }, {
    "fullUrl": "https://madie.cms.gov/Encounter/0796dd56-8546-4a67-a4d9-ebd1441ef796",
    "resource": {
      "resourceType": "Encounter",
      "id": "0796dd56-8546-4a67-a4d9-ebd1441ef796",
      "meta": {
        "profile": [ "http://hl7.org/fhir/us/qicore/StructureDefinition/qicore-encounter" ]
      },
      "status": "finished",
      "class": {
        "system": "http://terminology.hl7.org/CodeSystem/v3-ActCode",
        "code": "IMP",
        "display": "inpatient encounter"
      },
      "type": [ {
        "coding": [ {
          "system": "http://snomed.info/sct",
          "code": "8715000"
        } ]
      } ],
      "subject": {
        "reference": "Patient/0f3bb677-2879-45da-b93d-70efd50381e1"
      },
      "period": {
        "start": "2026-11-01T08:00:00.000+00:00",
        "end": "2026-11-26T08:15:00.000+00:00"
      },
      "length": {
        "value": 25,
        "unit": "days"
      }
    },
    "request": {
      "method": "PUT",
      "url": "Encounter/0796dd56-8546-4a67-a4d9-ebd1441ef796"
    }
  }, {
    "fullUrl": "https://madie.cms.gov/Coverage/7a3579ef-1647-4189-ae78-b17554b79f37",
    "resource": {
      "resourceType": "Coverage",
      "id": "7a3579ef-1647-4189-ae78-b17554b79f37",
      "status": "active",
      "beneficiary": {
        "reference": "Patient/0f3bb677-2879-45da-b93d-70efd50381e1"
      },
      "period": {
        "start": "1975-01-02T08:00:00.000+00:00"
      },
      "payor": [ {
        "reference": "Organization/9b59b77a-7be2-4482-80ba-f398355bf14e"
      } ]
    },
    "request": {
      "method": "PUT",
      "url": "Coverage/7a3579ef-1647-4189-ae78-b17554b79f37"
    }
  }, {
    "fullUrl": "https://madie.cms.gov/MedicationAdministration/deaecb96-a0c4-4998-a331-15ecadb9c240",
    "resource": {
      "resourceType": "MedicationAdministration",
      "id": "deaecb96-a0c4-4998-a331-15ecadb9c240",
      "meta": {
        "profile": [ "http://hl7.org/fhir/us/qicore/StructureDefinition/qicore-medicationadministrationnotdone" ]
      },
      "extension": [ {
        "url": "http://hl7.org/fhir/us/qicore/StructureDefinition/qicore-recorded",
        "valueDateTime": "2026-11-02T11:00:00.000+00:00"
      } ],
      "status": "not-done",
      "statusReason": [ {
        "coding": [ {
          "system": "http://snomed.info/sct",
          "code": "443390004",
          "display": "Refused (qualifier value)",
          "userSelected": true
        } ]
      } ],
      "medicationCodeableConcept": {
        "coding": [ {
          "system": "http://www.nlm.nih.gov/research/umls/rxnorm",
          "code": "861356"
        } ]
      },
      "subject": {
        "reference": "Patient/0f3bb677-2879-45da-b93d-70efd50381e1"
      },
      "effectivePeriod": {
        "start": "2026-11-02T11:00:00.000+00:00"
      }
    },
    "request": {
      "method": "PUT",
      "url": "MedicationAdministration/deaecb96-a0c4-4998-a331-15ecadb9c240"
    }
  }, {
    "fullUrl": "https://madie.cms.gov/Procedure/ed899ea9-074b-4fc6-a35b-4845881131cc",
    "resource": {
      "resourceType": "Procedure",
      "id": "ed899ea9-074b-4fc6-a35b-4845881131cc",
      "meta": {
        "profile": [ "http://hl7.org/fhir/us/qicore/StructureDefinition/qicore-procedure" ]
      },
      "extension": [ {
        "url": "http://hl7.org/fhir/us/qicore/StructureDefinition/qicore-recorded",
        "valueDateTime": "2013-11-19T13:35:00.000+00:00"
      } ],
      "status": "completed",
      "code": {
        "coding": [ {
          "system": "http://snomed.info/sct",
          "code": "18946005"
        } ]
      },
      "subject": {
        "reference": "Patient/0f3bb677-2879-45da-b93d-70efd50381e1"
      },
      "performedPeriod": {
        "start": "2026-11-02T09:00:00.000+00:00",
        "end": "2026-11-02T09:15:00.000+00:00"
      }
    },
    "request": {
      "method": "PUT",
      "url": "Procedure/ed899ea9-074b-4fc6-a35b-4845881131cc"
    }
  }, {
    "fullUrl": "https://madie.cms.gov/Organization/9b59b77a-7be2-4482-80ba-f398355bf14e",
    "resource": {
      "resourceType": "Organization",
      "id": "9b59b77a-7be2-4482-80ba-f398355bf14e",
      "meta": {
        "profile": [ "http://hl7.org/fhir/us/qicore/StructureDefinition/qicore-organization" ]
      },
      "identifier": [ {
        "use": "temp",
        "system": "urn:oid:2.16.840.1.113883.4.4",
        "value": "21-3259825"
      } ],
      "active": true,
      "type": [ {
        "coding": [ {
          "system": "http://terminology.hl7.org/CodeSystem/organization-type",
          "code": "pay",
          "display": "Payer"
        } ]
      } ],
      "name": "Blue Cross Blue Shield of Texas",
      "telecom": [ {
        "system": "phone",
        "value": "(+1) 972-766-6900"
      } ],
      "address": [ {
        "use": "billing",
        "type": "postal",
        "line": [ "P.O. Box 660044" ],
        "city": "Dallas",
        "state": "TX",
        "postalCode": "75266-0044",
        "country": "USA"
      } ]
    },
    "request": {
      "method": "PUT",
      "url": "Organization/9b59b77a-7be2-4482-80ba-f398355bf14e"
    }
  }, {
    "fullUrl": "https://madie.cms.gov/Practitioner/0f3fd528-73a5-4b40-8fca-e3324cff9c5a",
    "resource": {
      "resourceType": "Practitioner",
      "id": "0f3fd528-73a5-4b40-8fca-e3324cff9c5a",
      "identifier": [ {
        "system": "http://hl7.org/fhir/sid/us-npi",
        "value": "123456"
      } ],
      "name": [ {
        "family": "Evil",
        "prefix": [ "Dr" ]
      } ]
    },
    "request": {
      "method": "PUT",
      "url": "Practitioner/0f3fd528-73a5-4b40-8fca-e3324cff9c5a"
    }
  }, {
    "fullUrl": "https://madie.cms.gov/MeasureReport/359a2fd1-e163-41eb-bfbd-ade515647352",
    "resource": {
      "resourceType": "MeasureReport",
      "id": "359a2fd1-e163-41eb-bfbd-ade515647352",
      "meta": {
        "profile": [ "http://hl7.org/fhir/us/cqfmeasures/StructureDefinition/test-case-cqfm" ]
      },
      "contained": [ {
        "resourceType": "Parameters",
        "id": "5d295482-1d19-40be-96d2-ca259ebf7e6a-parameters",
        "parameter": [ {
          "name": "subject",
          "valueString": "0f3bb677-2879-45da-b93d-70efd50381e1"
        } ]
      } ],
      "extension": [ {
        "url": "http://hl7.org/fhir/StructureDefinition/cqf-inputParameters",
        "valueReference": {
          "reference": "#5d295482-1d19-40be-96d2-ca259ebf7e6a-parameters"
        }
      }, {
        "url": "http://hl7.org/fhir/us/cqfmeasures/StructureDefinition/cqfm-testCaseDescription",
        "valueMarkdown": "factor Xa refused <= 1 day after end of anesthesia\n"
      } ],
      "modifierExtension": [ {
        "url": "http://hl7.org/fhir/us/cqfmeasures/StructureDefinition/cqfm-isTestCase",
        "valueBoolean": true
      } ],
      "status": "complete",
      "type": "individual",
      "measure": "https://madie.cms.gov/Measure/CMS108FHIRVTEProphylaxis",
      "period": {
        "start": "2026-01-01",
        "end": "2026-12-31"
      },
      "group": [ {
        "id": "Group_1",
        "population": [ {
          "id": "InitialPopulation_1",
          "code": {
            "coding": [ {
              "system": "http://terminology.hl7.org/CodeSystem/measure-population",
              "code": "initial-population",
              "display": "Initial Population"
            } ]
          },
          "count": 1
        }, {
          "id": "Denominator_1",
          "code": {
            "coding": [ {
              "system": "http://terminology.hl7.org/CodeSystem/measure-population",
              "code": "denominator",
              "display": "Denominator"
            } ]
          },
          "count": 1
        }, {
          "id": "DenominatorExclusion_1",
          "code": {
            "coding": [ {
              "system": "http://terminology.hl7.org/CodeSystem/measure-population",
              "code": "denominator-exclusion",
              "display": "Denominator Exclusion"
            } ]
          },
          "count": 0
        }, {
          "id": "Numerator_1",
          "code": {
            "coding": [ {
              "system": "http://terminology.hl7.org/CodeSystem/measure-population",
              "code": "numerator",
              "display": "Numerator"
            } ]
          },
          "count": 1
        } ],
        "measureScore": {
          "value": 0.0
        }
      } ],
      "evaluatedResource": [ {
        "reference": "Patient/0f3bb677-2879-45da-b93d-70efd50381e1"
      }, {
        "reference": "Encounter/0796dd56-8546-4a67-a4d9-ebd1441ef796"
      }, {
        "reference": "Coverage/7a3579ef-1647-4189-ae78-b17554b79f37"
      }, {
        "reference": "MedicationAdministration/deaecb96-a0c4-4998-a331-15ecadb9c240"
      }, {
        "reference": "Procedure/ed899ea9-074b-4fc6-a35b-4845881131cc"
      }, {
        "reference": "Organization/9b59b77a-7be2-4482-80ba-f398355bf14e"
      }, {
        "reference": "Practitioner/0f3fd528-73a5-4b40-8fca-e3324cff9c5a"
      } ]
    },
    "request": {
      "method": "PUT",
      "url": "MeasureReport/359a2fd1-e163-41eb-bfbd-ade515647352"
    }
  } ]
}