{
  "resourceType": "Bundle",
  "id": "63487c2d0968f8012254015d",
  "type": "transaction",
  "entry": [ {
    "fullUrl": "https://madie.cms.gov/Patient/3cb741e0-5abb-4d16-a374-bc15fdf55021",
    "resource": {
      "resourceType": "Patient",
      "id": "3cb741e0-5abb-4d16-a374-bc15fdf55021",
      "meta": {
        "profile": [ "http://hl7.org/fhir/us/qicore/StructureDefinition/qicore-patient" ]
      },
      "text": {
        "status": "generated",
        "div": "<div xmlns=\"http://www.w3.org/1999/xhtml\"><div class=\"hapiHeaderText\">AssessTermMissing<b>DENOMFail</b></div><table class=\"hapiPropertyTable\"><tbody><tr><td>Identifier</td><td>2af8c4ebd3c3c11851c56f276a2bfe6708ad830bb3560e2b577c5a97ffc5d44d</td></tr><tr><td>Date of birth</td><td><span>14 February 1985</span></td></tr></tbody></table></div>"
      },
      "extension": [ {
        "url": "http://hl7.org/fhir/us/core/StructureDefinition/us-core-race",
        "extension": [ {
          "url": "ombCategory",
          "valueCoding": {
            "system": "urn:oid:2.16.840.1.113883.6.238",
            "code": "1002-5",
            "display": "American Indian or Alaska Native",
            "userSelected": true
          }
        }, {
          "url": "text",
          "valueString": "American Indian or Alaska Native"
        } ]
      }, {
        "url": "http://hl7.org/fhir/us/core/StructureDefinition/us-core-ethnicity",
        "extension": [ {
          "url": "ombCategory",
          "valueCoding": {
            "system": "urn:oid:2.16.840.1.113883.6.238",
            "code": "2135-2",
            "display": "Hispanic or Latino",
            "userSelected": true
          }
        }, {
          "url": "text",
          "valueString": "Hispanic or Latino"
        } ]
      } ],
      "identifier": [ {
        "type": {
          "coding": [ {
            "system": "http://terminology.hl7.org/CodeSystem/v2-0203",
            "code": "MR"
          } ]
        },
        "system": "https://bonnie-fhir.healthit.gov/",
        "value": "63487c2d0968f8012254015d"
      } ],
      "active": true,
      "name": [ {
        "use": "usual",
        "family": "DENOMFail",
        "given": [ "AssessTermMissing" ]
      } ],
      "gender": "female",
      "birthDate": "1998-02-14"
    },
    "request": {
      "method": "PUT",
      "url": "Patient/3cb741e0-5abb-4d16-a374-bc15fdf55021"
    }
  }, {
    "fullUrl": "https://madie.cms.gov/Observation/29277009-4ea5-4d51-91fa-7c6dcfd38824",
    "resource": {
      "resourceType": "Observation",
      "id": "29277009-4ea5-4d51-91fa-7c6dcfd38824",
      "meta": {
        "profile": [ "http://hl7.org/fhir/us/qicore/StructureDefinition/qicore-simple-observation" ]
      },
      "status": "final",
      "category": [ {
        "coding": [ {
          "system": "http://terminology.hl7.org/CodeSystem/observation-category",
          "code": "exam",
          "display": "exam",
          "userSelected": true
        } ]
      } ],
      "code": {
        "coding": [ {
          "system": "http://loinc.org",
          "code": "11637-6"
        } ]
      },
      "subject": {
        "reference": "Patient/3cb741e0-5abb-4d16-a374-bc15fdf55021"
      },
      "effectiveDateTime": "2025-09-19T09:00:00.000+00:00",
      "valueInteger": 0
    },
    "request": {
      "method": "PUT",
      "url": "Observation/29277009-4ea5-4d51-91fa-7c6dcfd38824"
    }
  }, {
    "fullUrl": "https://madie.cms.gov/Observation/cc573c1f-5590-4a42-b07a-436caf8c91f2",
    "resource": {
      "resourceType": "Observation",
      "id": "cc573c1f-5590-4a42-b07a-436caf8c91f2",
      "meta": {
        "profile": [ "http://hl7.org/fhir/us/qicore/StructureDefinition/qicore-simple-observation" ]
      },
      "status": "final",
      "category": [ {
        "coding": [ {
          "system": "http://terminology.hl7.org/CodeSystem/observation-category",
          "code": "exam",
          "display": "exam",
          "userSelected": true
        } ]
      } ],
      "code": {
        "coding": [ {
          "system": "http://loinc.org",
          "code": "11884-4"
        } ]
      },
      "subject": {
        "reference": "Patient/3cb741e0-5abb-4d16-a374-bc15fdf55021"
      },
      "effectiveDateTime": "2026-06-08T20:00:00.000+00:00",
      "valueQuantity": {
        "value": 37,
        "system": "http://unitsofmeasure.org",
        "code": "wk"
      }
    },
    "request": {
      "method": "PUT",
      "url": "Observation/cc573c1f-5590-4a42-b07a-436caf8c91f2"
    }
  }, {
    "fullUrl": "https://madie.cms.gov/Observation/32261b04-cb3e-4007-ab7d-6b85483e9d58",
    "resource": {
      "resourceType": "Observation",
      "id": "32261b04-cb3e-4007-ab7d-6b85483e9d58",
      "meta": {
        "profile": [ "http://hl7.org/fhir/us/qicore/StructureDefinition/qicore-simple-observation" ]
      },
      "status": "final",
      "category": [ {
        "coding": [ {
          "system": "http://terminology.hl7.org/CodeSystem/observation-category",
          "code": "exam",
          "display": "exam",
          "userSelected": true
        } ]
      } ],
      "code": {
        "coding": [ {
          "system": "http://loinc.org",
          "code": "93857-1"
        } ]
      },
      "subject": {
        "reference": "Patient/3cb741e0-5abb-4d16-a374-bc15fdf55021"
      },
      "effectiveDateTime": "2026-06-08T20:00:00.000+00:00",
      "valueDateTime": "2026-06-08T20:00:00.000+00:00"
    },
    "request": {
      "method": "PUT",
      "url": "Observation/32261b04-cb3e-4007-ab7d-6b85483e9d58"
    }
  }, {
    "fullUrl": "https://madie.cms.gov/Encounter/a12b1bc0-c75d-4bb5-b6c2-e3e4befeba47",
    "resource": {
      "resourceType": "Encounter",
      "id": "a12b1bc0-c75d-4bb5-b6c2-e3e4befeba47",
      "meta": {
        "profile": [ "http://hl7.org/fhir/us/qicore/StructureDefinition/qicore-encounter" ]
      },
      "status": "finished",
      "class": {
        "system": "http://terminology.hl7.org/CodeSystem/v3-ActCode",
        "code": "IMP",
        "display": "inpatient encounter"
      },
      "type": [ {
        "coding": [ {
          "system": "http://snomed.info/sct",
          "code": "8715000"
        } ]
      } ],
      "subject": {
        "reference": "Patient/3cb741e0-5abb-4d16-a374-bc15fdf55021"
      },
      "period": {
        "start": "2026-06-08T08:00:00.000+00:00",
        "end": "2026-06-10T08:15:00.000+00:00"
      },
      "length": {
        "value": 2,
        "unit": "days"
      },
      "reasonReference": [ {
        "reference": "Condition/3c010768-d19c-40ae-929e-8f79149ed996"
      } ]
    },
    "request": {
      "method": "PUT",
      "url": "Encounter/a12b1bc0-c75d-4bb5-b6c2-e3e4befeba47"
    }
  }, {
    "fullUrl": "https://madie.cms.gov/Procedure/88b43e59-1ec1-4418-b86b-5d308de59ee3",
    "resource": {
      "resourceType": "Procedure",
      "id": "88b43e59-1ec1-4418-b86b-5d308de59ee3",
      "meta": {
        "profile": [ "http://hl7.org/fhir/us/qicore/StructureDefinition/qicore-procedure" ]
      },
      "extension": [ {
        "url": "http://hl7.org/fhir/us/qicore/StructureDefinition/qicore-recorded",
        "valueDateTime": "2014-04-05T13:35:00.000+00:00"
      } ],
      "status": "completed",
      "code": {
        "coding": [ {
          "system": "http://www.cms.gov/Medicare/Coding/ICD10",
          "code": "10D00Z0"
        }, {
          "system": "http://snomed.info/sct",
          "code": "4504004"
        } ]
      },
      "subject": {
        "reference": "Patient/3cb741e0-5abb-4d16-a374-bc15fdf55021"
      },
      "performedPeriod": {
        "start": "2026-06-08T20:00:00.000+00:00",
        "end": "2026-06-08T20:15:00.000+00:00"
      }
    },
    "request": {
      "method": "PUT",
      "url": "Procedure/88b43e59-1ec1-4418-b86b-5d308de59ee3"
    }
  }, {
    "fullUrl": "https://madie.cms.gov/Condition/3c010768-d19c-40ae-929e-8f79149ed996",
    "resource": {
      "resourceType": "Condition",
      "id": "3c010768-d19c-40ae-929e-8f79149ed996",
      "meta": {
        "profile": [ "http://hl7.org/fhir/us/qicore/StructureDefinition/qicore-condition-encounter-diagnosis" ]
      },
      "category": [ {
        "coding": [ {
          "system": "http://terminology.hl7.org/CodeSystem/condition-category",
          "code": "encounter-diagnosis",
          "display": "Encounter Diagnosis"
        } ]
      } ],
      "code": {
        "coding": [ {
          "system": "http://snomed.info/sct",
          "version": "2022-09",
          "code": "169826009",
          "display": "Single live birth from singleton pregnancy (finding)",
          "userSelected": true
        } ]
      },
      "subject": {
        "reference": "Patient/3cb741e0-5abb-4d16-a374-bc15fdf55021"
      },
      "encounter": {
        "reference": "Encounter/a12b1bc0-c75d-4bb5-b6c2-e3e4befeba47"
      },
      "recordedDate": "2026-10-21T08:00:00.000+00:00"
    },
    "request": {
      "method": "PUT",
      "url": "Condition/3c010768-d19c-40ae-929e-8f79149ed996"
    }
  }, {
    "fullUrl": "https://madie.cms.gov/Coverage/d57434f4-4ba3-412f-9904-4e030168fb53",
    "resource": {
      "resourceType": "Coverage",
      "id": "d57434f4-4ba3-412f-9904-4e030168fb53",
      "meta": {
        "profile": [ "http://hl7.org/fhir/us/qicore/StructureDefinition/qicore-coverage" ]
      },
      "status": "active",
      "subscriberId": "523435",
      "beneficiary": {
        "reference": "Patient/3cb741e0-5abb-4d16-a374-bc15fdf55021"
      },
      "relationship": {
        "coding": [ {
          "system": "http://terminology.hl7.org/CodeSystem/subscriber-relationship",
          "code": "self"
        } ]
      },
      "payor": [ {
        "reference": "Organization/6b62b3e1-7cd4-45a7-83ca-d8464ab53260"
      } ]
    },
    "request": {
      "method": "PUT",
      "url": "Coverage/d57434f4-4ba3-412f-9904-4e030168fb53"
    }
  }, {
    "fullUrl": "https://madie.cms.gov/Organization/6b62b3e1-7cd4-45a7-83ca-d8464ab53260",
    "resource": {
      "resourceType": "Organization",
      "id": "6b62b3e1-7cd4-45a7-83ca-d8464ab53260",
      "meta": {
        "profile": [ "http://hl7.org/fhir/us/qicore/StructureDefinition/qicore-organization" ]
      },
      "identifier": [ {
        "use": "temp",
        "system": "urn:oid:2.16.840.1.113883.4.4",
        "value": "21-3259825"
      } ],
      "active": true,
      "type": [ {
        "coding": [ {
          "system": "http://terminology.hl7.org/CodeSystem/organization-type",
          "code": "pay",
          "display": "Payer"
        } ]
      } ],
      "name": "Blue Cross Blue Shield of Texas",
      "telecom": [ {
        "system": "phone",
        "value": "(+1) 972-766-6900"
      } ],
      "address": [ {
        "use": "billing",
        "type": "postal",
        "line": [ "P.O. Box 660044" ],
        "city": "Dallas",
        "state": "TX",
        "postalCode": "75266-0044",
        "country": "USA"
      } ]
    },
    "request": {
      "method": "PUT",
      "url": "Organization/6b62b3e1-7cd4-45a7-83ca-d8464ab53260"
    }
  }, {
    "fullUrl": "https://madie.cms.gov/Practitioner/e21467e2-65d4-473a-9133-d6e51da42e5a",
    "resource": {
      "resourceType": "Practitioner",
      "id": "e21467e2-65d4-473a-9133-d6e51da42e5a",
      "meta": {
        "profile": [ "http://hl7.org/fhir/us/qicore/StructureDefinition/qicore-practitioner" ]
      },
      "identifier": [ {
        "system": "http://hl7.org/fhir/sid/us-npi",
        "value": "1234567890"
      } ],
      "name": [ {
        "family": "Evil",
        "prefix": [ "Dr" ]
      } ]
    },
    "request": {
      "method": "PUT",
      "url": "Practitioner/e21467e2-65d4-473a-9133-d6e51da42e5a"
    }
  }, {
    "fullUrl": "https://madie.cms.gov/MeasureReport/6df9ee10-667a-4bf4-9473-eeb96ec9b327",
    "resource": {
      "resourceType": "MeasureReport",
      "id": "6df9ee10-667a-4bf4-9473-eeb96ec9b327",
      "meta": {
        "profile": [ "http://hl7.org/fhir/us/cqfmeasures/StructureDefinition/test-case-cqfm" ]
      },
      "contained": [ {
        "resourceType": "Parameters",
        "id": "ea430f95-6e83-440b-a620-f1a17a90c9ff-parameters",
        "parameter": [ {
          "name": "subject",
          "valueString": "3cb741e0-5abb-4d16-a374-bc15fdf55021"
        } ]
      } ],
      "extension": [ {
        "url": "http://hl7.org/fhir/StructureDefinition/cqf-inputParameters",
        "valueReference": {
          "reference": "#ea430f95-6e83-440b-a620-f1a17a90c9ff-parameters"
        }
      }, {
        "url": "http://hl7.org/fhir/us/cqfmeasures/StructureDefinition/cqfm-testCaseDescription",
        "valueMarkdown": "\"Preterm Births=0, authored < 42weeks prior to delivery\nTerm Newborn missing\"\n"
      } ],
      "modifierExtension": [ {
        "url": "http://hl7.org/fhir/us/cqfmeasures/StructureDefinition/cqfm-isTestCase",
        "valueBoolean": true
      } ],
      "status": "complete",
      "type": "individual",
      "measure": "https://madie.cms.gov/Measure/CMS0334FHIRPCCesareanBirth",
      "period": {
        "start": "2026-01-01",
        "end": "2026-12-31"
      },
      "group": [ {
        "id": "Group_1",
        "population": [ {
          "id": "InitialPopulation_1",
          "code": {
            "coding": [ {
              "system": "http://terminology.hl7.org/CodeSystem/measure-population",
              "code": "initial-population",
              "display": "Initial Population"
            } ]
          },
          "count": 1
        }, {
          "id": "Denominator_1",
          "code": {
            "coding": [ {
              "system": "http://terminology.hl7.org/CodeSystem/measure-population",
              "code": "denominator",
              "display": "Denominator"
            } ]
          },
          "count": 0
        }, {
          "id": "DenominatorExclusion_1",
          "code": {
            "coding": [ {
              "system": "http://terminology.hl7.org/CodeSystem/measure-population",
              "code": "denominator-exclusion",
              "display": "Denominator Exclusion"
            } ]
          },
          "count": 0
        }, {
          "id": "Numerator_1",
          "code": {
            "coding": [ {
              "system": "http://terminology.hl7.org/CodeSystem/measure-population",
              "code": "numerator",
              "display": "Numerator"
            } ]
          },
          "count": 0
        } ],
        "measureScore": {
          "value": 0.0
        }
      } ],
      "evaluatedResource": [ {
        "reference": "Patient/3cb741e0-5abb-4d16-a374-bc15fdf55021"
      }, {
        "reference": "Observation/29277009-4ea5-4d51-91fa-7c6dcfd38824"
      }, {
        "reference": "Observation/cc573c1f-5590-4a42-b07a-436caf8c91f2"
      }, {
        "reference": "Observation/32261b04-cb3e-4007-ab7d-6b85483e9d58"
      }, {
        "reference": "Encounter/a12b1bc0-c75d-4bb5-b6c2-e3e4befeba47"
      }, {
        "reference": "Procedure/88b43e59-1ec1-4418-b86b-5d308de59ee3"
      }, {
        "reference": "Condition/3c010768-d19c-40ae-929e-8f79149ed996"
      }, {
        "reference": "Coverage/d57434f4-4ba3-412f-9904-4e030168fb53"
      }, {
        "reference": "Organization/6b62b3e1-7cd4-45a7-83ca-d8464ab53260"
      }, {
        "reference": "Practitioner/e21467e2-65d4-473a-9133-d6e51da42e5a"
      } ]
    },
    "request": {
      "method": "PUT",
      "url": "MeasureReport/6df9ee10-667a-4bf4-9473-eeb96ec9b327"
    }
  } ]
}