{
  "resourceType": "Bundle",
  "id": "62c880ec0111a60120dc21f9",
  "type": "transaction",
  "entry": [ {
    "fullUrl": "https://madie.cms.gov/Patient/ae0726cf-ea31-4527-95b4-ed5da7b381bf",
    "resource": {
      "resourceType": "Patient",
      "id": "ae0726cf-ea31-4527-95b4-ed5da7b381bf",
      "meta": {
        "profile": [ "http://hl7.org/fhir/us/qicore/StructureDefinition/qicore-patient" ]
      },
      "extension": [ {
        "url": "http://hl7.org/fhir/us/core/StructureDefinition/us-core-race",
        "extension": [ {
          "url": "ombCategory",
          "valueCoding": {
            "system": "urn:oid:2.16.840.1.113883.6.238",
            "code": "2028-9",
            "display": "Asian"
          }
        }, {
          "url": "text",
          "valueString": "Asian"
        } ]
      }, {
        "url": "http://hl7.org/fhir/us/core/StructureDefinition/us-core-ethnicity",
        "extension": [ {
          "url": "ombCategory",
          "valueCoding": {
            "system": "urn:oid:2.16.840.1.113883.6.238",
            "code": "2186-5",
            "display": "Not Hispanic or Latino"
          }
        }, {
          "url": "text",
          "valueString": "Not Hispanic or Latino"
        } ]
      } ],
      "identifier": [ {
        "type": {
          "coding": [ {
            "system": "http://terminology.hl7.org/CodeSystem/v2-0203",
            "code": "MR"
          } ]
        },
        "system": "https://bonnie-fhir.healthit.gov/",
        "value": "62c880ec0111a60120dc21f9"
      } ],
      "active": true,
      "name": [ {
        "use": "usual",
        "family": "IPPPassPop1",
        "given": [ "ChemoSameDayAsAnd1DayAfterEnc" ]
      } ],
      "gender": "female",
      "birthDate": "1938-05-13"
    },
    "request": {
      "method": "PUT",
      "url": "Patient/ae0726cf-ea31-4527-95b4-ed5da7b381bf"
    }
  }, {
    "fullUrl": "https://madie.cms.gov/Condition/6019d351-2d12-436b-b1a4-1e56930ec1db",
    "resource": {
      "resourceType": "Condition",
      "id": "6019d351-2d12-436b-b1a4-1e56930ec1db",
      "meta": {
        "profile": [ "http://hl7.org/fhir/us/qicore/StructureDefinition/qicore-condition-problems-health-concerns" ]
      },
      "clinicalStatus": {
        "coding": [ {
          "system": "http://terminology.hl7.org/CodeSystem/condition-clinical",
          "code": "active",
          "display": "Active"
        } ]
      },
      "verificationStatus": {
        "coding": [ {
          "system": "http://terminology.hl7.org/CodeSystem/condition-ver-status",
          "code": "confirmed",
          "display": "Confirmed"
        } ]
      },
      "category": [ {
        "coding": [ {
          "system": "http://terminology.hl7.org/CodeSystem/condition-category",
          "code": "problem-list-item",
          "display": "Problem List Item"
        } ]
      } ],
      "code": {
        "coding": [ {
          "system": "http://snomed.info/sct",
          "code": "109264009"
        } ]
      },
      "subject": {
        "reference": "Patient/ae0726cf-ea31-4527-95b4-ed5da7b381bf"
      },
      "onsetDateTime": "2024-05-01T13:30:00.000+00:00"
    },
    "request": {
      "method": "PUT",
      "url": "Condition/6019d351-2d12-436b-b1a4-1e56930ec1db"
    }
  }, {
    "fullUrl": "https://madie.cms.gov/Encounter/f38fc08d-88f2-4023-9604-d03ed91dd92f",
    "resource": {
      "resourceType": "Encounter",
      "id": "f38fc08d-88f2-4023-9604-d03ed91dd92f",
      "meta": {
        "profile": [ "http://hl7.org/fhir/us/qicore/StructureDefinition/qicore-encounter" ]
      },
      "status": "finished",
      "class": {
        "system": "http://terminology.hl7.org/CodeSystem/v3-ActCode",
        "code": "AMB",
        "display": "ambulatory",
        "userSelected": true
      },
      "type": [ {
        "coding": [ {
          "system": "http://www.ama-assn.org/go/cpt",
          "code": "99202"
        } ]
      } ],
      "subject": {
        "reference": "Patient/ae0726cf-ea31-4527-95b4-ed5da7b381bf"
      },
      "period": {
        "start": "2026-01-01T14:00:00.000+00:00",
        "end": "2026-01-01T15:00:00.000+00:00"
      }
    },
    "request": {
      "method": "PUT",
      "url": "Encounter/f38fc08d-88f2-4023-9604-d03ed91dd92f"
    }
  }, {
    "fullUrl": "https://madie.cms.gov/Coverage/7d12beda-5d94-4add-9775-3831e02b5bd8",
    "resource": {
      "resourceType": "Coverage",
      "id": "7d12beda-5d94-4add-9775-3831e02b5bd8",
      "meta": {
        "profile": [ "http://hl7.org/fhir/us/qicore/StructureDefinition/qicore-coverage" ]
      },
      "status": "active",
      "beneficiary": {
        "reference": "Patient/ae0726cf-ea31-4527-95b4-ed5da7b381bf"
      },
      "period": {
        "start": "1938-05-13T08:00:00.000+00:00"
      },
      "payor": [ {
        "reference": "Organization/5f781bef-8a40-4f05-b94d-7a1fe6dfd9c2"
      } ]
    },
    "request": {
      "method": "PUT",
      "url": "Coverage/7d12beda-5d94-4add-9775-3831e02b5bd8"
    }
  }, {
    "fullUrl": "https://madie.cms.gov/Procedure/5ca39251-8d3c-4890-acf4-45ceb6c04910",
    "resource": {
      "resourceType": "Procedure",
      "id": "5ca39251-8d3c-4890-acf4-45ceb6c04910",
      "meta": {
        "profile": [ "http://hl7.org/fhir/us/qicore/StructureDefinition/qicore-procedure" ]
      },
      "extension": [ {
        "url": "http://hl7.org/fhir/us/qicore/StructureDefinition/qicore-recorded",
        "valueDateTime": "2026-01-01T12:35:00.000+00:00"
      } ],
      "status": "completed",
      "code": {
        "coding": [ {
          "system": "http://snomed.info/sct",
          "code": "169396008"
        } ]
      },
      "subject": {
        "reference": "Patient/ae0726cf-ea31-4527-95b4-ed5da7b381bf"
      },
      "performedPeriod": {
        "start": "2026-01-01T08:00:00.000+00:00",
        "end": "2026-01-01T08:15:00.000+00:00"
      }
    },
    "request": {
      "method": "PUT",
      "url": "Procedure/5ca39251-8d3c-4890-acf4-45ceb6c04910"
    }
  }, {
    "fullUrl": "https://madie.cms.gov/Procedure/6dbbf287-d77e-4c81-b2af-d8029114d5b5",
    "resource": {
      "resourceType": "Procedure",
      "id": "6dbbf287-d77e-4c81-b2af-d8029114d5b5",
      "meta": {
        "profile": [ "http://hl7.org/fhir/us/qicore/StructureDefinition/qicore-procedure" ]
      },
      "extension": [ {
        "url": "http://hl7.org/fhir/us/qicore/StructureDefinition/qicore-recorded",
        "valueDateTime": "2026-01-01T12:35:00.000+00:00"
      } ],
      "status": "completed",
      "code": {
        "coding": [ {
          "system": "http://snomed.info/sct",
          "code": "169396008"
        } ]
      },
      "subject": {
        "reference": "Patient/ae0726cf-ea31-4527-95b4-ed5da7b381bf"
      },
      "performedPeriod": {
        "start": "2026-01-01T08:00:00.000+00:00",
        "end": "2026-01-01T08:15:00.000+00:00"
      }
    },
    "request": {
      "method": "PUT",
      "url": "Procedure/6dbbf287-d77e-4c81-b2af-d8029114d5b5"
    }
  }, {
    "fullUrl": "https://madie.cms.gov/Procedure/ffc50ba0-70e8-4a63-8df1-b77833646fb0",
    "resource": {
      "resourceType": "Procedure",
      "id": "ffc50ba0-70e8-4a63-8df1-b77833646fb0",
      "meta": {
        "profile": [ "http://hl7.org/fhir/us/qicore/StructureDefinition/qicore-procedure" ]
      },
      "extension": [ {
        "url": "http://hl7.org/fhir/us/qicore/StructureDefinition/qicore-recorded",
        "valueDateTime": "2026-01-02T12:35:00.000+00:00"
      } ],
      "status": "completed",
      "code": {
        "coding": [ {
          "system": "http://snomed.info/sct",
          "code": "169396008"
        } ]
      },
      "subject": {
        "reference": "Patient/ae0726cf-ea31-4527-95b4-ed5da7b381bf"
      },
      "performedPeriod": {
        "start": "2026-01-02T08:00:00.000+00:00",
        "end": "2026-01-02T08:15:00.000+00:00"
      }
    },
    "request": {
      "method": "PUT",
      "url": "Procedure/ffc50ba0-70e8-4a63-8df1-b77833646fb0"
    }
  }, {
    "fullUrl": "https://madie.cms.gov/Organization/5f781bef-8a40-4f05-b94d-7a1fe6dfd9c2",
    "resource": {
      "resourceType": "Organization",
      "id": "5f781bef-8a40-4f05-b94d-7a1fe6dfd9c2",
      "meta": {
        "profile": [ "http://hl7.org/fhir/us/qicore/StructureDefinition/qicore-organization" ]
      },
      "identifier": [ {
        "use": "temp",
        "system": "urn:oid:2.16.840.1.113883.4.4",
        "value": "21-3259825"
      } ],
      "active": true,
      "type": [ {
        "coding": [ {
          "system": "http://terminology.hl7.org/CodeSystem/organization-type",
          "code": "pay",
          "display": "Payer"
        } ]
      } ],
      "name": "Blue Cross Blue Shield of Texas",
      "telecom": [ {
        "system": "phone",
        "value": "(+1) 972-766-6900"
      } ],
      "address": [ {
        "use": "billing",
        "type": "postal",
        "line": [ "P.O. Box 660044" ],
        "city": "Dallas",
        "state": "TX",
        "postalCode": "75266-0044",
        "country": "USA"
      } ]
    },
    "request": {
      "method": "PUT",
      "url": "Organization/5f781bef-8a40-4f05-b94d-7a1fe6dfd9c2"
    }
  }, {
    "fullUrl": "https://madie.cms.gov/Practitioner/fca13d05-94aa-4cc8-831b-c2952a135e16",
    "resource": {
      "resourceType": "Practitioner",
      "id": "fca13d05-94aa-4cc8-831b-c2952a135e16",
      "meta": {
        "profile": [ "http://hl7.org/fhir/us/qicore/StructureDefinition/qicore-practitioner" ]
      },
      "identifier": [ {
        "system": "http://hl7.org/fhir/sid/us-npi",
        "value": "1234567890"
      } ],
      "name": [ {
        "family": "Evil",
        "prefix": [ "Dr" ]
      } ]
    },
    "request": {
      "method": "PUT",
      "url": "Practitioner/fca13d05-94aa-4cc8-831b-c2952a135e16"
    }
  }, {
    "fullUrl": "https://madie.cms.gov/MeasureReport/93af99d9-1643-442b-98a3-a43cae0a524b",
    "resource": {
      "resourceType": "MeasureReport",
      "id": "93af99d9-1643-442b-98a3-a43cae0a524b",
      "meta": {
        "profile": [ "http://hl7.org/fhir/us/cqfmeasures/StructureDefinition/test-case-cqfm" ]
      },
      "contained": [ {
        "resourceType": "Parameters",
        "id": "7e920ee7-b8b6-4542-adc8-6f3556143c42-parameters",
        "parameter": [ {
          "name": "subject",
          "valueString": "ae0726cf-ea31-4527-95b4-ed5da7b381bf"
        } ]
      } ],
      "extension": [ {
        "url": "http://hl7.org/fhir/StructureDefinition/cqf-inputParameters",
        "valueReference": {
          "reference": "#7e920ee7-b8b6-4542-adc8-6f3556143c42-parameters"
        }
      }, {
        "url": "http://hl7.org/fhir/us/cqfmeasures/StructureDefinition/cqfm-testCaseDescription",
        "valueMarkdown": "Patient with cancer diagnosis that overlaps the office visit during measurement period. Chemotherapy received same day of office visit and another chemo 1 day after office visit. \n"
      } ],
      "modifierExtension": [ {
        "url": "http://hl7.org/fhir/us/cqfmeasures/StructureDefinition/cqfm-isTestCase",
        "valueBoolean": true
      } ],
      "status": "complete",
      "type": "individual",
      "measure": "https://madie.cms.gov/Measure/CMS157FHIRPainIntensityQuantified",
      "period": {
        "start": "2026-01-01",
        "end": "2026-12-31"
      },
      "group": [ {
        "id": "Group_1",
        "population": [ {
          "id": "InitialPopulation_1",
          "code": {
            "coding": [ {
              "system": "http://terminology.hl7.org/CodeSystem/measure-population",
              "code": "initial-population",
              "display": "Initial Population"
            } ]
          },
          "count": 1
        }, {
          "id": "Denominator_1",
          "code": {
            "coding": [ {
              "system": "http://terminology.hl7.org/CodeSystem/measure-population",
              "code": "denominator",
              "display": "Denominator"
            } ]
          },
          "count": 1
        }, {
          "id": "Numerator_1",
          "code": {
            "coding": [ {
              "system": "http://terminology.hl7.org/CodeSystem/measure-population",
              "code": "numerator",
              "display": "Numerator"
            } ]
          },
          "count": 0
        } ],
        "measureScore": {
          "value": 0.0
        }
      }, {
        "id": "Group_2",
        "population": [ {
          "id": "InitialPopulation_2",
          "code": {
            "coding": [ {
              "system": "http://terminology.hl7.org/CodeSystem/measure-population",
              "code": "initial-population",
              "display": "Initial Population"
            } ]
          },
          "count": 0
        }, {
          "id": "Denominator_2",
          "code": {
            "coding": [ {
              "system": "http://terminology.hl7.org/CodeSystem/measure-population",
              "code": "denominator",
              "display": "Denominator"
            } ]
          },
          "count": 0
        }, {
          "id": "Numerator_2",
          "code": {
            "coding": [ {
              "system": "http://terminology.hl7.org/CodeSystem/measure-population",
              "code": "numerator",
              "display": "Numerator"
            } ]
          },
          "count": 0
        } ],
        "measureScore": {
          "value": 0.0
        }
      } ],
      "evaluatedResource": [ {
        "reference": "Patient/ae0726cf-ea31-4527-95b4-ed5da7b381bf"
      }, {
        "reference": "Condition/6019d351-2d12-436b-b1a4-1e56930ec1db"
      }, {
        "reference": "Encounter/f38fc08d-88f2-4023-9604-d03ed91dd92f"
      }, {
        "reference": "Coverage/7d12beda-5d94-4add-9775-3831e02b5bd8"
      }, {
        "reference": "Procedure/5ca39251-8d3c-4890-acf4-45ceb6c04910"
      }, {
        "reference": "Procedure/6dbbf287-d77e-4c81-b2af-d8029114d5b5"
      }, {
        "reference": "Procedure/ffc50ba0-70e8-4a63-8df1-b77833646fb0"
      }, {
        "reference": "Organization/5f781bef-8a40-4f05-b94d-7a1fe6dfd9c2"
      }, {
        "reference": "Practitioner/fca13d05-94aa-4cc8-831b-c2952a135e16"
      } ]
    },
    "request": {
      "method": "PUT",
      "url": "MeasureReport/93af99d9-1643-442b-98a3-a43cae0a524b"
    }
  } ]
}