{
  "resourceType": "Bundle",
  "id": "6129133f02c62a011f2e6ab0",
  "type": "transaction",
  "entry": [ {
    "fullUrl": "https://madie.cms.gov/Patient/db5afa02-02e2-4c0d-88c8-d3c0682333a1",
    "resource": {
      "resourceType": "Patient",
      "id": "db5afa02-02e2-4c0d-88c8-d3c0682333a1",
      "meta": {
        "profile": [ "http://hl7.org/fhir/us/qicore/StructureDefinition/qicore-patient" ]
      },
      "text": {
        "status": "generated",
        "div": "<div xmlns=\"http://www.w3.org/1999/xhtml\"><div class=\"hapiHeaderText\">CMOdurObs_ED&gt;1hrObs&gt;1hrBFEnc <b>DENEXFAIL </b></div><table class=\"hapiPropertyTable\"><tbody><tr><td>Identifier</td><td>b295efb5520a7037dac313f631f555ba</td></tr><tr><td>Date of birth</td><td><span>21 August 1994</span></td></tr></tbody></table></div>"
      },
      "extension": [ {
        "url": "http://hl7.org/fhir/us/core/StructureDefinition/us-core-race",
        "extension": [ {
          "url": "ombCategory",
          "valueCoding": {
            "system": "urn:oid:2.16.840.1.113883.6.238",
            "code": "1002-5",
            "display": "American Indian or Alaska Native",
            "userSelected": true
          }
        }, {
          "url": "text",
          "valueString": "American Indian or Alaska Native"
        } ]
      }, {
        "url": "http://hl7.org/fhir/us/core/StructureDefinition/us-core-ethnicity",
        "extension": [ {
          "url": "ombCategory",
          "valueCoding": {
            "system": "urn:oid:2.16.840.1.113883.6.238",
            "code": "2135-2",
            "display": "Hispanic or Latino",
            "userSelected": true
          }
        }, {
          "url": "text",
          "valueString": "Hispanic or Latino"
        } ]
      } ],
      "identifier": [ {
        "type": {
          "coding": [ {
            "system": "http://terminology.hl7.org/CodeSystem/v2-0203",
            "code": "MR"
          } ]
        },
        "system": "https://bonnie-fhir.healthit.gov/",
        "value": "6129133f02c62a011f2e6ab0"
      } ],
      "active": true,
      "name": [ {
        "use": "usual",
        "family": "DENEXFail",
        "given": [ "CMOdurObsED1hrObs1hrBFEnc" ]
      } ],
      "gender": "male",
      "birthDate": "1995-08-21"
    },
    "request": {
      "method": "PUT",
      "url": "Patient/db5afa02-02e2-4c0d-88c8-d3c0682333a1"
    }
  }, {
    "fullUrl": "https://madie.cms.gov/Encounter/e4f81bb3-efc3-4ff1-9420-c3dcc3310cc2",
    "resource": {
      "resourceType": "Encounter",
      "id": "e4f81bb3-efc3-4ff1-9420-c3dcc3310cc2",
      "meta": {
        "profile": [ "http://hl7.org/fhir/us/qicore/StructureDefinition/qicore-encounter" ]
      },
      "status": "finished",
      "class": {
        "system": "http://terminology.hl7.org/CodeSystem/v3-ActCode",
        "code": "EMER",
        "display": "emergency",
        "userSelected": true
      },
      "type": [ {
        "coding": [ {
          "system": "http://snomed.info/sct",
          "code": "4525004"
        } ]
      } ],
      "subject": {
        "reference": "Patient/db5afa02-02e2-4c0d-88c8-d3c0682333a1"
      },
      "period": {
        "start": "2026-10-10T07:30:00.000+00:00",
        "end": "2026-10-10T07:35:00.000+00:00"
      },
      "length": {
        "value": 0,
        "unit": "days"
      }
    },
    "request": {
      "method": "PUT",
      "url": "Encounter/e4f81bb3-efc3-4ff1-9420-c3dcc3310cc2"
    }
  }, {
    "fullUrl": "https://madie.cms.gov/Encounter/07d9af9e-0425-4e23-b5ab-74faf5d82410",
    "resource": {
      "resourceType": "Encounter",
      "id": "07d9af9e-0425-4e23-b5ab-74faf5d82410",
      "meta": {
        "profile": [ "http://hl7.org/fhir/us/qicore/StructureDefinition/qicore-encounter" ]
      },
      "status": "finished",
      "class": {
        "system": "http://terminology.hl7.org/CodeSystem/v3-ActCode",
        "code": "OBSENC",
        "display": "observation encounter",
        "userSelected": true
      },
      "type": [ {
        "coding": [ {
          "system": "http://snomed.info/sct",
          "code": "448851000124103"
        } ]
      } ],
      "subject": {
        "reference": "Patient/db5afa02-02e2-4c0d-88c8-d3c0682333a1"
      },
      "period": {
        "start": "2026-10-10T08:36:00.000+00:00",
        "end": "2026-10-10T09:00:00.000+00:00"
      },
      "length": {
        "value": 0,
        "unit": "days"
      }
    },
    "request": {
      "method": "PUT",
      "url": "Encounter/07d9af9e-0425-4e23-b5ab-74faf5d82410"
    }
  }, {
    "fullUrl": "https://madie.cms.gov/Encounter/2c3533c3-bcda-4a0d-818f-c7a337568f5f",
    "resource": {
      "resourceType": "Encounter",
      "id": "2c3533c3-bcda-4a0d-818f-c7a337568f5f",
      "meta": {
        "profile": [ "http://hl7.org/fhir/us/qicore/StructureDefinition/qicore-encounter" ]
      },
      "status": "finished",
      "class": {
        "system": "http://terminology.hl7.org/CodeSystem/v3-ActCode",
        "code": "IMP",
        "display": "inpatient encounter",
        "userSelected": true
      },
      "type": [ {
        "coding": [ {
          "system": "http://snomed.info/sct",
          "code": "32485007"
        } ]
      } ],
      "subject": {
        "reference": "Patient/db5afa02-02e2-4c0d-88c8-d3c0682333a1"
      },
      "period": {
        "start": "2026-10-10T10:01:00.000+00:00",
        "end": "2026-10-12T10:30:00.000+00:00"
      },
      "length": {
        "value": 2,
        "unit": "days"
      },
      "diagnosis": [ {
        "condition": {
          "reference": "Condition/7c03c7b0-e9b7-4624-ba2f-c7e75de868f7"
        },
        "use": {
          "coding": [ {
            "system": "http://terminology.hl7.org/CodeSystem/diagnosis-role",
            "code": "billing",
            "display": "Billing"
          } ]
        },
        "rank": 1
      } ]
    },
    "request": {
      "method": "PUT",
      "url": "Encounter/2c3533c3-bcda-4a0d-818f-c7a337568f5f"
    }
  }, {
    "fullUrl": "https://madie.cms.gov/ServiceRequest/18b0deef-1ba0-4f00-acf0-974c5edb586e",
    "resource": {
      "resourceType": "ServiceRequest",
      "id": "18b0deef-1ba0-4f00-acf0-974c5edb586e",
      "meta": {
        "profile": [ "http://hl7.org/fhir/us/qicore/StructureDefinition/qicore-servicerequest" ]
      },
      "status": "active",
      "intent": "order",
      "code": {
        "coding": [ {
          "system": "http://snomed.info/sct",
          "code": "133918004"
        } ]
      },
      "subject": {
        "reference": "Patient/db5afa02-02e2-4c0d-88c8-d3c0682333a1"
      },
      "authoredOn": "2026-10-10T08:37:00.000+00:00"
    },
    "request": {
      "method": "PUT",
      "url": "ServiceRequest/18b0deef-1ba0-4f00-acf0-974c5edb586e"
    }
  }, {
    "fullUrl": "https://madie.cms.gov/claim/5ca62962b8484628b8de1ec5",
    "resource": {
      "resourceType": "Claim",
      "id": "5ca62962b8484628b8de1ec5",
      "meta": {
        "profile": [ "http://hl7.org/fhir/us/qicore/StructureDefinition/qicore-claim" ]
      },
      "status": "active",
      "type": {
        "coding": [ {
          "system": "http://terminology.hl7.org/CodeSystem/claim-type",
          "code": "institutional"
        } ]
      },
      "use": "claim",
      "patient": {
        "reference": "Patient/d170a0a8-b5ad-4303-b6df-e304dd5f92ad"
      },
      "created": "2026-12-01",
      "provider": {
        "reference": "Practitioner/practitioner-123456"
      },
      "priority": {
        "coding": [ {
          "system": "http://terminology.hl7.org/CodeSystem/processpriority",
          "code": "normal"
        } ]
      },
      "diagnosis": [ {
        "sequence": 1,
        "diagnosisCodeableConcept": {
          "coding": [ {
            "system": "http://hl7.org/fhir/sid/icd-10-cm",
            "code": "I63.00"
          } ]
        },
        "type": [ {
          "coding": [ {
            "system": "http://terminology.hl7.org/CodeSystem/ex-diagnosistype",
            "code": "principal"
          } ]
        } ]
      } ],
      "insurance": [ {
        "sequence": 1,
        "focal": true,
        "coverage": {
          "reference": "Coverage/5fa041661c76ba66d9959367"
        }
      } ],
      "item": [ {
        "sequence": 1,
        "diagnosisSequence": [ 1 ],
        "productOrService": {
          "coding": [ {
            "system": "http://terminology.hl7.org/CodeSystem/ex-USCLS",
            "code": "99555"
          } ]
        },
        "encounter": [ {
          "reference": "Encounter/2c3533c3-bcda-4a0d-818f-c7a337568f5f"
        } ]
      } ]
    },
    "request": {
      "method": "PUT",
      "url": "Claim/5ca62962b8484628b8de1ec5"
    }
  }, {
    "fullUrl": "https://madie.cms.gov/Condition/7c03c7b0-e9b7-4624-ba2f-c7e75de868f7",
    "resource": {
      "resourceType": "Condition",
      "id": "7c03c7b0-e9b7-4624-ba2f-c7e75de868f7",
      "meta": {
        "profile": [ "http://hl7.org/fhir/us/qicore/StructureDefinition/qicore-condition-encounter-diagnosis" ]
      },
      "clinicalStatus": {
        "coding": [ {
          "system": "http://terminology.hl7.org/CodeSystem/condition-clinical",
          "code": "active"
        } ]
      },
      "verificationStatus": {
        "coding": [ {
          "system": "http://terminology.hl7.org/CodeSystem/condition-ver-status",
          "code": "confirmed"
        } ]
      },
      "category": [ {
        "coding": [ {
          "system": "http://terminology.hl7.org/CodeSystem/condition-category",
          "code": "encounter-diagnosis",
          "display": "Encounter Diagnosis"
        } ]
      } ],
      "code": {
        "coding": [ {
          "system": "http://snomed.info/sct",
          "version": "2020-09",
          "code": "111297002",
          "display": "Nonparalytic stroke (disorder)",
          "userSelected": true
        } ]
      },
      "subject": {
        "reference": "Patient/db5afa02-02e2-4c0d-88c8-d3c0682333a1"
      },
      "recordedDate": "2026-07-14T08:00:00.000+00:00"
    },
    "request": {
      "method": "PUT",
      "url": "Condition/7c03c7b0-e9b7-4624-ba2f-c7e75de868f7"
    }
  }, {
    "fullUrl": "https://madie.cms.gov/Coverage/bde4e6e0-d836-4cdc-b118-1f8a3ebcfda1",
    "resource": {
      "resourceType": "Coverage",
      "id": "bde4e6e0-d836-4cdc-b118-1f8a3ebcfda1",
      "meta": {
        "profile": [ "http://hl7.org/fhir/us/qicore/StructureDefinition/qicore-coverage" ]
      },
      "status": "active",
      "beneficiary": {
        "reference": "Patient/db5afa02-02e2-4c0d-88c8-d3c0682333a1"
      },
      "payor": [ {
        "reference": "Organization/e640608b-181f-43df-a179-691a010d63f9"
      } ]
    },
    "request": {
      "method": "PUT",
      "url": "Coverage/bde4e6e0-d836-4cdc-b118-1f8a3ebcfda1"
    }
  }, {
    "fullUrl": "https://madie.cms.gov/Organization/e640608b-181f-43df-a179-691a010d63f9",
    "resource": {
      "resourceType": "Organization",
      "id": "e640608b-181f-43df-a179-691a010d63f9",
      "meta": {
        "profile": [ "http://hl7.org/fhir/us/qicore/StructureDefinition/qicore-organization" ]
      },
      "identifier": [ {
        "use": "temp",
        "system": "urn:oid:2.16.840.1.113883.4.4",
        "value": "21-3259825"
      } ],
      "active": true,
      "type": [ {
        "coding": [ {
          "system": "http://terminology.hl7.org/CodeSystem/organization-type",
          "code": "pay",
          "display": "Payer"
        } ]
      } ],
      "name": "Blue Cross Blue Shield of Texas",
      "telecom": [ {
        "system": "phone",
        "value": "(+1) 972-766-6900"
      } ],
      "address": [ {
        "use": "billing",
        "type": "postal",
        "line": [ "P.O. Box 660044" ],
        "city": "Dallas",
        "state": "TX",
        "postalCode": "75266-0044",
        "country": "USA"
      } ]
    },
    "request": {
      "method": "PUT",
      "url": "Organization/e640608b-181f-43df-a179-691a010d63f9"
    }
  }, {
    "fullUrl": "https://madie.cms.gov/MeasureReport/593b5def-112d-4bdb-bf97-36a1464542c0",
    "resource": {
      "resourceType": "MeasureReport",
      "id": "593b5def-112d-4bdb-bf97-36a1464542c0",
      "meta": {
        "profile": [ "http://hl7.org/fhir/us/cqfmeasures/StructureDefinition/test-case-cqfm" ]
      },
      "contained": [ {
        "resourceType": "Parameters",
        "id": "419d1158-dbb5-4c56-b824-f66a14913973-parameters",
        "parameter": [ {
          "name": "subject",
          "valueString": "db5afa02-02e2-4c0d-88c8-d3c0682333a1"
        } ]
      } ],
      "extension": [ {
        "url": "http://hl7.org/fhir/StructureDefinition/cqf-inputParameters",
        "valueReference": {
          "reference": "#419d1158-dbb5-4c56-b824-f66a14913973-parameters"
        }
      }, {
        "url": "http://hl7.org/fhir/us/cqfmeasures/StructureDefinition/cqfm-testCaseDescription",
        "valueMarkdown": "\"Patient receives CMO during observation. ED ends 61 minute before observation. Obs ends 61 min before inpatient encounter start. Testing day of operator with HospitalizationWithObservation function.\n\"\n"
      } ],
      "modifierExtension": [ {
        "url": "http://hl7.org/fhir/us/cqfmeasures/StructureDefinition/cqfm-isTestCase",
        "valueBoolean": true
      } ],
      "status": "complete",
      "type": "individual",
      "measure": "https://madie.cms.gov/Measure/CMS104FHIRSTKDCAntithrombotic",
      "period": {
        "start": "2026-01-01",
        "end": "2026-12-31"
      },
      "group": [ {
        "id": "Group_1",
        "population": [ {
          "id": "InitialPopulation_1",
          "code": {
            "coding": [ {
              "system": "http://terminology.hl7.org/CodeSystem/measure-population",
              "code": "initial-population",
              "display": "Initial Population"
            } ]
          },
          "count": 1
        }, {
          "id": "Denominator_1",
          "code": {
            "coding": [ {
              "system": "http://terminology.hl7.org/CodeSystem/measure-population",
              "code": "denominator",
              "display": "Denominator"
            } ]
          },
          "count": 1
        }, {
          "id": "DenominatorExclusion_1",
          "code": {
            "coding": [ {
              "system": "http://terminology.hl7.org/CodeSystem/measure-population",
              "code": "denominator-exclusion",
              "display": "Denominator Exclusion"
            } ]
          },
          "count": 0
        }, {
          "id": "Numerator_1",
          "code": {
            "coding": [ {
              "system": "http://terminology.hl7.org/CodeSystem/measure-population",
              "code": "numerator",
              "display": "Numerator"
            } ]
          },
          "count": 0
        }, {
          "id": "DenominatorException_1",
          "code": {
            "coding": [ {
              "system": "http://terminology.hl7.org/CodeSystem/measure-population",
              "code": "denominator-exception",
              "display": "Denominator Exception"
            } ]
          },
          "count": 0
        } ],
        "measureScore": {
          "value": 0.0
        }
      } ],
      "evaluatedResource": [ {
        "reference": "Patient/db5afa02-02e2-4c0d-88c8-d3c0682333a1"
      }, {
        "reference": "Encounter/e4f81bb3-efc3-4ff1-9420-c3dcc3310cc2"
      }, {
        "reference": "Encounter/07d9af9e-0425-4e23-b5ab-74faf5d82410"
      }, {
        "reference": "Encounter/2c3533c3-bcda-4a0d-818f-c7a337568f5f"
      }, {
        "reference": "ServiceRequest/18b0deef-1ba0-4f00-acf0-974c5edb586e"
      }, {
        "reference": "Claim/5ca62962b8484628b8de1ec5"
      }, {
        "reference": "Condition/7c03c7b0-e9b7-4624-ba2f-c7e75de868f7"
      }, {
        "reference": "Coverage/bde4e6e0-d836-4cdc-b118-1f8a3ebcfda1"
      }, {
        "reference": "Organization/e640608b-181f-43df-a179-691a010d63f9"
      } ]
    },
    "request": {
      "method": "PUT",
      "url": "MeasureReport/593b5def-112d-4bdb-bf97-36a1464542c0"
    }
  } ]
}