{
  "resourceType": "Bundle",
  "id": "63487c2e0968f80122540187",
  "type": "transaction",
  "entry": [ {
    "fullUrl": "https://madie.cms.gov/Patient/0623e2b5-f872-4574-934b-ef2e63d85b6d",
    "resource": {
      "resourceType": "Patient",
      "id": "0623e2b5-f872-4574-934b-ef2e63d85b6d",
      "meta": {
        "profile": [ "http://hl7.org/fhir/us/qicore/StructureDefinition/qicore-patient" ]
      },
      "text": {
        "status": "generated",
        "div": "<div xmlns=\"http://www.w3.org/1999/xhtml\"><div class=\"hapiHeaderText\">EncDxNotAbnPres<b>DENEXFAIL</b></div><table class=\"hapiPropertyTable\"><tbody><tr><td>Identifier</td><td>7428b2b362015fd476ba0221287d599b0682523b1019318961fe8ec9cb029610</td></tr><tr><td>Date of birth</td><td><span>14 February 1985</span></td></tr></tbody></table></div>"
      },
      "extension": [ {
        "url": "http://hl7.org/fhir/us/core/StructureDefinition/us-core-race",
        "extension": [ {
          "url": "ombCategory",
          "valueCoding": {
            "system": "urn:oid:2.16.840.1.113883.6.238",
            "code": "1002-5",
            "display": "American Indian or Alaska Native",
            "userSelected": true
          }
        }, {
          "url": "text",
          "valueString": "American Indian or Alaska Native"
        } ]
      }, {
        "url": "http://hl7.org/fhir/us/core/StructureDefinition/us-core-ethnicity",
        "extension": [ {
          "url": "ombCategory",
          "valueCoding": {
            "system": "urn:oid:2.16.840.1.113883.6.238",
            "code": "2135-2",
            "display": "Hispanic or Latino",
            "userSelected": true
          }
        }, {
          "url": "text",
          "valueString": "Hispanic or Latino"
        } ]
      } ],
      "identifier": [ {
        "type": {
          "coding": [ {
            "system": "http://terminology.hl7.org/CodeSystem/v2-0203",
            "code": "MR"
          } ]
        },
        "system": "https://bonnie-fhir.healthit.gov/",
        "value": "63487c2e0968f80122540187"
      } ],
      "active": true,
      "name": [ {
        "use": "usual",
        "family": "DENEXFail",
        "given": [ "EncDxNotAbnPres" ]
      } ],
      "gender": "female",
      "birthDate": "1998-02-14"
    },
    "request": {
      "method": "PUT",
      "url": "Patient/0623e2b5-f872-4574-934b-ef2e63d85b6d"
    }
  }, {
    "fullUrl": "https://madie.cms.gov/Observation/bc5e4d07-adba-45ce-bec1-55c0f42d3b8b",
    "resource": {
      "resourceType": "Observation",
      "id": "bc5e4d07-adba-45ce-bec1-55c0f42d3b8b",
      "meta": {
        "profile": [ "http://hl7.org/fhir/us/qicore/StructureDefinition/qicore-simple-observation" ]
      },
      "status": "final",
      "category": [ {
        "coding": [ {
          "system": "http://terminology.hl7.org/CodeSystem/observation-category",
          "code": "exam",
          "display": "exam",
          "userSelected": true
        } ]
      } ],
      "code": {
        "coding": [ {
          "system": "http://loinc.org",
          "code": "11996-6"
        } ]
      },
      "subject": {
        "reference": "Patient/0623e2b5-f872-4574-934b-ef2e63d85b6d"
      },
      "effectiveDateTime": "2026-06-08T08:00:00.000+00:00",
      "performer": [ {
        "reference": "Organization/example1",
        "display": "Hendricks Country Hospital"
      } ],
      "valueInteger": 1
    },
    "request": {
      "method": "PUT",
      "url": "Observation/bc5e4d07-adba-45ce-bec1-55c0f42d3b8b"
    }
  }, {
    "fullUrl": "https://madie.cms.gov/Observation/3a57cb4d-fff8-4e5a-85d5-6a872ba09ca5",
    "resource": {
      "resourceType": "Observation",
      "id": "3a57cb4d-fff8-4e5a-85d5-6a872ba09ca5",
      "meta": {
        "profile": [ "http://hl7.org/fhir/us/qicore/StructureDefinition/qicore-simple-observation" ]
      },
      "status": "final",
      "category": [ {
        "coding": [ {
          "system": "http://terminology.hl7.org/CodeSystem/observation-category",
          "code": "exam",
          "display": "exam",
          "userSelected": true
        } ]
      } ],
      "code": {
        "coding": [ {
          "system": "http://loinc.org",
          "code": "11884-4"
        } ]
      },
      "subject": {
        "reference": "Patient/0623e2b5-f872-4574-934b-ef2e63d85b6d"
      },
      "effectiveDateTime": "2026-06-08T08:00:00.000+00:00",
      "performer": [ {
        "reference": "Organization/example1",
        "display": "Hendricks Country Hospital"
      } ],
      "valueQuantity": {
        "value": 43,
        "system": "http://unitsofmeasure.org",
        "code": "wk"
      }
    },
    "request": {
      "method": "PUT",
      "url": "Observation/3a57cb4d-fff8-4e5a-85d5-6a872ba09ca5"
    }
  }, {
    "fullUrl": "https://madie.cms.gov/Observation/4f0040e9-57b1-4d1c-88e0-87cdc69c4b76",
    "resource": {
      "resourceType": "Observation",
      "id": "4f0040e9-57b1-4d1c-88e0-87cdc69c4b76",
      "meta": {
        "profile": [ "http://hl7.org/fhir/us/qicore/StructureDefinition/qicore-simple-observation" ]
      },
      "status": "final",
      "category": [ {
        "coding": [ {
          "system": "http://terminology.hl7.org/CodeSystem/observation-category",
          "code": "exam",
          "display": "exam",
          "userSelected": true
        } ]
      } ],
      "code": {
        "coding": [ {
          "system": "http://loinc.org",
          "code": "93857-1"
        } ]
      },
      "subject": {
        "reference": "Patient/0623e2b5-f872-4574-934b-ef2e63d85b6d"
      },
      "effectiveDateTime": "2026-06-08T20:00:00.000+00:00",
      "performer": [ {
        "reference": "Organization/example1",
        "display": "Hendricks Country Hospital"
      } ],
      "valueDateTime": "2026-06-08T20:00:00.000+00:00"
    },
    "request": {
      "method": "PUT",
      "url": "Observation/4f0040e9-57b1-4d1c-88e0-87cdc69c4b76"
    }
  }, {
    "fullUrl": "https://madie.cms.gov/Encounter/1c12b70a-945b-4029-aba5-e534c1a6a342",
    "resource": {
      "resourceType": "Encounter",
      "id": "1c12b70a-945b-4029-aba5-e534c1a6a342",
      "meta": {
        "profile": [ "http://hl7.org/fhir/us/qicore/StructureDefinition/qicore-encounter" ]
      },
      "status": "finished",
      "class": {
        "system": "http://terminology.hl7.org/CodeSystem/v3-ActCode",
        "code": "IMP",
        "display": "inpatient encounter"
      },
      "type": [ {
        "coding": [ {
          "system": "http://snomed.info/sct",
          "code": "8715000"
        } ]
      } ],
      "subject": {
        "reference": "Patient/0623e2b5-f872-4574-934b-ef2e63d85b6d"
      },
      "period": {
        "start": "2026-06-08T08:00:00.000+00:00",
        "end": "2026-06-10T08:15:00.000+00:00"
      },
      "reasonCode": [ {
        "coding": [ {
          "system": "http://snomed.info/sct",
          "code": "169826009",
          "display": "Single live birth from singleton pregnancy (finding)"
        } ]
      } ]
    },
    "request": {
      "method": "PUT",
      "url": "Encounter/1c12b70a-945b-4029-aba5-e534c1a6a342"
    }
  }, {
    "fullUrl": "https://madie.cms.gov/Procedure/20b18a1b-3e58-4d6d-b56d-de0ed380d455",
    "resource": {
      "resourceType": "Procedure",
      "id": "20b18a1b-3e58-4d6d-b56d-de0ed380d455",
      "meta": {
        "profile": [ "http://hl7.org/fhir/us/qicore/StructureDefinition/qicore-procedure" ]
      },
      "extension": [ {
        "url": "http://hl7.org/fhir/us/qicore/StructureDefinition/qicore-recorded",
        "valueDateTime": "2014-04-05T13:35:00.000+00:00"
      } ],
      "status": "completed",
      "code": {
        "coding": [ {
          "system": "http://snomed.info/sct",
          "code": "4504004"
        }, {
          "system": "http://www.icd10data.com/icd10pcs",
          "code": "10D00Z0",
          "userSelected": true
        } ]
      },
      "subject": {
        "reference": "Patient/0623e2b5-f872-4574-934b-ef2e63d85b6d"
      },
      "performedDateTime": "2026-06-08T20:00:00.000+00:00"
    },
    "request": {
      "method": "PUT",
      "url": "Procedure/20b18a1b-3e58-4d6d-b56d-de0ed380d455"
    }
  }, {
    "fullUrl": "https://madie.cms.gov/Condition/8fe97e6e-6711-4f03-8086-54f210b6ed91",
    "resource": {
      "resourceType": "Condition",
      "id": "8fe97e6e-6711-4f03-8086-54f210b6ed91",
      "meta": {
        "profile": [ "http://hl7.org/fhir/us/qicore/StructureDefinition/qicore-condition-encounter-diagnosis" ]
      },
      "category": [ {
        "coding": [ {
          "system": "http://terminology.hl7.org/CodeSystem/condition-category",
          "code": "encounter-diagnosis",
          "display": "Encounter Diagnosis"
        } ]
      } ],
      "code": {
        "coding": [ {
          "system": "http://snomed.info/sct",
          "version": "2022-09",
          "code": "169826009",
          "display": "Single live birth (finding)",
          "userSelected": true
        } ]
      },
      "subject": {
        "reference": "Patient/0623e2b5-f872-4574-934b-ef2e63d85b6d"
      },
      "encounter": {
        "reference": "Encounter/1c12b70a-945b-4029-aba5-e534c1a6a342"
      },
      "recordedDate": "2026-10-17T08:00:00.000+00:00"
    },
    "request": {
      "method": "PUT",
      "url": "Condition/8fe97e6e-6711-4f03-8086-54f210b6ed91"
    }
  }, {
    "fullUrl": "https://madie.cms.gov/Coverage/5d0f6f88-e163-4085-9836-ba5cf41856cf",
    "resource": {
      "resourceType": "Coverage",
      "id": "5d0f6f88-e163-4085-9836-ba5cf41856cf",
      "meta": {
        "profile": [ "http://hl7.org/fhir/us/qicore/StructureDefinition/qicore-coverage" ]
      },
      "status": "active",
      "beneficiary": {
        "reference": "Patient/0623e2b5-f872-4574-934b-ef2e63d85b6d"
      },
      "payor": [ {
        "reference": "Organization/74fd5cfb-6cfc-4ea2-949c-28304e621c40"
      } ]
    },
    "request": {
      "method": "PUT",
      "url": "Coverage/5d0f6f88-e163-4085-9836-ba5cf41856cf"
    }
  }, {
    "fullUrl": "https://madie.cms.gov/Organization/74fd5cfb-6cfc-4ea2-949c-28304e621c40",
    "resource": {
      "resourceType": "Organization",
      "id": "74fd5cfb-6cfc-4ea2-949c-28304e621c40",
      "meta": {
        "profile": [ "http://hl7.org/fhir/us/qicore/StructureDefinition/qicore-organization" ]
      },
      "identifier": [ {
        "use": "temp",
        "system": "urn:oid:2.16.840.1.113883.4.4",
        "value": "21-3259825"
      } ],
      "active": true,
      "type": [ {
        "coding": [ {
          "system": "http://terminology.hl7.org/CodeSystem/organization-type",
          "code": "pay",
          "display": "Payer"
        } ]
      } ],
      "name": "Blue Cross Blue Shield of Texas",
      "telecom": [ {
        "system": "phone",
        "value": "(+1) 972-766-6900"
      } ],
      "address": [ {
        "use": "billing",
        "type": "postal",
        "line": [ "P.O. Box 660044" ],
        "city": "Dallas",
        "state": "TX",
        "postalCode": "75266-0044",
        "country": "USA"
      } ]
    },
    "request": {
      "method": "PUT",
      "url": "Organization/74fd5cfb-6cfc-4ea2-949c-28304e621c40"
    }
  }, {
    "fullUrl": "https://madie.cms.gov/Practitioner/30a137c7-1b23-448d-88fb-44beee99d914",
    "resource": {
      "resourceType": "Practitioner",
      "id": "30a137c7-1b23-448d-88fb-44beee99d914",
      "meta": {
        "profile": [ "http://hl7.org/fhir/us/qicore/StructureDefinition/qicore-practitioner" ]
      },
      "identifier": [ {
        "system": "http://hl7.org/fhir/sid/us-npi",
        "value": "1234567890"
      } ],
      "name": [ {
        "family": "Evil",
        "prefix": [ "Dr" ]
      } ]
    },
    "request": {
      "method": "PUT",
      "url": "Practitioner/30a137c7-1b23-448d-88fb-44beee99d914"
    }
  }, {
    "fullUrl": "https://madie.cms.gov/MeasureReport/157bcd3a-8dd6-4996-8f96-7cd6a3291299",
    "resource": {
      "resourceType": "MeasureReport",
      "id": "157bcd3a-8dd6-4996-8f96-7cd6a3291299",
      "meta": {
        "profile": [ "http://hl7.org/fhir/us/cqfmeasures/StructureDefinition/test-case-cqfm" ]
      },
      "contained": [ {
        "resourceType": "Parameters",
        "id": "86df73ad-627b-453e-8347-d90b086b955c-parameters",
        "parameter": [ {
          "name": "subject",
          "valueString": "0623e2b5-f872-4574-934b-ef2e63d85b6d"
        } ]
      } ],
      "extension": [ {
        "url": "http://hl7.org/fhir/StructureDefinition/cqf-inputParameters",
        "valueReference": {
          "reference": "#86df73ad-627b-453e-8347-d90b086b955c-parameters"
        }
      }, {
        "url": "http://hl7.org/fhir/us/cqfmeasures/StructureDefinition/cqfm-testCaseDescription",
        "valueMarkdown": "EGA 43 weeks; Not abnormal presentation on encounter Attr dx, gravida 1, \n"
      } ],
      "modifierExtension": [ {
        "url": "http://hl7.org/fhir/us/cqfmeasures/StructureDefinition/cqfm-isTestCase",
        "valueBoolean": true
      } ],
      "status": "complete",
      "type": "individual",
      "measure": "https://madie.cms.gov/Measure/CMS0334FHIRPCCesareanBirth",
      "period": {
        "start": "2026-01-01",
        "end": "2026-12-31"
      },
      "group": [ {
        "id": "Group_1",
        "population": [ {
          "id": "InitialPopulation_1",
          "code": {
            "coding": [ {
              "system": "http://terminology.hl7.org/CodeSystem/measure-population",
              "code": "initial-population",
              "display": "Initial Population"
            } ]
          },
          "count": 1
        }, {
          "id": "Denominator_1",
          "code": {
            "coding": [ {
              "system": "http://terminology.hl7.org/CodeSystem/measure-population",
              "code": "denominator",
              "display": "Denominator"
            } ]
          },
          "count": 1
        }, {
          "id": "DenominatorExclusion_1",
          "code": {
            "coding": [ {
              "system": "http://terminology.hl7.org/CodeSystem/measure-population",
              "code": "denominator-exclusion",
              "display": "Denominator Exclusion"
            } ]
          },
          "count": 0
        }, {
          "id": "Numerator_1",
          "code": {
            "coding": [ {
              "system": "http://terminology.hl7.org/CodeSystem/measure-population",
              "code": "numerator",
              "display": "Numerator"
            } ]
          },
          "count": 0
        } ],
        "measureScore": {
          "value": 0.0
        }
      } ],
      "evaluatedResource": [ {
        "reference": "Patient/0623e2b5-f872-4574-934b-ef2e63d85b6d"
      }, {
        "reference": "Observation/bc5e4d07-adba-45ce-bec1-55c0f42d3b8b"
      }, {
        "reference": "Observation/3a57cb4d-fff8-4e5a-85d5-6a872ba09ca5"
      }, {
        "reference": "Observation/4f0040e9-57b1-4d1c-88e0-87cdc69c4b76"
      }, {
        "reference": "Encounter/1c12b70a-945b-4029-aba5-e534c1a6a342"
      }, {
        "reference": "Procedure/20b18a1b-3e58-4d6d-b56d-de0ed380d455"
      }, {
        "reference": "Condition/8fe97e6e-6711-4f03-8086-54f210b6ed91"
      }, {
        "reference": "Coverage/5d0f6f88-e163-4085-9836-ba5cf41856cf"
      }, {
        "reference": "Organization/74fd5cfb-6cfc-4ea2-949c-28304e621c40"
      }, {
        "reference": "Practitioner/30a137c7-1b23-448d-88fb-44beee99d914"
      } ]
    },
    "request": {
      "method": "PUT",
      "url": "MeasureReport/157bcd3a-8dd6-4996-8f96-7cd6a3291299"
    }
  } ]
}