{
  "resourceType": "Bundle",
  "id": "b1f044ef3e654daa2265",
  "type": "transaction",
  "entry": [ {
    "fullUrl": "https://madie.cms.gov/Patient/99858043-4084-4412-b66c-dfb830097aa8",
    "resource": {
      "resourceType": "Patient",
      "id": "99858043-4084-4412-b66c-dfb830097aa8",
      "meta": {
        "profile": [ "http://hl7.org/fhir/us/qicore/StructureDefinition/qicore-patient" ]
      },
      "extension": [ {
        "url": "http://hl7.org/fhir/us/core/StructureDefinition/us-core-race",
        "extension": [ {
          "url": "ombCategory",
          "valueCoding": {
            "system": "urn:oid:2.16.840.1.113883.6.238",
            "code": "1002-5",
            "display": "American Indian or Alaska Native",
            "userSelected": true
          }
        }, {
          "url": "text",
          "valueString": "American Indian or Alaska Native"
        } ]
      }, {
        "url": "http://hl7.org/fhir/us/core/StructureDefinition/us-core-ethnicity",
        "extension": [ {
          "url": "ombCategory",
          "valueCoding": {
            "system": "urn:oid:2.16.840.1.113883.6.238",
            "code": "2135-2",
            "display": "Hispanic or Latino",
            "userSelected": true
          }
        }, {
          "url": "text",
          "valueString": "Hispanic or Latino"
        } ]
      }, {
        "url": "http://hl7.org/fhir/us/core/StructureDefinition/us-core-sex",
        "valueCode": "248152002"
      } ],
      "identifier": [ {
        "type": {
          "coding": [ {
            "system": "http://terminology.hl7.org/CodeSystem/v2-0203",
            "code": "MR"
          } ]
        },
        "system": "https://bonnie-fhir.healthit.gov/",
        "value": "b1f044ef3e654daa2265"
      } ],
      "name": [ {
        "family": "DENEXCL11FAIL",
        "given": [ "HospiceAssessmentAfterED" ]
      } ],
      "gender": "female",
      "birthDate": "1963-04-20"
    },
    "request": {
      "method": "PUT",
      "url": "Patient/99858043-4084-4412-b66c-dfb830097aa8"
    }
  }, {
    "fullUrl": "https://madie.cms.gov/Encounter/04c15563-f019-487f-b66e-8383983b1e29",
    "resource": {
      "resourceType": "Encounter",
      "id": "04c15563-f019-487f-b66e-8383983b1e29",
      "meta": {
        "profile": [ "http://hl7.org/fhir/us/qicore/StructureDefinition/qicore-encounter" ]
      },
      "status": "finished",
      "class": {
        "system": "http://terminology.hl7.org/CodeSystem/v3-ActCode",
        "code": "EMER",
        "display": "emergency",
        "userSelected": true
      },
      "type": [ {
        "coding": [ {
          "system": "http://snomed.info/sct",
          "version": "2020-09",
          "code": "4525004",
          "display": "Emergency department patient visit",
          "userSelected": true
        } ]
      } ],
      "subject": {
        "reference": "Patient/99858043-4084-4412-b66c-dfb830097aa8"
      },
      "period": {
        "start": "2026-10-09T05:00:00.000+00:00",
        "end": "2026-10-13T17:00:00.000+00:00"
      },
      "reasonCode": [ {
        "coding": [ {
          "system": "http://hl7.org/fhir/sid/icd-10-cm",
          "code": "I21.21",
          "display": "ST elevation (STEMI) myocardial infarction involving left circumflex coronary artery",
          "userSelected": true
        } ]
      } ]
    },
    "request": {
      "method": "PUT",
      "url": "Encounter/04c15563-f019-487f-b66e-8383983b1e29"
    }
  }, {
    "fullUrl": "https://madie.cms.gov/Observation/468c21b2-a8d9-4767-8685-fec9aff81ef2",
    "resource": {
      "resourceType": "Observation",
      "id": "468c21b2-a8d9-4767-8685-fec9aff81ef2",
      "meta": {
        "profile": [ "http://hl7.org/fhir/us/qicore/StructureDefinition/qicore-observation-screening-assessment" ]
      },
      "status": "final",
      "category": [ {
        "coding": [ {
          "system": "http://terminology.hl7.org/CodeSystem/observation-category",
          "code": "survey",
          "display": "Survey",
          "userSelected": true
        } ]
      } ],
      "code": {
        "coding": [ {
          "system": "http://loinc.org",
          "code": "45755-6",
          "display": "Hospice care [Minimum Data Set]",
          "userSelected": true
        } ]
      },
      "subject": {
        "reference": "Patient/99858043-4084-4412-b66c-dfb830097aa8"
      },
      "effectivePeriod": {
        "start": "2026-10-16T02:00:00.000+00:00",
        "end": "2026-10-16T06:00:00.000+00:00"
      },
      "valueCodeableConcept": {
        "coding": [ {
          "system": "http://snomed.info/sct",
          "code": "373066001",
          "display": "Yes (qualifier value)",
          "userSelected": true
        } ]
      }
    },
    "request": {
      "method": "PUT",
      "url": "Observation/468c21b2-a8d9-4767-8685-fec9aff81ef2"
    }
  }, {
    "fullUrl": "https://madie.cms.gov/MeasureReport/bb5b39f5-887c-4a1b-9c26-88615d21160d",
    "resource": {
      "resourceType": "MeasureReport",
      "id": "bb5b39f5-887c-4a1b-9c26-88615d21160d",
      "meta": {
        "profile": [ "http://hl7.org/fhir/us/cqfmeasures/StructureDefinition/test-case-cqfm" ]
      },
      "contained": [ {
        "resourceType": "Parameters",
        "id": "5a8c50f1-442f-497c-9483-f6e295347ba8-parameters",
        "parameter": [ {
          "name": "subject",
          "valueString": "99858043-4084-4412-b66c-dfb830097aa8"
        } ]
      } ],
      "extension": [ {
        "url": "http://hl7.org/fhir/StructureDefinition/cqf-inputParameters",
        "valueReference": {
          "reference": "#5a8c50f1-442f-497c-9483-f6e295347ba8-parameters"
        }
      }, {
        "url": "http://hl7.org/fhir/us/cqfmeasures/StructureDefinition/cqfm-testCaseDescription",
        "valueMarkdown": "Hospice Assessment after ED stay, but during the measurement period"
      } ],
      "modifierExtension": [ {
        "url": "http://hl7.org/fhir/us/cqfmeasures/StructureDefinition/cqfm-isTestCase",
        "valueBoolean": true
      } ],
      "status": "complete",
      "type": "individual",
      "measure": "https://madie.cms.gov/Measure/CMS996FHIRAptTxforSTEMI",
      "period": {
        "start": "2026-01-01",
        "end": "2026-12-31"
      },
      "group": [ {
        "id": "Group_1",
        "population": [ {
          "id": "InitialPopulation_1",
          "code": {
            "coding": [ {
              "system": "http://terminology.hl7.org/CodeSystem/measure-population",
              "code": "initial-population",
              "display": "Initial Population"
            } ]
          },
          "count": 1
        }, {
          "id": "Denominator_1",
          "code": {
            "coding": [ {
              "system": "http://terminology.hl7.org/CodeSystem/measure-population",
              "code": "denominator",
              "display": "Denominator"
            } ]
          },
          "count": 1
        }, {
          "id": "DenominatorExclusion_1",
          "code": {
            "coding": [ {
              "system": "http://terminology.hl7.org/CodeSystem/measure-population",
              "code": "denominator-exclusion",
              "display": "Denominator Exclusion"
            } ]
          },
          "count": 0
        }, {
          "id": "Numerator_1",
          "code": {
            "coding": [ {
              "system": "http://terminology.hl7.org/CodeSystem/measure-population",
              "code": "numerator",
              "display": "Numerator"
            } ]
          },
          "count": 0
        }, {
          "id": "DenominatorException_1",
          "code": {
            "coding": [ {
              "system": "http://terminology.hl7.org/CodeSystem/measure-population",
              "code": "denominator-exception",
              "display": "Denominator Exception"
            } ]
          },
          "count": 0
        } ],
        "measureScore": {
          "value": 0.0
        }
      } ],
      "evaluatedResource": [ {
        "reference": "Patient/99858043-4084-4412-b66c-dfb830097aa8"
      }, {
        "reference": "Encounter/04c15563-f019-487f-b66e-8383983b1e29"
      }, {
        "reference": "Observation/468c21b2-a8d9-4767-8685-fec9aff81ef2"
      } ]
    },
    "request": {
      "method": "PUT",
      "url": "MeasureReport/bb5b39f5-887c-4a1b-9c26-88615d21160d"
    }
  } ]
}