{
  "resourceType": "Bundle",
  "id": "63233588414ba67d4e1d1c34",
  "type": "transaction",
  "entry": [ {
    "fullUrl": "https://madie.cms.gov/Patient/f8bc4adf-30b1-405a-89a2-385b302e0106",
    "resource": {
      "resourceType": "Patient",
      "id": "f8bc4adf-30b1-405a-89a2-385b302e0106",
      "meta": {
        "profile": [ "http://hl7.org/fhir/us/qicore/StructureDefinition/qicore-patient" ]
      },
      "extension": [ {
        "url": "http://hl7.org/fhir/us/core/StructureDefinition/us-core-race",
        "extension": [ {
          "url": "ombCategory",
          "valueCoding": {
            "system": "urn:oid:2.16.840.1.113883.6.238",
            "code": "1002-5",
            "display": "American Indian or Alaska Native",
            "userSelected": true
          }
        }, {
          "url": "text",
          "valueString": "American Indian or Alaska Native"
        } ]
      }, {
        "url": "http://hl7.org/fhir/us/core/StructureDefinition/us-core-ethnicity",
        "extension": [ {
          "url": "ombCategory",
          "valueCoding": {
            "system": "urn:oid:2.16.840.1.113883.6.238",
            "code": "2135-2",
            "display": "Hispanic or Latino",
            "userSelected": true
          }
        }, {
          "url": "text",
          "valueString": "Hispanic or Latino"
        } ]
      } ],
      "identifier": [ {
        "system": "http://hospital.smarthealthit.org",
        "value": "999999999"
      } ],
      "name": [ {
        "family": "DENEXFail",
        "given": [ "OrderForPalliativeCareB4Enc" ]
      } ],
      "gender": "male",
      "birthDate": "2006-02-01"
    },
    "request": {
      "method": "PUT",
      "url": "Patient/f8bc4adf-30b1-405a-89a2-385b302e0106"
    }
  }, {
    "fullUrl": "https://madie.cms.gov/Encounter/289b3d5e-2fe7-4f37-b7a0-585605724696",
    "resource": {
      "resourceType": "Encounter",
      "id": "289b3d5e-2fe7-4f37-b7a0-585605724696",
      "meta": {
        "profile": [ "http://hl7.org/fhir/us/qicore/StructureDefinition/qicore-encounter" ]
      },
      "status": "finished",
      "class": {
        "system": "http://terminology.hl7.org/CodeSystem/v3-ActCode",
        "code": "IMP",
        "display": "inpatient encounter"
      },
      "type": [ {
        "coding": [ {
          "system": "http://snomed.info/sct",
          "code": "183452005",
          "display": "Emergency hospital admission (procedure)",
          "userSelected": true
        } ]
      } ],
      "subject": {
        "reference": "Patient/f8bc4adf-30b1-405a-89a2-385b302e0106"
      },
      "period": {
        "start": "2026-12-29T23:45:00.000+00:00",
        "end": "2026-12-31T23:59:00.000+00:00"
      }
    },
    "request": {
      "method": "PUT",
      "url": "Encounter/289b3d5e-2fe7-4f37-b7a0-585605724696"
    }
  }, {
    "fullUrl": "https://madie.cms.gov/MedicationRequest/d583f326-8348-435d-83c8-95dcd5f665bc",
    "resource": {
      "resourceType": "MedicationRequest",
      "id": "d583f326-8348-435d-83c8-95dcd5f665bc",
      "meta": {
        "profile": [ "http://hl7.org/fhir/us/qicore/StructureDefinition/qicore-medicationrequest" ]
      },
      "status": "active",
      "intent": "order",
      "category": [ {
        "coding": [ {
          "system": "http://terminology.hl7.org/CodeSystem/medicationrequest-category",
          "code": "discharge",
          "display": "Discharge",
          "userSelected": true
        } ]
      } ],
      "doNotPerform": false,
      "medicationCodeableConcept": {
        "coding": [ {
          "system": "http://www.nlm.nih.gov/research/umls/rxnorm",
          "code": "1298088",
          "display": "flurazepam hydrochloride 15 MG Oral Capsule",
          "userSelected": true
        } ]
      },
      "subject": {
        "reference": "Patient/f8bc4adf-30b1-405a-89a2-385b302e0106"
      },
      "authoredOn": "2026-12-31T23:59:00.000+00:00",
      "requester": {
        "reference": "Practitioner/1fa0d41f-eb2f-4a09-b0af-e96aa13348e0"
      }
    },
    "request": {
      "method": "PUT",
      "url": "MedicationRequest/d583f326-8348-435d-83c8-95dcd5f665bc"
    }
  }, {
    "fullUrl": "https://madie.cms.gov/Practitioner/1fa0d41f-eb2f-4a09-b0af-e96aa13348e0",
    "resource": {
      "resourceType": "Practitioner",
      "id": "1fa0d41f-eb2f-4a09-b0af-e96aa13348e0",
      "meta": {
        "profile": [ "http://hl7.org/fhir/us/qicore/StructureDefinition/qicore-practitioner" ]
      },
      "identifier": [ {
        "system": "http://hl7.org/fhir/sid/us-npi",
        "value": "9999999896"
      } ],
      "active": true,
      "name": [ {
        "family": "Ramires",
        "given": [ "Alma" ],
        "prefix": [ "Dr" ]
      } ],
      "address": [ {
        "use": "home",
        "line": [ "534 Erewhon St" ],
        "city": "Netherville",
        "state": "IN",
        "postalCode": "46131"
      } ],
      "qualification": [ {
        "identifier": [ {
          "system": "http://goodhealth.org/prIdentifier",
          "value": "12345"
        } ],
        "code": {
          "coding": [ {
            "system": "http://terminology.hl7.org/CodeSystem/v2-0360|2.7",
            "code": "BS",
            "display": "Bachelor of Science"
          } ],
          "text": "Bachelor of Science"
        },
        "period": {
          "start": "1995"
        },
        "issuer": {
          "display": "Example University"
        }
      } ]
    },
    "request": {
      "method": "PUT",
      "url": "Practitioner/1fa0d41f-eb2f-4a09-b0af-e96aa13348e0"
    }
  }, {
    "fullUrl": "https://madie.cms.gov/ServiceRequest/adca43ed-661e-488f-ac83-d8263ddce45f",
    "resource": {
      "resourceType": "ServiceRequest",
      "id": "adca43ed-661e-488f-ac83-d8263ddce45f",
      "meta": {
        "profile": [ "http://hl7.org/fhir/us/qicore/StructureDefinition/qicore-servicerequest" ]
      },
      "status": "active",
      "intent": "order",
      "code": {
        "coding": [ {
          "system": "http://snomed.info/sct",
          "code": "103735009",
          "display": "Palliative care (regime/therapy)",
          "userSelected": true
        } ]
      },
      "subject": {
        "reference": "Patient/f8bc4adf-30b1-405a-89a2-385b302e0106"
      },
      "authoredOn": "2026-12-28T23:55:00.000+00:00"
    },
    "request": {
      "method": "PUT",
      "url": "ServiceRequest/adca43ed-661e-488f-ac83-d8263ddce45f"
    }
  }, {
    "fullUrl": "https://madie.cms.gov/Coverage/6de6563e-8202-46df-acb1-ea68f7fb0141",
    "resource": {
      "resourceType": "Coverage",
      "id": "6de6563e-8202-46df-acb1-ea68f7fb0141",
      "meta": {
        "profile": [ "http://hl7.org/fhir/us/qicore/StructureDefinition/qicore-coverage" ]
      },
      "status": "active",
      "subscriberId": "523435",
      "beneficiary": {
        "reference": "Patient/f8bc4adf-30b1-405a-89a2-385b302e0106"
      },
      "relationship": {
        "coding": [ {
          "system": "http://terminology.hl7.org/CodeSystem/subscriber-relationship",
          "code": "self"
        } ]
      },
      "payor": [ {
        "reference": "Organization/57b695b3-d175-4be3-a5e8-ae28a42fcad9"
      } ]
    },
    "request": {
      "method": "PUT",
      "url": "Coverage/6de6563e-8202-46df-acb1-ea68f7fb0141"
    }
  }, {
    "fullUrl": "https://madie.cms.gov/Organization/57b695b3-d175-4be3-a5e8-ae28a42fcad9",
    "resource": {
      "resourceType": "Organization",
      "id": "57b695b3-d175-4be3-a5e8-ae28a42fcad9",
      "meta": {
        "profile": [ "http://hl7.org/fhir/us/qicore/StructureDefinition/qicore-organization" ]
      },
      "identifier": [ {
        "use": "temp",
        "system": "urn:oid:2.16.840.1.113883.4.4",
        "value": "21-3259825"
      } ],
      "active": true,
      "type": [ {
        "coding": [ {
          "system": "http://terminology.hl7.org/CodeSystem/organization-type",
          "code": "pay",
          "display": "Payer"
        } ]
      } ],
      "name": "Blue Cross Blue Shield of Texas",
      "telecom": [ {
        "system": "phone",
        "value": "(+1) 972-766-6900"
      } ],
      "address": [ {
        "use": "billing",
        "type": "postal",
        "line": [ "P.O. Box 660044" ],
        "city": "Dallas",
        "state": "TX",
        "postalCode": "75266-0044",
        "country": "USA"
      } ]
    },
    "request": {
      "method": "PUT",
      "url": "Organization/57b695b3-d175-4be3-a5e8-ae28a42fcad9"
    }
  }, {
    "fullUrl": "https://madie.cms.gov/MeasureReport/99d53280-5191-456c-901d-7dcf97851f13",
    "resource": {
      "resourceType": "MeasureReport",
      "id": "99d53280-5191-456c-901d-7dcf97851f13",
      "meta": {
        "profile": [ "http://hl7.org/fhir/us/cqfmeasures/StructureDefinition/test-case-cqfm" ]
      },
      "contained": [ {
        "resourceType": "Parameters",
        "id": "24f3642d-92b5-4799-bc29-5d44c6c38f77-parameters",
        "parameter": [ {
          "name": "subject",
          "valueString": "f8bc4adf-30b1-405a-89a2-385b302e0106"
        } ]
      } ],
      "extension": [ {
        "url": "http://hl7.org/fhir/StructureDefinition/cqf-inputParameters",
        "valueReference": {
          "reference": "#24f3642d-92b5-4799-bc29-5d44c6c38f77-parameters"
        }
      }, {
        "url": "http://hl7.org/fhir/us/cqfmeasures/StructureDefinition/cqfm-testCaseDescription",
        "valueMarkdown": "Encounter 12/29 - 12/31, age 18, opioids, order for palliative care 1 day before encounter (12-28T23:55)"
      } ],
      "modifierExtension": [ {
        "url": "http://hl7.org/fhir/us/cqfmeasures/StructureDefinition/cqfm-isTestCase",
        "valueBoolean": true
      } ],
      "status": "complete",
      "type": "individual",
      "measure": "https://madie.cms.gov/Measure/CMS506FHIRSafeUseofOpioids",
      "period": {
        "start": "2026-01-01",
        "end": "2026-12-31"
      },
      "group": [ {
        "id": "Group_1",
        "population": [ {
          "id": "InitialPopulation_1",
          "code": {
            "coding": [ {
              "system": "http://terminology.hl7.org/CodeSystem/measure-population",
              "code": "initial-population",
              "display": "Initial Population"
            } ]
          },
          "count": 1
        }, {
          "id": "Denominator_1",
          "code": {
            "coding": [ {
              "system": "http://terminology.hl7.org/CodeSystem/measure-population",
              "code": "denominator",
              "display": "Denominator"
            } ]
          },
          "count": 1
        }, {
          "id": "DenominatorExclusion_1",
          "code": {
            "coding": [ {
              "system": "http://terminology.hl7.org/CodeSystem/measure-population",
              "code": "denominator-exclusion",
              "display": "Denominator Exclusion"
            } ]
          },
          "count": 0
        }, {
          "id": "Numerator_1",
          "code": {
            "coding": [ {
              "system": "http://terminology.hl7.org/CodeSystem/measure-population",
              "code": "numerator",
              "display": "Numerator"
            } ]
          },
          "count": 0
        } ],
        "measureScore": {
          "value": 0.0
        }
      } ],
      "evaluatedResource": [ {
        "reference": "Patient/f8bc4adf-30b1-405a-89a2-385b302e0106"
      }, {
        "reference": "Encounter/289b3d5e-2fe7-4f37-b7a0-585605724696"
      }, {
        "reference": "MedicationRequest/d583f326-8348-435d-83c8-95dcd5f665bc"
      }, {
        "reference": "Practitioner/1fa0d41f-eb2f-4a09-b0af-e96aa13348e0"
      }, {
        "reference": "ServiceRequest/adca43ed-661e-488f-ac83-d8263ddce45f"
      }, {
        "reference": "Coverage/6de6563e-8202-46df-acb1-ea68f7fb0141"
      }, {
        "reference": "Organization/57b695b3-d175-4be3-a5e8-ae28a42fcad9"
      } ]
    },
    "request": {
      "method": "PUT",
      "url": "MeasureReport/99d53280-5191-456c-901d-7dcf97851f13"
    }
  } ]
}