{
  "resourceType": "Bundle",
  "id": "62a8967831a203bdc7237521",
  "type": "collection",
  "entry": [ {
    "fullUrl": "https://madie.cms.gov/Patient/9b637e49-9b8a-48c1-8304-ec5984bc47fa",
    "resource": {
      "resourceType": "Patient",
      "id": "9b637e49-9b8a-48c1-8304-ec5984bc47fa",
      "meta": {
        "profile": [ "http://hl7.org/fhir/us/qicore/StructureDefinition/qicore-patient" ]
      },
      "extension": [ {
        "url": "http://hl7.org/fhir/us/core/StructureDefinition/us-core-race",
        "extension": [ {
          "url": "ombCategory",
          "valueCoding": {
            "system": "urn:oid:2.16.840.1.113883.6.238",
            "code": "2106-3",
            "display": "White"
          }
        }, {
          "url": "text",
          "valueString": "White"
        } ]
      }, {
        "url": "http://hl7.org/fhir/us/core/StructureDefinition/us-core-ethnicity",
        "extension": [ {
          "url": "ombCategory",
          "valueCoding": {
            "system": "urn:oid:2.16.840.1.113883.6.238",
            "code": "2186-5",
            "display": "Not Hispanic or Latino"
          }
        }, {
          "url": "text",
          "valueString": "Not Hispanic or Latino"
        } ]
      }, {
        "url": "http://hl7.org/fhir/us/core/StructureDefinition/us-core-sex",
        "valueCode": "248153007"
      } ],
      "identifier": [ {
        "type": {
          "coding": [ {
            "system": "http://terminology.hl7.org/CodeSystem/v2-0203",
            "code": "MR"
          } ]
        },
        "system": "https://bonnie-fhir.healthit.gov/",
        "value": "4851351681610651"
      } ],
      "name": [ {
        "family": "IPPass",
        "given": [ "2ndUSS1minBefore12monthEdge" ]
      } ],
      "gender": "male",
      "birthDate": "1943-05-13"
    }
  }, {
    "fullUrl": "https://madie.cms.gov/Encounter/38d1b6e7-8820-4dfe-b395-bcdc44504692",
    "resource": {
      "resourceType": "Encounter",
      "id": "38d1b6e7-8820-4dfe-b395-bcdc44504692",
      "meta": {
        "profile": [ "http://hl7.org/fhir/us/qicore/StructureDefinition/qicore-encounter" ]
      },
      "status": "finished",
      "class": {
        "system": "http://terminology.hl7.org/CodeSystem/v3-ActCode",
        "code": "AMB",
        "display": "ambulatory"
      },
      "type": [ {
        "coding": [ {
          "system": "http://snomed.info/sct",
          "version": "http://snomed.info/sct/731000124108/version/20240301",
          "code": "185463005",
          "display": "Visit out of hours (procedure)"
        } ]
      } ],
      "subject": {
        "reference": "Patient/9b637e49-9b8a-48c1-8304-ec5984bc47fa"
      },
      "period": {
        "start": "2026-02-12T08:00:00.000+00:00",
        "end": "2026-02-12T08:15:00.000+00:00"
      }
    }
  }, {
    "fullUrl": "https://madie.cms.gov/Condition/1f8c0d89-b477-4bc9-99bb-178be84f11c7",
    "resource": {
      "resourceType": "Condition",
      "id": "1f8c0d89-b477-4bc9-99bb-178be84f11c7",
      "meta": {
        "profile": [ "http://hl7.org/fhir/us/qicore/StructureDefinition/qicore-condition-encounter-diagnosis" ]
      },
      "clinicalStatus": {
        "coding": [ {
          "system": "http://terminology.hl7.org/CodeSystem/condition-clinical",
          "code": "active",
          "display": "active"
        } ]
      },
      "verificationStatus": {
        "coding": [ {
          "system": "http://terminology.hl7.org/CodeSystem/condition-ver-status",
          "code": "confirmed",
          "display": "Confirmed"
        } ]
      },
      "category": [ {
        "coding": [ {
          "system": "http://terminology.hl7.org/CodeSystem/condition-category",
          "code": "encounter-diagnosis",
          "display": "Encounter Diagnosis"
        } ]
      } ],
      "code": {
        "coding": [ {
          "system": "http://hl7.org/fhir/sid/icd-10-cm",
          "version": "2024",
          "code": "N40.1",
          "display": "Benign prostatic hyperplasia with lower urinary tract symptoms"
        } ]
      },
      "subject": {
        "reference": "Patient/9b637e49-9b8a-48c1-8304-ec5984bc47fa"
      },
      "onsetPeriod": {
        "start": "2025-12-12T08:00:00.000+00:00"
      }
    }
  }, {
    "fullUrl": "https://madie.cms.gov/Observation/dcd4c5f7-8f89-4ead-b621-e51512e6a54f",
    "resource": {
      "resourceType": "Observation",
      "id": "dcd4c5f7-8f89-4ead-b621-e51512e6a54f",
      "meta": {
        "profile": [ "http://hl7.org/fhir/us/qicore/StructureDefinition/qicore-observation-screening-assessment" ]
      },
      "status": "final",
      "category": [ {
        "coding": [ {
          "system": "http://terminology.hl7.org/CodeSystem/observation-category",
          "code": "survey",
          "display": "Survey"
        } ]
      } ],
      "code": {
        "coding": [ {
          "system": "http://loinc.org",
          "version": "2.76",
          "code": "80976-4",
          "display": "International Prostate Symptom Score [IPSS]"
        } ]
      },
      "subject": {
        "reference": "Patient/9b637e49-9b8a-48c1-8304-ec5984bc47fa"
      },
      "effectiveDateTime": "2026-12-11T08:00:00.000+00:00",
      "valueInteger": 5
    }
  }, {
    "fullUrl": "https://madie.cms.gov/Observation/b611f6cf-dd18-484d-8b2b-bfe4a5c3d2e8",
    "resource": {
      "resourceType": "Observation",
      "id": "b611f6cf-dd18-484d-8b2b-bfe4a5c3d2e8",
      "meta": {
        "profile": [ "http://hl7.org/fhir/us/qicore/StructureDefinition/qicore-observation-screening-assessment" ]
      },
      "status": "final",
      "category": [ {
        "coding": [ {
          "system": "http://terminology.hl7.org/CodeSystem/observation-category",
          "code": "survey",
          "display": "Survey"
        } ]
      } ],
      "code": {
        "coding": [ {
          "system": "http://loinc.org",
          "version": "2.76",
          "code": "80976-4",
          "display": "International Prostate Symptom Score [IPSS]"
        } ]
      },
      "subject": {
        "reference": "Patient/9b637e49-9b8a-48c1-8304-ec5984bc47fa"
      },
      "effectiveDateTime": "2025-12-13T23:59:00.000+00:00",
      "valueInteger": 2
    }
  }, {
    "fullUrl": "https://madie.cms.gov/MeasureReport/67de1e35-5c86-463e-8924-bf5dd855bd1c",
    "resource": {
      "resourceType": "MeasureReport",
      "id": "67de1e35-5c86-463e-8924-bf5dd855bd1c",
      "meta": {
        "profile": [ "http://hl7.org/fhir/us/cqfmeasures/StructureDefinition/test-case-cqfm" ]
      },
      "contained": [ {
        "resourceType": "Parameters",
        "id": "0c2b3291-d3cc-416c-8665-d66f8734e1a5-parameters",
        "parameter": [ {
          "name": "subject",
          "valueString": "9b637e49-9b8a-48c1-8304-ec5984bc47fa"
        } ]
      } ],
      "extension": [ {
        "url": "http://hl7.org/fhir/StructureDefinition/cqf-inputParameters",
        "valueReference": {
          "reference": "#0c2b3291-d3cc-416c-8665-d66f8734e1a5-parameters"
        }
      }, {
        "url": "http://hl7.org/fhir/us/cqfmeasures/StructureDefinition/cqfm-testCaseDescription",
        "valueMarkdown": "Patient with BPH Dx and 2 USS assessments of which the second required assessment occurs exactly 1 minute before end of required 12 month window"
      } ],
      "modifierExtension": [ {
        "url": "http://hl7.org/fhir/us/cqfmeasures/StructureDefinition/cqfm-isTestCase",
        "valueBoolean": true
      } ],
      "status": "complete",
      "type": "individual",
      "measure": "https://madie.cms.gov/Measure/CMS771FHIRUrinarySymptomScoreBPH",
      "period": {
        "start": "2026-01-01",
        "end": "2026-12-31"
      },
      "group": [ {
        "id": "Group_1",
        "population": [ {
          "id": "InitialPopulation_1",
          "code": {
            "coding": [ {
              "system": "http://terminology.hl7.org/CodeSystem/measure-population",
              "code": "initial-population",
              "display": "Initial Population"
            } ]
          },
          "count": 1
        }, {
          "id": "Denominator_1",
          "code": {
            "coding": [ {
              "system": "http://terminology.hl7.org/CodeSystem/measure-population",
              "code": "denominator",
              "display": "Denominator"
            } ]
          },
          "count": 1
        }, {
          "id": "DenominatorExclusion_1",
          "code": {
            "coding": [ {
              "system": "http://terminology.hl7.org/CodeSystem/measure-population",
              "code": "denominator-exclusion",
              "display": "Denominator Exclusion"
            } ]
          },
          "count": 0
        }, {
          "id": "Numerator_1",
          "code": {
            "coding": [ {
              "system": "http://terminology.hl7.org/CodeSystem/measure-population",
              "code": "numerator",
              "display": "Numerator"
            } ]
          },
          "count": 0
        } ],
        "measureScore": {
          "value": 1.0
        }
      } ],
      "evaluatedResource": [ {
        "reference": "Patient/9b637e49-9b8a-48c1-8304-ec5984bc47fa"
      }, {
        "reference": "Encounter/38d1b6e7-8820-4dfe-b395-bcdc44504692"
      }, {
        "reference": "Condition/1f8c0d89-b477-4bc9-99bb-178be84f11c7"
      }, {
        "reference": "Observation/dcd4c5f7-8f89-4ead-b621-e51512e6a54f"
      }, {
        "reference": "Observation/b611f6cf-dd18-484d-8b2b-bfe4a5c3d2e8"
      } ]
    }
  } ]
}