{
  "resourceType": "Bundle",
  "id": "641d85ece79ed5094e9c4613",
  "type": "transaction",
  "entry": [ {
    "fullUrl": "https://madie.cms.gov/Patient/85e6225c-a9bb-4338-a228-297564e38c4d",
    "resource": {
      "resourceType": "Patient",
      "id": "85e6225c-a9bb-4338-a228-297564e38c4d",
      "meta": {
        "profile": [ "http://hl7.org/fhir/us/qicore/StructureDefinition/qicore-patient" ]
      },
      "text": {
        "status": "generated",
        "div": "<div xmlns=\"http://www.w3.org/1999/xhtml\"><div class=\"hapiHeaderText\">PsychoanalysisEncB4MP <b>IPPFAIL </b></div><table class=\"hapiPropertyTable\"><tbody><tr><td>Identifier</td><td>588ba77e42a7e60343a4ab3297f14a40</td></tr><tr><td>Date of birth</td><td><span>13 December 2003</span></td></tr></tbody></table></div>"
      },
      "extension": [ {
        "url": "http://hl7.org/fhir/us/core/StructureDefinition/us-core-race",
        "extension": [ {
          "url": "ombCategory",
          "valueCoding": {
            "system": "urn:oid:2.16.840.1.113883.6.238",
            "code": "2106-3",
            "display": "White",
            "userSelected": true
          }
        }, {
          "url": "text",
          "valueString": "White"
        } ]
      }, {
        "url": "http://hl7.org/fhir/us/core/StructureDefinition/us-core-ethnicity",
        "extension": [ {
          "url": "ombCategory",
          "valueCoding": {
            "system": "urn:oid:2.16.840.1.113883.6.238",
            "code": "2135-2",
            "display": "Hispanic or Latino",
            "userSelected": true
          }
        }, {
          "url": "text",
          "valueString": "Hispanic or Latino"
        } ]
      } ],
      "identifier": [ {
        "type": {
          "coding": [ {
            "system": "http://terminology.hl7.org/CodeSystem/v2-0203",
            "code": "MR"
          } ]
        },
        "system": "https://bonnie-fhir.healthit.gov/",
        "value": "641d85ece79ed5094e9c4613"
      } ],
      "active": true,
      "name": [ {
        "use": "usual",
        "family": "IPFail",
        "given": [ "EncB4MP" ]
      } ],
      "gender": "female",
      "birthDate": "2012-12-13"
    },
    "request": {
      "method": "PUT",
      "url": "Patient/85e6225c-a9bb-4338-a228-297564e38c4d"
    }
  }, {
    "fullUrl": "https://madie.cms.gov/Encounter/3f0ce31f-7c94-4e7d-bf1f-31d40a7defb7",
    "resource": {
      "resourceType": "Encounter",
      "id": "3f0ce31f-7c94-4e7d-bf1f-31d40a7defb7",
      "status": "finished",
      "class": {
        "system": "http://terminology.hl7.org/CodeSystem/v3-ActCode",
        "code": "AMB",
        "display": "ambulatory",
        "userSelected": true
      },
      "type": [ {
        "coding": [ {
          "system": "http://www.ama-assn.org/go/cpt",
          "code": "90845"
        } ]
      } ],
      "subject": {
        "reference": "Patient/85e6225c-a9bb-4338-a228-297564e38c4d"
      },
      "period": {
        "start": "2026-02-11T08:00:00.000+00:00",
        "end": "2026-02-11T08:15:00.000+00:00"
      },
      "length": {
        "value": 0.0,
        "unit": "days"
      },
      "reasonCode": [ {
        "coding": [ {
          "system": "http://snomed.info/sct",
          "version": "2022-09",
          "code": "10811161000119107",
          "display": "Major depressive disorder in mother complicating pregnancy (disorder)",
          "userSelected": true
        } ]
      } ],
      "diagnosis": [ {
        "condition": {
          "reference": "Condition/41d0bc35-4165-4db4-b4ed-1cf2cf2457eb"
        },
        "use": {
          "coding": [ {
            "system": "http://snomed.info/sct",
            "version": "2022-09",
            "code": "10811161000119107",
            "display": "Major depressive disorder in mother complicating pregnancy (disorder)",
            "userSelected": true
          } ]
        }
      } ]
    },
    "request": {
      "method": "PUT",
      "url": "Encounter/3f0ce31f-7c94-4e7d-bf1f-31d40a7defb7"
    }
  }, {
    "fullUrl": "https://madie.cms.gov/Condition/41d0bc35-4165-4db4-b4ed-1cf2cf2457eb",
    "resource": {
      "resourceType": "Condition",
      "id": "41d0bc35-4165-4db4-b4ed-1cf2cf2457eb",
      "category": [ {
        "coding": [ {
          "system": "http://terminology.hl7.org/CodeSystem/condition-category",
          "code": "encounter-diagnosis",
          "display": "encounter-diagnosis",
          "userSelected": true
        } ]
      } ],
      "code": {
        "coding": [ {
          "system": "http://snomed.info/sct",
          "version": "2022-09",
          "code": "10811121000119102",
          "display": "Major depressive disorder in mother complicating childbirth (disorder)",
          "userSelected": true
        } ]
      },
      "subject": {
        "reference": "Patient/85e6225c-a9bb-4338-a228-297564e38c4d"
      },
      "recordedDate": "2026-02-11T08:00:00.000+00:00"
    },
    "request": {
      "method": "PUT",
      "url": "Condition/41d0bc35-4165-4db4-b4ed-1cf2cf2457eb"
    }
  }, {
    "fullUrl": "https://madie.cms.gov/Procedure/45dbd5a2-ed30-4819-b88c-55ecae3dfa3d",
    "resource": {
      "resourceType": "Procedure",
      "id": "45dbd5a2-ed30-4819-b88c-55ecae3dfa3d",
      "status": "completed",
      "code": {
        "coding": [ {
          "system": "http://snomed.info/sct",
          "code": "225337009",
          "display": "Suicide risk assessment (procedure)",
          "userSelected": true
        } ]
      },
      "subject": {
        "reference": "Patient/85e6225c-a9bb-4338-a228-297564e38c4d"
      },
      "performedPeriod": {
        "start": "2026-02-10T08:10:00.000+00:00",
        "end": "2026-02-10T08:15:00.000+00:00"
      }
    },
    "request": {
      "method": "PUT",
      "url": "Procedure/45dbd5a2-ed30-4819-b88c-55ecae3dfa3d"
    }
  }, {
    "fullUrl": "https://madie.cms.gov/Coverage/0b9105c0-a602-4c59-87f1-af4512157bd1",
    "resource": {
      "resourceType": "Coverage",
      "id": "0b9105c0-a602-4c59-87f1-af4512157bd1",
      "meta": {
        "profile": [ "http://hl7.org/fhir/us/qicore/StructureDefinition/qicore-coverage" ]
      },
      "status": "active",
      "beneficiary": {
        "reference": "Patient/85e6225c-a9bb-4338-a228-297564e38c4d"
      },
      "payor": [ {
        "reference": "Organization/8df56fcc-ff82-4d59-bbac-70cf213a3536"
      } ]
    },
    "request": {
      "method": "PUT",
      "url": "Coverage/0b9105c0-a602-4c59-87f1-af4512157bd1"
    }
  }, {
    "fullUrl": "https://madie.cms.gov/Organization/8df56fcc-ff82-4d59-bbac-70cf213a3536",
    "resource": {
      "resourceType": "Organization",
      "id": "8df56fcc-ff82-4d59-bbac-70cf213a3536",
      "meta": {
        "profile": [ "http://hl7.org/fhir/us/qicore/StructureDefinition/qicore-organization" ]
      },
      "identifier": [ {
        "use": "temp",
        "system": "urn:oid:2.16.840.1.113883.4.4",
        "value": "21-3259825"
      } ],
      "active": true,
      "type": [ {
        "coding": [ {
          "system": "http://terminology.hl7.org/CodeSystem/organization-type",
          "code": "pay",
          "display": "Payer"
        } ]
      } ],
      "name": "Blue Cross Blue Shield of Texas",
      "telecom": [ {
        "system": "phone",
        "value": "(+1) 972-766-6900"
      } ],
      "address": [ {
        "use": "billing",
        "type": "postal",
        "line": [ "P.O. Box 660044" ],
        "city": "Dallas",
        "state": "TX",
        "postalCode": "75266-0044",
        "country": "USA"
      } ]
    },
    "request": {
      "method": "PUT",
      "url": "Organization/8df56fcc-ff82-4d59-bbac-70cf213a3536"
    }
  }, {
    "fullUrl": "https://madie.cms.gov/Practitioner/de4edd6b-32b5-49be-91c6-c09f26d1fffa",
    "resource": {
      "resourceType": "Practitioner",
      "id": "de4edd6b-32b5-49be-91c6-c09f26d1fffa",
      "identifier": [ {
        "system": "http://hl7.org/fhir/sid/us-npi",
        "value": "123456"
      } ],
      "name": [ {
        "family": "Evil",
        "prefix": [ "Dr" ]
      } ]
    },
    "request": {
      "method": "PUT",
      "url": "Practitioner/de4edd6b-32b5-49be-91c6-c09f26d1fffa"
    }
  }, {
    "fullUrl": "https://madie.cms.gov/MeasureReport/89005c1a-09a3-421d-aa89-d44837ae5904",
    "resource": {
      "resourceType": "MeasureReport",
      "id": "89005c1a-09a3-421d-aa89-d44837ae5904",
      "meta": {
        "profile": [ "http://hl7.org/fhir/us/cqfmeasures/StructureDefinition/test-case-cqfm" ]
      },
      "contained": [ {
        "resourceType": "Parameters",
        "id": "2d662ddd-8c59-46c5-8c66-c16d33347b97-parameters",
        "parameter": [ {
          "name": "subject",
          "valueString": "85e6225c-a9bb-4338-a228-297564e38c4d"
        } ]
      } ],
      "extension": [ {
        "url": "http://hl7.org/fhir/StructureDefinition/cqf-inputParameters",
        "valueReference": {
          "reference": "#2d662ddd-8c59-46c5-8c66-c16d33347b97-parameters"
        }
      }, {
        "url": "http://hl7.org/fhir/us/cqfmeasures/StructureDefinition/cqfm-testCaseDescription",
        "valueMarkdown": "Patient with psychotherapy encounter before MP"
      } ],
      "modifierExtension": [ {
        "url": "http://hl7.org/fhir/us/cqfmeasures/StructureDefinition/cqfm-isTestCase",
        "valueBoolean": true
      } ],
      "status": "complete",
      "type": "individual",
      "measure": "https://madie.cms.gov/Measure/CMS177FHIRChildMDDSuicideAssmt",
      "period": {
        "start": "2026-01-01",
        "end": "2026-12-31"
      },
      "group": [ {
        "id": "Group_1",
        "population": [ {
          "id": "InitialPopulation_1",
          "code": {
            "coding": [ {
              "system": "http://terminology.hl7.org/CodeSystem/measure-population",
              "code": "initial-population",
              "display": "Initial Population"
            } ]
          },
          "count": 0
        }, {
          "id": "Denominator_1",
          "code": {
            "coding": [ {
              "system": "http://terminology.hl7.org/CodeSystem/measure-population",
              "code": "denominator",
              "display": "Denominator"
            } ]
          },
          "count": 0
        }, {
          "id": "Numerator_1",
          "code": {
            "coding": [ {
              "system": "http://terminology.hl7.org/CodeSystem/measure-population",
              "code": "numerator",
              "display": "Numerator"
            } ]
          },
          "count": 0
        } ],
        "measureScore": {
          "value": 0.0
        }
      } ],
      "evaluatedResource": [ {
        "reference": "Patient/85e6225c-a9bb-4338-a228-297564e38c4d"
      }, {
        "reference": "Encounter/3f0ce31f-7c94-4e7d-bf1f-31d40a7defb7"
      }, {
        "reference": "Condition/41d0bc35-4165-4db4-b4ed-1cf2cf2457eb"
      }, {
        "reference": "Procedure/45dbd5a2-ed30-4819-b88c-55ecae3dfa3d"
      }, {
        "reference": "Coverage/0b9105c0-a602-4c59-87f1-af4512157bd1"
      }, {
        "reference": "Organization/8df56fcc-ff82-4d59-bbac-70cf213a3536"
      }, {
        "reference": "Practitioner/de4edd6b-32b5-49be-91c6-c09f26d1fffa"
      } ]
    },
    "request": {
      "method": "PUT",
      "url": "MeasureReport/89005c1a-09a3-421d-aa89-d44837ae5904"
    }
  } ]
}