{
  "resourceType": "Bundle",
  "id": "6129133302c62a011f2e654a",
  "type": "transaction",
  "entry": [ {
    "fullUrl": "https://madie.cms.gov/Patient/2e0b5b75-22d9-4607-b8fe-f31c86620554",
    "resource": {
      "resourceType": "Patient",
      "id": "2e0b5b75-22d9-4607-b8fe-f31c86620554",
      "meta": {
        "profile": [ "http://hl7.org/fhir/us/qicore/StructureDefinition/qicore-patient" ]
      },
      "text": {
        "status": "generated",
        "div": "<div xmlns=\"http://www.w3.org/1999/xhtml\"><div class=\"hapiHeaderText\">PrinDxIschemicStk <b>DENOMPASS </b></div><table class=\"hapiPropertyTable\"><tbody><tr><td>Identifier</td><td>18194897e45f8ffb9878afc760b9d205</td></tr><tr><td>Date of birth</td><td><span>20 August 1994</span></td></tr></tbody></table></div>"
      },
      "extension": [ {
        "url": "http://hl7.org/fhir/us/core/StructureDefinition/us-core-race",
        "extension": [ {
          "url": "ombCategory",
          "valueCoding": {
            "system": "urn:oid:2.16.840.1.113883.6.238",
            "code": "1002-5",
            "display": "American Indian or Alaska Native",
            "userSelected": true
          }
        }, {
          "url": "text",
          "valueString": "American Indian or Alaska Native"
        } ]
      }, {
        "url": "http://hl7.org/fhir/us/core/StructureDefinition/us-core-ethnicity",
        "extension": [ {
          "url": "ombCategory",
          "valueCoding": {
            "system": "urn:oid:2.16.840.1.113883.6.238",
            "code": "2135-2",
            "display": "Hispanic or Latino",
            "userSelected": true
          }
        }, {
          "url": "text",
          "valueString": "Hispanic or Latino"
        } ]
      } ],
      "identifier": [ {
        "type": {
          "coding": [ {
            "system": "http://terminology.hl7.org/CodeSystem/v2-0203",
            "code": "MR"
          } ]
        },
        "system": "https://bonnie-fhir.healthit.gov/",
        "value": "6129133302c62a011f2e654a"
      } ],
      "active": true,
      "name": [ {
        "use": "usual",
        "family": "DENOMPass",
        "given": [ "PrinDxIschemicStk" ]
      } ],
      "gender": "male",
      "birthDate": "2004-08-20"
    },
    "request": {
      "method": "PUT",
      "url": "Patient/2e0b5b75-22d9-4607-b8fe-f31c86620554"
    }
  }, {
    "fullUrl": "https://madie.cms.gov/Encounter/a6463eae-4caa-4841-87f0-a77e725b26f6",
    "resource": {
      "resourceType": "Encounter",
      "id": "a6463eae-4caa-4841-87f0-a77e725b26f6",
      "meta": {
        "profile": [ "http://hl7.org/fhir/us/qicore/StructureDefinition/qicore-encounter" ]
      },
      "status": "finished",
      "class": {
        "system": "http://terminology.hl7.org/CodeSystem/v3-ActCode",
        "code": "IMP",
        "display": "inpatient encounter",
        "userSelected": true
      },
      "type": [ {
        "coding": [ {
          "system": "http://snomed.info/sct",
          "code": "32485007"
        } ]
      } ],
      "subject": {
        "reference": "Patient/2e0b5b75-22d9-4607-b8fe-f31c86620554"
      },
      "period": {
        "start": "2026-08-21T00:00:00.000+00:00",
        "end": "2026-12-19T08:15:00.000+00:00"
      },
      "length": {
        "value": 120,
        "unit": "days"
      },
      "diagnosis": [ {
        "condition": {
          "reference": "Condition/f81f7a70-3d43-489e-8d72-4afb706b56d0"
        },
        "use": {
          "coding": [ {
            "system": "http://terminology.hl7.org/CodeSystem/diagnosis-role",
            "code": "billing",
            "display": "Billing"
          } ]
        },
        "rank": 1
      } ]
    },
    "request": {
      "method": "PUT",
      "url": "Encounter/a6463eae-4caa-4841-87f0-a77e725b26f6"
    }
  }, {
    "fullUrl": "https://madie.cms.gov/Condition/f81f7a70-3d43-489e-8d72-4afb706b56d0",
    "resource": {
      "resourceType": "Condition",
      "id": "f81f7a70-3d43-489e-8d72-4afb706b56d0",
      "meta": {
        "profile": [ "http://hl7.org/fhir/us/qicore/StructureDefinition/qicore-condition" ]
      },
      "clinicalStatus": {
        "coding": [ {
          "system": "http://terminology.hl7.org/CodeSystem/condition-clinical",
          "code": "active"
        } ]
      },
      "verificationStatus": {
        "coding": [ {
          "system": "http://terminology.hl7.org/CodeSystem/condition-ver-status",
          "code": "confirmed"
        } ]
      },
      "category": [ {
        "coding": [ {
          "system": "http://terminology.hl7.org/CodeSystem/condition-category",
          "code": "encounter-diagnosis",
          "display": "Encounter Diagnosis"
        } ]
      } ],
      "code": {
        "coding": [ {
          "system": "http://snomed.info/sct",
          "version": "2020-09",
          "code": "111297002",
          "display": "Nonparalytic stroke (disorder)",
          "userSelected": true
        } ]
      },
      "subject": {
        "reference": "Patient/2e0b5b75-22d9-4607-b8fe-f31c86620554"
      },
      "recordedDate": "2026-11-23T08:00:00.000+00:00"
    },
    "request": {
      "method": "PUT",
      "url": "Condition/f81f7a70-3d43-489e-8d72-4afb706b56d0"
    }
  }, {
    "fullUrl": "https://madie.cms.gov/claim/5ca62962b8484628b8de1ec5",
    "resource": {
      "resourceType": "Claim",
      "id": "5ca62962b8484628b8de1ec5",
      "meta": {
        "profile": [ "http://hl7.org/fhir/us/qicore/StructureDefinition/qicore-claim" ]
      },
      "status": "active",
      "type": {
        "coding": [ {
          "system": "http://terminology.hl7.org/CodeSystem/claim-type",
          "code": "institutional"
        } ]
      },
      "use": "claim",
      "patient": {
        "reference": "Patient/d170a0a8-b5ad-4303-b6df-e304dd5f92ad"
      },
      "created": "2026-12-01",
      "provider": {
        "reference": "Practitioner/practitioner-123456"
      },
      "priority": {
        "coding": [ {
          "system": "http://terminology.hl7.org/CodeSystem/processpriority",
          "code": "normal"
        } ]
      },
      "diagnosis": [ {
        "sequence": 1,
        "diagnosisCodeableConcept": {
          "coding": [ {
            "system": "http://hl7.org/fhir/sid/icd-10-cm",
            "code": "I63.00"
          } ]
        },
        "type": [ {
          "coding": [ {
            "system": "http://terminology.hl7.org/CodeSystem/ex-diagnosistype",
            "code": "principal"
          } ]
        } ]
      } ],
      "insurance": [ {
        "sequence": 1,
        "focal": true,
        "coverage": {
          "reference": "Coverage/5c954112b8484612c37f277d"
        }
      } ],
      "item": [ {
        "sequence": 1,
        "diagnosisSequence": [ 1 ],
        "productOrService": {
          "coding": [ {
            "system": "http://terminology.hl7.org/CodeSystem/ex-USCLS",
            "code": "99555"
          } ]
        },
        "encounter": [ {
          "reference": "Encounter/a6463eae-4caa-4841-87f0-a77e725b26f6"
        } ]
      } ]
    },
    "request": {
      "method": "PUT",
      "url": "Claim/5ca62962b8484628b8de1ec5"
    }
  }, {
    "fullUrl": "https://madie.cms.gov/Coverage/0418fa4c-2df4-4d7d-a6df-b4db1fedded0",
    "resource": {
      "resourceType": "Coverage",
      "id": "0418fa4c-2df4-4d7d-a6df-b4db1fedded0",
      "meta": {
        "profile": [ "http://hl7.org/fhir/us/qicore/StructureDefinition/qicore-coverage" ]
      },
      "status": "active",
      "beneficiary": {
        "reference": "Patient/2e0b5b75-22d9-4607-b8fe-f31c86620554"
      },
      "payor": [ {
        "reference": "Organization/b52f7705-a206-4dae-8698-93887e9a0ec1"
      } ]
    },
    "request": {
      "method": "PUT",
      "url": "Coverage/0418fa4c-2df4-4d7d-a6df-b4db1fedded0"
    }
  }, {
    "fullUrl": "https://madie.cms.gov/Organization/b52f7705-a206-4dae-8698-93887e9a0ec1",
    "resource": {
      "resourceType": "Organization",
      "id": "b52f7705-a206-4dae-8698-93887e9a0ec1",
      "meta": {
        "profile": [ "http://hl7.org/fhir/us/qicore/StructureDefinition/qicore-organization" ]
      },
      "identifier": [ {
        "use": "temp",
        "system": "urn:oid:2.16.840.1.113883.4.4",
        "value": "21-3259825"
      } ],
      "active": true,
      "type": [ {
        "coding": [ {
          "system": "http://terminology.hl7.org/CodeSystem/organization-type",
          "code": "pay",
          "display": "Payer"
        } ]
      } ],
      "name": "Blue Cross Blue Shield of Texas",
      "telecom": [ {
        "system": "phone",
        "value": "(+1) 972-766-6900"
      } ],
      "address": [ {
        "use": "billing",
        "type": "postal",
        "line": [ "P.O. Box 660044" ],
        "city": "Dallas",
        "state": "TX",
        "postalCode": "75266-0044",
        "country": "USA"
      } ]
    },
    "request": {
      "method": "PUT",
      "url": "Organization/b52f7705-a206-4dae-8698-93887e9a0ec1"
    }
  }, {
    "fullUrl": "https://madie.cms.gov/MeasureReport/b8cea19f-d373-412b-b698-b2dd97e6b8dd",
    "resource": {
      "resourceType": "MeasureReport",
      "id": "b8cea19f-d373-412b-b698-b2dd97e6b8dd",
      "meta": {
        "profile": [ "http://hl7.org/fhir/us/cqfmeasures/StructureDefinition/test-case-cqfm" ]
      },
      "contained": [ {
        "resourceType": "Parameters",
        "id": "dc77850b-5797-4dbb-a5b2-93b31d40ffc6-parameters",
        "parameter": [ {
          "name": "subject",
          "valueString": "2e0b5b75-22d9-4607-b8fe-f31c86620554"
        } ]
      } ],
      "extension": [ {
        "url": "http://hl7.org/fhir/StructureDefinition/cqf-inputParameters",
        "valueReference": {
          "reference": "#dc77850b-5797-4dbb-a5b2-93b31d40ffc6-parameters"
        }
      }, {
        "url": "http://hl7.org/fhir/us/cqfmeasures/StructureDefinition/cqfm-testCaseDescription",
        "valueMarkdown": "Patient turns 18 day before admission with Non-Elective Inpatient Encounter ends during MP with principal diagnosis of stroke"
      } ],
      "modifierExtension": [ {
        "url": "http://hl7.org/fhir/us/cqfmeasures/StructureDefinition/cqfm-isTestCase",
        "valueBoolean": true
      } ],
      "status": "complete",
      "type": "individual",
      "measure": "https://madie.cms.gov/Measure/CMS104FHIRSTKDCAntithrombotic",
      "period": {
        "start": "2026-01-01",
        "end": "2026-12-31"
      },
      "group": [ {
        "id": "Group_1",
        "population": [ {
          "id": "InitialPopulation_1",
          "code": {
            "coding": [ {
              "system": "http://terminology.hl7.org/CodeSystem/measure-population",
              "code": "initial-population",
              "display": "Initial Population"
            } ]
          },
          "count": 1
        }, {
          "id": "Denominator_1",
          "code": {
            "coding": [ {
              "system": "http://terminology.hl7.org/CodeSystem/measure-population",
              "code": "denominator",
              "display": "Denominator"
            } ]
          },
          "count": 1
        }, {
          "id": "DenominatorExclusion_1",
          "code": {
            "coding": [ {
              "system": "http://terminology.hl7.org/CodeSystem/measure-population",
              "code": "denominator-exclusion",
              "display": "Denominator Exclusion"
            } ]
          },
          "count": 0
        }, {
          "id": "Numerator_1",
          "code": {
            "coding": [ {
              "system": "http://terminology.hl7.org/CodeSystem/measure-population",
              "code": "numerator",
              "display": "Numerator"
            } ]
          },
          "count": 0
        }, {
          "id": "DenominatorException_1",
          "code": {
            "coding": [ {
              "system": "http://terminology.hl7.org/CodeSystem/measure-population",
              "code": "denominator-exception",
              "display": "Denominator Exception"
            } ]
          },
          "count": 0
        } ],
        "measureScore": {
          "value": 0.0
        }
      } ],
      "evaluatedResource": [ {
        "reference": "Patient/2e0b5b75-22d9-4607-b8fe-f31c86620554"
      }, {
        "reference": "Encounter/a6463eae-4caa-4841-87f0-a77e725b26f6"
      }, {
        "reference": "Condition/f81f7a70-3d43-489e-8d72-4afb706b56d0"
      }, {
        "reference": "Claim/5ca62962b8484628b8de1ec5"
      }, {
        "reference": "Coverage/0418fa4c-2df4-4d7d-a6df-b4db1fedded0"
      }, {
        "reference": "Organization/b52f7705-a206-4dae-8698-93887e9a0ec1"
      } ]
    },
    "request": {
      "method": "PUT",
      "url": "MeasureReport/b8cea19f-d373-412b-b698-b2dd97e6b8dd"
    }
  } ]
}