{
  "resourceType": "Bundle",
  "id": "641369f44b11b147841ab8ae",
  "type": "transaction",
  "entry": [ {
    "fullUrl": "https://madie.cms.gov/Patient/1e8e8baf-0c27-42b2-93ad-5426418552c7",
    "resource": {
      "resourceType": "Patient",
      "id": "1e8e8baf-0c27-42b2-93ad-5426418552c7",
      "meta": {
        "profile": [ "http://hl7.org/fhir/us/qicore/StructureDefinition/qicore-patient" ]
      },
      "extension": [ {
        "url": "http://hl7.org/fhir/us/core/StructureDefinition/us-core-race",
        "extension": [ {
          "url": "ombCategory",
          "valueCoding": {
            "system": "urn:oid:2.16.840.1.113883.6.238",
            "code": "2076-8",
            "display": "Native Hawaiian or Other Pacific Islander",
            "userSelected": true
          }
        }, {
          "url": "text",
          "valueString": "Native Hawaiian or Other Pacific Islander"
        } ]
      }, {
        "url": "http://hl7.org/fhir/us/core/StructureDefinition/us-core-ethnicity",
        "extension": [ {
          "url": "ombCategory",
          "valueCoding": {
            "system": "urn:oid:2.16.840.1.113883.6.238",
            "code": "2186-5",
            "display": "Not Hispanic or Latino",
            "userSelected": true
          }
        }, {
          "url": "text",
          "valueString": "Not Hispanic or Latino"
        } ]
      } ],
      "identifier": [ {
        "type": {
          "coding": [ {
            "system": "http://terminology.hl7.org/CodeSystem/v2-0203",
            "code": "MR"
          } ]
        },
        "system": "https://bonnie-fhir.healthit.gov/",
        "value": "641369f44b11b147841ab8ae"
      } ],
      "name": [ {
        "family": "DENEXPass",
        "given": [ "HospEncoLastDayOfMP" ]
      } ],
      "gender": "male",
      "birthDate": "1965-03-22"
    },
    "request": {
      "method": "PUT",
      "url": "Patient/1e8e8baf-0c27-42b2-93ad-5426418552c7"
    }
  }, {
    "fullUrl": "https://madie.cms.gov/Condition/cc3d81e7-d870-4ccd-bb4a-b32b378d9cff",
    "resource": {
      "resourceType": "Condition",
      "id": "cc3d81e7-d870-4ccd-bb4a-b32b378d9cff",
      "meta": {
        "profile": [ "http://hl7.org/fhir/us/qicore/StructureDefinition/qicore-condition-encounter-diagnosis" ]
      },
      "clinicalStatus": {
        "coding": [ {
          "system": "http://terminology.hl7.org/CodeSystem/condition-clinical",
          "code": "active",
          "display": "active",
          "userSelected": true
        } ]
      },
      "category": [ {
        "coding": [ {
          "system": "http://terminology.hl7.org/CodeSystem/condition-category",
          "code": "encounter-diagnosis",
          "display": "Encounter Diagnosis",
          "userSelected": true
        } ]
      } ],
      "code": {
        "coding": [ {
          "system": "http://snomed.info/sct",
          "version": "2021-09",
          "code": "102781000119107",
          "display": "Sensory neuropathy due to type 1 diabetes mellitus (disorder)",
          "userSelected": true
        } ]
      },
      "subject": {
        "reference": "Patient/1e8e8baf-0c27-42b2-93ad-5426418552c7"
      },
      "onsetDateTime": "2024-03-01T08:00:00.000+00:00"
    },
    "request": {
      "method": "PUT",
      "url": "Condition/cc3d81e7-d870-4ccd-bb4a-b32b378d9cff"
    }
  }, {
    "fullUrl": "https://madie.cms.gov/Encounter/abdd41ca-fff6-4a64-9d75-58a5e86571db",
    "resource": {
      "resourceType": "Encounter",
      "id": "abdd41ca-fff6-4a64-9d75-58a5e86571db",
      "meta": {
        "profile": [ "http://hl7.org/fhir/us/qicore/StructureDefinition/qicore-encounter" ]
      },
      "status": "finished",
      "class": {
        "system": "http://terminology.hl7.org/CodeSystem/v3-ActCode",
        "code": "AMB",
        "display": "ambulatory",
        "userSelected": true
      },
      "type": [ {
        "coding": [ {
          "system": "http://snomed.info/sct",
          "version": "2021-09",
          "code": "444971000124105",
          "display": "Annual wellness visit (procedure)",
          "userSelected": true
        } ]
      } ],
      "subject": {
        "reference": "Patient/1e8e8baf-0c27-42b2-93ad-5426418552c7"
      },
      "period": {
        "start": "2026-03-14T08:00:00.000+00:00",
        "end": "2026-03-14T08:15:00.000+00:00"
      }
    },
    "request": {
      "method": "PUT",
      "url": "Encounter/abdd41ca-fff6-4a64-9d75-58a5e86571db"
    }
  }, {
    "fullUrl": "https://madie.cms.gov/Encounter/ffebc5f8-f891-4bcb-b724-68efac4d0cd2",
    "resource": {
      "resourceType": "Encounter",
      "id": "ffebc5f8-f891-4bcb-b724-68efac4d0cd2",
      "meta": {
        "profile": [ "http://hl7.org/fhir/us/qicore/StructureDefinition/qicore-encounter" ]
      },
      "status": "finished",
      "class": {
        "system": "http://www.nlm.nih.gov/research/umls/hcpcs",
        "code": "G9473",
        "display": "Services performed by chaplain in the hospice setting, each 15 minutes",
        "userSelected": true
      },
      "type": [ {
        "coding": [ {
          "system": "http://snomed.info/sct",
          "version": "2021-09",
          "code": "183919006",
          "display": "Urgent admission to hospice (procedure)",
          "userSelected": true
        } ]
      } ],
      "subject": {
        "reference": "Patient/1e8e8baf-0c27-42b2-93ad-5426418552c7"
      },
      "period": {
        "start": "2026-12-31T08:00:00.000+00:00",
        "end": "2026-12-31T08:15:00.000+00:00"
      }
    },
    "request": {
      "method": "PUT",
      "url": "Encounter/ffebc5f8-f891-4bcb-b724-68efac4d0cd2"
    }
  }, {
    "fullUrl": "https://madie.cms.gov/MeasureReport/ff08d01e-b626-4f5b-8235-d0ab4883a313",
    "resource": {
      "resourceType": "MeasureReport",
      "id": "ff08d01e-b626-4f5b-8235-d0ab4883a313",
      "meta": {
        "profile": [ "http://hl7.org/fhir/us/cqfmeasures/StructureDefinition/test-case-cqfm" ]
      },
      "contained": [ {
        "resourceType": "Parameters",
        "id": "14d1d8d8-57fb-47e7-bf97-43c3b22355ed-parameters",
        "parameter": [ {
          "name": "subject",
          "valueString": "1e8e8baf-0c27-42b2-93ad-5426418552c7"
        } ]
      } ],
      "extension": [ {
        "url": "http://hl7.org/fhir/StructureDefinition/cqf-inputParameters",
        "valueReference": {
          "reference": "#14d1d8d8-57fb-47e7-bf97-43c3b22355ed-parameters"
        }
      }, {
        "url": "http://hl7.org/fhir/us/cqfmeasures/StructureDefinition/cqfm-testCaseDescription",
        "valueMarkdown": "This patient is 71 years old with a qualifying encounter and active diabetes diagnosis, with a hospice encounter on the last day of the MP. This case tests the denominator exclusion criteria."
      } ],
      "modifierExtension": [ {
        "url": "http://hl7.org/fhir/us/cqfmeasures/StructureDefinition/cqfm-isTestCase",
        "valueBoolean": true
      } ],
      "status": "complete",
      "type": "individual",
      "measure": "https://madie.cms.gov/Measure/CMS951FHIRKidneyHealthEval",
      "period": {
        "start": "2026-01-01",
        "end": "2026-12-31"
      },
      "group": [ {
        "id": "Group_1",
        "population": [ {
          "id": "InitialPopulation_1",
          "code": {
            "coding": [ {
              "system": "http://terminology.hl7.org/CodeSystem/measure-population",
              "code": "initial-population",
              "display": "Initial Population"
            } ]
          },
          "count": 1
        }, {
          "id": "Denominator_1",
          "code": {
            "coding": [ {
              "system": "http://terminology.hl7.org/CodeSystem/measure-population",
              "code": "denominator",
              "display": "Denominator"
            } ]
          },
          "count": 1
        }, {
          "id": "DenominatorExclusion_1",
          "code": {
            "coding": [ {
              "system": "http://terminology.hl7.org/CodeSystem/measure-population",
              "code": "denominator-exclusion",
              "display": "Denominator Exclusion"
            } ]
          },
          "count": 1
        }, {
          "id": "Numerator_1",
          "code": {
            "coding": [ {
              "system": "http://terminology.hl7.org/CodeSystem/measure-population",
              "code": "numerator",
              "display": "Numerator"
            } ]
          },
          "count": 0
        } ],
        "measureScore": {
          "value": 1.0
        }
      } ],
      "evaluatedResource": [ {
        "reference": "Patient/1e8e8baf-0c27-42b2-93ad-5426418552c7"
      }, {
        "reference": "Condition/cc3d81e7-d870-4ccd-bb4a-b32b378d9cff"
      }, {
        "reference": "Encounter/abdd41ca-fff6-4a64-9d75-58a5e86571db"
      }, {
        "reference": "Encounter/ffebc5f8-f891-4bcb-b724-68efac4d0cd2"
      } ]
    },
    "request": {
      "method": "PUT",
      "url": "MeasureReport/ff08d01e-b626-4f5b-8235-d0ab4883a313"
    }
  } ]
}