{
  "resourceType": "Bundle",
  "id": "2Enc2FallsWithNullPOAInjury",
  "type": "transaction",
  "entry": [ {
    "fullUrl": "https://madie.cms.gov/Claim/10b6b4f7-caa7-416b-9ac4-ce2b31be4852",
    "resource": {
      "resourceType": "Claim",
      "id": "10b6b4f7-caa7-416b-9ac4-ce2b31be4852",
      "meta": {
        "profile": [ "http://hl7.org/fhir/us/qicore/StructureDefinition/qicore-claim" ]
      },
      "status": "active",
      "type": {
        "coding": [ {
          "system": "http://terminology.hl7.org/CodeSystem/claim-type",
          "code": "professional",
          "display": "Professional"
        } ]
      },
      "use": "claim",
      "patient": {
        "reference": "Patient/58079a8d-2808-4029-b1fb-67ab4a841aa9"
      },
      "created": "2026-12-12",
      "provider": {
        "reference": "Practitioner/practitioner-1"
      },
      "priority": {
        "coding": [ {
          "system": "http://terminology.hl7.org/CodeSystem/processpriority",
          "code": "normal"
        } ]
      },
      "diagnosis": [ {
        "sequence": 1,
        "diagnosisCodeableConcept": {
          "coding": [ {
            "system": "http://hl7.org/fhir/sid/icd-10-cm",
            "code": "W01.0XXA"
          } ]
        },
        "onAdmission": {
          "coding": [ {
            "system": "https://www.cms.gov/Medicare/Medicare-Fee-for-Service-Payment/HospitalAcqCond/Coding",
            "code": "N"
          } ]
        }
      } ],
      "insurance": [ {
        "sequence": 1,
        "focal": true,
        "coverage": {
          "reference": "Coverage/coverage-1"
        }
      } ],
      "item": [ {
        "sequence": 1,
        "diagnosisSequence": [ 1, 2 ],
        "productOrService": {
          "coding": [ {
            "system": "http://terminology.hl7.org/CodeSystem/ex-USCLS",
            "code": "1101"
          } ]
        },
        "encounter": [ {
          "reference": "Encounter/dbd5bae0-8a82-41d3-87db-90435832b576"
        } ]
      } ]
    },
    "request": {
      "method": "PUT",
      "url": "Claim/10b6b4f7-caa7-416b-9ac4-ce2b31be4852"
    }
  }, {
    "fullUrl": "https://madie.cms.gov/Claim/83a63633-a40d-42df-bf7b-926217bc5c34",
    "resource": {
      "resourceType": "Claim",
      "id": "83a63633-a40d-42df-bf7b-926217bc5c34",
      "meta": {
        "profile": [ "http://hl7.org/fhir/us/qicore/StructureDefinition/qicore-claim" ]
      },
      "status": "active",
      "type": {
        "coding": [ {
          "system": "http://terminology.hl7.org/CodeSystem/claim-type",
          "code": "professional",
          "display": "Professional"
        } ]
      },
      "use": "claim",
      "patient": {
        "reference": "Patient/58079a8d-2808-4029-b1fb-67ab4a841aa9"
      },
      "created": "2026-12-12",
      "provider": {
        "reference": "Practitioner/practitioner-1"
      },
      "priority": {
        "coding": [ {
          "system": "http://terminology.hl7.org/CodeSystem/processpriority",
          "code": "normal"
        } ]
      },
      "diagnosis": [ {
        "sequence": 2,
        "diagnosisCodeableConcept": {
          "coding": [ {
            "system": "http://hl7.org/fhir/sid/icd-10-cm",
            "code": "S01.309A"
          } ]
        }
      } ],
      "insurance": [ {
        "sequence": 1,
        "focal": true,
        "coverage": {
          "reference": "Coverage/coverage-1"
        }
      } ],
      "item": [ {
        "sequence": 1,
        "diagnosisSequence": [ 1, 2 ],
        "productOrService": {
          "coding": [ {
            "system": "http://terminology.hl7.org/CodeSystem/ex-USCLS",
            "code": "1101"
          } ]
        },
        "encounter": [ {
          "reference": "Encounter/dbd5bae0-8a82-41d3-87db-90435832b576"
        } ]
      } ]
    },
    "request": {
      "method": "PUT",
      "url": "Claim/83a63633-a40d-42df-bf7b-926217bc5c34"
    }
  }, {
    "fullUrl": "https://madie.cms.gov/Claim/4a637c9d-7a9f-47ba-82ce-bccb6c178827",
    "resource": {
      "resourceType": "Claim",
      "id": "4a637c9d-7a9f-47ba-82ce-bccb6c178827",
      "meta": {
        "profile": [ "http://hl7.org/fhir/us/qicore/StructureDefinition/qicore-claim" ]
      },
      "status": "active",
      "type": {
        "coding": [ {
          "system": "http://terminology.hl7.org/CodeSystem/claim-type",
          "code": "professional",
          "display": "Professional"
        } ]
      },
      "use": "claim",
      "patient": {
        "reference": "Patient/58079a8d-2808-4029-b1fb-67ab4a841aa9"
      },
      "created": "2026-12-12",
      "provider": {
        "reference": "Practitioner/practitioner-1"
      },
      "priority": {
        "coding": [ {
          "system": "http://terminology.hl7.org/CodeSystem/processpriority",
          "code": "normal"
        } ]
      },
      "diagnosis": [ {
        "sequence": 1,
        "diagnosisCodeableConcept": {
          "coding": [ {
            "system": "http://snomed.info/sct",
            "code": "14047009"
          } ]
        },
        "onAdmission": {
          "coding": [ {
            "system": "https://www.cms.gov/Medicare/Medicare-Fee-for-Service-Payment/HospitalAcqCond/Coding",
            "code": "N"
          } ]
        }
      } ],
      "insurance": [ {
        "sequence": 1,
        "focal": true,
        "coverage": {
          "reference": "Coverage/coverage-1"
        }
      } ],
      "item": [ {
        "sequence": 1,
        "diagnosisSequence": [ 1, 2 ],
        "productOrService": {
          "coding": [ {
            "system": "http://terminology.hl7.org/CodeSystem/ex-USCLS",
            "code": "1101"
          } ]
        },
        "encounter": [ {
          "reference": "Encounter/97a65847-84a8-43c2-b484-c19edd0cc221"
        } ]
      } ]
    },
    "request": {
      "method": "PUT",
      "url": "Claim/4a637c9d-7a9f-47ba-82ce-bccb6c178827"
    }
  }, {
    "fullUrl": "https://madie.cms.gov/Claim/2ffb614d-bcab-4d9b-a7db-7d05c762ee4d",
    "resource": {
      "resourceType": "Claim",
      "id": "2ffb614d-bcab-4d9b-a7db-7d05c762ee4d",
      "meta": {
        "profile": [ "http://hl7.org/fhir/us/qicore/StructureDefinition/qicore-claim" ]
      },
      "status": "active",
      "type": {
        "coding": [ {
          "system": "http://terminology.hl7.org/CodeSystem/claim-type",
          "code": "professional",
          "display": "Professional"
        } ]
      },
      "use": "claim",
      "patient": {
        "reference": "Patient/58079a8d-2808-4029-b1fb-67ab4a841aa9"
      },
      "created": "2026-12-12",
      "provider": {
        "reference": "Practitioner/practitioner-1"
      },
      "priority": {
        "coding": [ {
          "system": "http://terminology.hl7.org/CodeSystem/processpriority",
          "code": "normal"
        } ]
      },
      "diagnosis": [ {
        "sequence": 2,
        "diagnosisCodeableConcept": {
          "coding": [ {
            "system": "http://hl7.org/fhir/sid/icd-10-cm",
            "code": "M80.00XA"
          } ]
        }
      } ],
      "insurance": [ {
        "sequence": 1,
        "focal": true,
        "coverage": {
          "reference": "Coverage/coverage-1"
        }
      } ],
      "item": [ {
        "sequence": 1,
        "diagnosisSequence": [ 1, 2 ],
        "productOrService": {
          "coding": [ {
            "system": "http://terminology.hl7.org/CodeSystem/ex-USCLS",
            "code": "1101"
          } ]
        },
        "encounter": [ {
          "reference": "Encounter/97a65847-84a8-43c2-b484-c19edd0cc221"
        } ]
      } ]
    },
    "request": {
      "method": "PUT",
      "url": "Claim/2ffb614d-bcab-4d9b-a7db-7d05c762ee4d"
    }
  }, {
    "fullUrl": "https://madie.cms.gov/Encounter/97a65847-84a8-43c2-b484-c19edd0cc221",
    "resource": {
      "resourceType": "Encounter",
      "id": "97a65847-84a8-43c2-b484-c19edd0cc221",
      "meta": {
        "profile": [ "http://hl7.org/fhir/us/qicore/StructureDefinition/qicore-encounter" ]
      },
      "status": "finished",
      "class": {
        "system": "http://terminology.hl7.org/CodeSystem/v3-ActCode",
        "code": "IMP",
        "display": "inpatient encounter"
      },
      "type": [ {
        "coding": [ {
          "system": "http://snomed.info/sct",
          "code": "183452005"
        } ]
      } ],
      "subject": {
        "reference": "Patient/58079a8d-2808-4029-b1fb-67ab4a841aa9"
      },
      "period": {
        "start": "2026-12-08T08:00:00.000+00:00",
        "end": "2026-12-12T08:15:00.000+00:00"
      },
      "reasonCode": [ {
        "coding": [ {
          "system": "http://snomed.info/sct",
          "code": "14047009"
        } ]
      }, {
        "coding": [ {
          "system": "http://hl7.org/fhir/sid/icd-10-cm",
          "code": "M80.00XA"
        } ]
      } ]
    },
    "request": {
      "method": "PUT",
      "url": "Encounter/97a65847-84a8-43c2-b484-c19edd0cc221"
    }
  }, {
    "fullUrl": "https://madie.cms.gov/Encounter/dbd5bae0-8a82-41d3-87db-90435832b576",
    "resource": {
      "resourceType": "Encounter",
      "id": "dbd5bae0-8a82-41d3-87db-90435832b576",
      "meta": {
        "profile": [ "http://hl7.org/fhir/us/qicore/StructureDefinition/qicore-encounter" ]
      },
      "status": "finished",
      "class": {
        "system": "http://terminology.hl7.org/CodeSystem/v3-ActCode",
        "code": "IMP",
        "display": "inpatient encounter"
      },
      "type": [ {
        "coding": [ {
          "system": "http://snomed.info/sct",
          "code": "183452005"
        } ]
      } ],
      "subject": {
        "reference": "Patient/58079a8d-2808-4029-b1fb-67ab4a841aa9"
      },
      "period": {
        "start": "2026-11-09T11:00:00.000+00:00",
        "end": "2026-11-12T08:15:00.000+00:00"
      }
    },
    "request": {
      "method": "PUT",
      "url": "Encounter/dbd5bae0-8a82-41d3-87db-90435832b576"
    }
  }, {
    "fullUrl": "https://madie.cms.gov/Encounter/4af1e53b-9bc9-4827-82c2-92c33a35befc",
    "resource": {
      "resourceType": "Encounter",
      "id": "4af1e53b-9bc9-4827-82c2-92c33a35befc",
      "meta": {
        "profile": [ "http://hl7.org/fhir/us/qicore/StructureDefinition/qicore-encounter" ]
      },
      "status": "finished",
      "class": {
        "system": "http://terminology.hl7.org/CodeSystem/v3-ActCode",
        "code": "IMP",
        "display": "inpatient encounter"
      },
      "type": [ {
        "coding": [ {
          "system": "http://snomed.info/sct",
          "code": "4525004"
        } ]
      } ],
      "subject": {
        "reference": "Patient/58079a8d-2808-4029-b1fb-67ab4a841aa9"
      },
      "period": {
        "start": "2026-11-09T08:00:00.000+00:00",
        "end": "2026-11-09T10:15:00.000+00:00"
      },
      "reasonCode": [ {
        "coding": [ {
          "system": "http://hl7.org/fhir/sid/icd-10-cm",
          "code": "W01.0XXA"
        } ]
      }, {
        "coding": [ {
          "system": "http://hl7.org/fhir/sid/icd-10-cm",
          "code": "S01.309A"
        } ]
      } ]
    },
    "request": {
      "method": "PUT",
      "url": "Encounter/4af1e53b-9bc9-4827-82c2-92c33a35befc"
    }
  }, {
    "fullUrl": "https://madie.cms.gov/Patient/58079a8d-2808-4029-b1fb-67ab4a841aa9",
    "resource": {
      "resourceType": "Patient",
      "id": "58079a8d-2808-4029-b1fb-67ab4a841aa9",
      "meta": {
        "profile": [ "http://hl7.org/fhir/us/qicore/StructureDefinition/qicore-patient" ]
      },
      "extension": [ {
        "url": "http://hl7.org/fhir/us/core/StructureDefinition/us-core-race",
        "extension": [ {
          "url": "ombCategory",
          "valueCoding": {
            "system": "urn:oid:2.16.840.1.113883.6.238",
            "code": "2054-5",
            "display": "Black or African American",
            "userSelected": true
          }
        }, {
          "url": "text",
          "valueString": "Black or African American"
        } ]
      }, {
        "url": "http://hl7.org/fhir/us/core/StructureDefinition/us-core-ethnicity",
        "extension": [ {
          "url": "ombCategory",
          "valueCoding": {
            "system": "urn:oid:2.16.840.1.113883.6.238",
            "code": "2186-5",
            "display": "Not Hispanic or Latino",
            "userSelected": true
          }
        }, {
          "url": "text",
          "valueString": "Not Hispanic or Latino"
        } ]
      } ],
      "identifier": [ {
        "type": {
          "coding": [ {
            "system": "http://terminology.hl7.org/CodeSystem/v2-0203",
            "code": "MR"
          } ]
        },
        "system": "https://bonnie-fhir.healthit.gov/",
        "value": "61152a3b98086b7a79cbd7c1"
      } ],
      "active": true,
      "name": [ {
        "use": "usual",
        "family": "NUMERPass",
        "given": [ "2Enc2FallsWithNullPOAInjury" ]
      } ],
      "gender": "male",
      "birthDate": "1964-12-11"
    },
    "request": {
      "method": "PUT",
      "url": "Patient/58079a8d-2808-4029-b1fb-67ab4a841aa9"
    }
  }, {
    "fullUrl": "https://madie.cms.gov/AdverseEvent/fc91fd08-1d44-450e-9c1f-42a5dc18363c",
    "resource": {
      "resourceType": "AdverseEvent",
      "id": "fc91fd08-1d44-450e-9c1f-42a5dc18363c",
      "meta": {
        "profile": [ "http://hl7.org/fhir/us/qicore/StructureDefinition/qicore-adverseevent" ]
      },
      "actuality": "actual",
      "event": {
        "coding": [ {
          "system": "http://hl7.org/fhir/sid/icd-10-cm",
          "code": "W01.0XXA"
        } ]
      },
      "subject": {
        "reference": "Patient/58079a8d-2808-4029-b1fb-67ab4a841aa9"
      },
      "date": "2026-12-09T08:00:00.000+00:00"
    },
    "request": {
      "method": "PUT",
      "url": "AdverseEvent/fc91fd08-1d44-450e-9c1f-42a5dc18363c"
    }
  }, {
    "fullUrl": "https://madie.cms.gov/AdverseEvent/c1f37c47-add3-416a-8c2f-2b9db95dbc71",
    "resource": {
      "resourceType": "AdverseEvent",
      "id": "c1f37c47-add3-416a-8c2f-2b9db95dbc71",
      "meta": {
        "profile": [ "http://hl7.org/fhir/us/qicore/StructureDefinition/qicore-adverseevent" ]
      },
      "actuality": "actual",
      "event": {
        "coding": [ {
          "system": "http://snomed.info/sct",
          "code": "14047009"
        } ]
      },
      "subject": {
        "reference": "Patient/58079a8d-2808-4029-b1fb-67ab4a841aa9"
      },
      "date": "2026-11-10T08:00:00.000+00:00"
    },
    "request": {
      "method": "PUT",
      "url": "AdverseEvent/c1f37c47-add3-416a-8c2f-2b9db95dbc71"
    }
  }, {
    "fullUrl": "https://madie.cms.gov/Practitioner/ed2e6008-02be-4ab3-8cde-71d9ae662705",
    "resource": {
      "resourceType": "Practitioner",
      "id": "ed2e6008-02be-4ab3-8cde-71d9ae662705",
      "identifier": [ {
        "system": "http://www.cms.gov/identifiers/pracitioners",
        "value": "P12345"
      } ],
      "name": [ {
        "use": "official",
        "family": "Smith",
        "given": [ "John" ]
      } ],
      "qualification": [ {
        "identifier": [ {
          "system": "http://hl7.org/fhir/sid/us-npi",
          "value": "1234567890"
        } ],
        "code": {
          "coding": [ {
            "system": "http://terminology.hl7.org/CodeSystem/v2-0203",
            "code": "MD",
            "display": "Medical License number"
          } ]
        }
      } ]
    },
    "request": {
      "method": "PUT",
      "url": "Practitioner/ed2e6008-02be-4ab3-8cde-71d9ae662705"
    }
  }, {
    "fullUrl": "https://madie.cms.gov/Coverage/31becc75-85d0-4140-9814-ac4a5d55d16c",
    "resource": {
      "resourceType": "Coverage",
      "id": "31becc75-85d0-4140-9814-ac4a5d55d16c",
      "status": "active",
      "beneficiary": {
        "reference": "Patient/58079a8d-2808-4029-b1fb-67ab4a841aa9"
      },
      "payor": [ {
        "reference": "Organization/0c2ad564-34e4-4667-a0f0-b298231e2cb6"
      } ]
    },
    "request": {
      "method": "PUT",
      "url": "Coverage/31becc75-85d0-4140-9814-ac4a5d55d16c"
    }
  }, {
    "fullUrl": "https://madie.cms.gov/Organization/0c2ad564-34e4-4667-a0f0-b298231e2cb6",
    "resource": {
      "resourceType": "Organization",
      "id": "0c2ad564-34e4-4667-a0f0-b298231e2cb6",
      "identifier": [ {
        "system": "http://cms.gov/insurance-ids",
        "value": "AET12345"
      } ],
      "type": [ {
        "coding": [ {
          "system": "http://terminology.hl7.org/CodeSystem/organization-type",
          "code": "prov",
          "display": "Healthcare Provider"
        } ]
      } ],
      "name": "Aetna Insurance",
      "telecom": [ {
        "system": "phone",
        "value": "+1-800-123-4567"
      } ],
      "address": [ {
        "line": [ "123 Main Street" ],
        "city": "Cityville",
        "state": "CA",
        "postalCode": "12345",
        "country": "USA"
      } ]
    },
    "request": {
      "method": "PUT",
      "url": "Organization/0c2ad564-34e4-4667-a0f0-b298231e2cb6"
    }
  }, {
    "fullUrl": "https://madie.cms.gov/MeasureReport/1801d1c6-48ce-4c5e-bc64-9c318eb6709f",
    "resource": {
      "resourceType": "MeasureReport",
      "id": "1801d1c6-48ce-4c5e-bc64-9c318eb6709f",
      "meta": {
        "profile": [ "http://hl7.org/fhir/us/cqfmeasures/StructureDefinition/test-case-cqfm" ]
      },
      "contained": [ {
        "resourceType": "Parameters",
        "id": "c51b4e05-ccc1-4e16-92ff-d7b58d5eafca-parameters",
        "parameter": [ {
          "name": "subject",
          "valueString": "58079a8d-2808-4029-b1fb-67ab4a841aa9"
        } ]
      } ],
      "extension": [ {
        "url": "http://hl7.org/fhir/StructureDefinition/cqf-inputParameters",
        "valueReference": {
          "reference": "#c51b4e05-ccc1-4e16-92ff-d7b58d5eafca-parameters"
        }
      }, {
        "url": "http://hl7.org/fhir/us/cqfmeasures/StructureDefinition/cqfm-testCaseDescription",
        "valueMarkdown": "Patient fall + injury during 2 encounters. Both had Adverse Event Fall + Major or Mod Injury null POA"
      } ],
      "modifierExtension": [ {
        "url": "http://hl7.org/fhir/us/cqfmeasures/StructureDefinition/cqfm-isTestCase",
        "valueBoolean": true
      } ],
      "status": "complete",
      "type": "individual",
      "measure": "https://madie.cms.gov/Measure/CMS1017FHIRHHFI",
      "period": {
        "start": "2026-01-01",
        "end": "2026-12-31"
      },
      "group": [ {
        "id": "Group_1",
        "population": [ {
          "id": "InitialPopulation_1",
          "code": {
            "coding": [ {
              "system": "http://terminology.hl7.org/CodeSystem/measure-population",
              "code": "initial-population",
              "display": "Initial Population"
            } ]
          },
          "count": 2
        }, {
          "id": "Denominator_1",
          "code": {
            "coding": [ {
              "system": "http://terminology.hl7.org/CodeSystem/measure-population",
              "code": "denominator",
              "display": "Denominator"
            } ]
          },
          "count": 2
        }, {
          "id": "DenominatorExclusion_1",
          "code": {
            "coding": [ {
              "system": "http://terminology.hl7.org/CodeSystem/measure-population",
              "code": "denominator-exclusion",
              "display": "Denominator Exclusion"
            } ]
          },
          "count": 0
        }, {
          "id": "Numerator_1",
          "code": {
            "coding": [ {
              "system": "http://terminology.hl7.org/CodeSystem/measure-population",
              "code": "numerator",
              "display": "Numerator"
            } ]
          },
          "count": 2
        }, {
          "id": "NumeratorExclusion_1",
          "code": {
            "coding": [ {
              "system": "http://terminology.hl7.org/CodeSystem/measure-population",
              "code": "numerator-exclusion",
              "display": "Numerator Exclusion"
            } ]
          },
          "count": 0
        }, {
          "id": "MeasureObservation_1_1_1",
          "code": {
            "coding": [ {
              "system": "http://terminology.hl7.org/CodeSystem/measure-population",
              "code": "measure-observation",
              "display": "Measure Observation"
            } ]
          },
          "count": 4
        }, {
          "id": "MeasureObservation_1_1_2",
          "code": {
            "coding": [ {
              "system": "http://terminology.hl7.org/CodeSystem/measure-population",
              "code": "measure-observation",
              "display": "Measure Observation"
            } ]
          },
          "count": 3
        }, {
          "id": "MeasureObservation_1_2_1",
          "code": {
            "coding": [ {
              "system": "http://terminology.hl7.org/CodeSystem/measure-population",
              "code": "measure-observation",
              "display": "Measure Observation"
            } ]
          },
          "count": 1
        }, {
          "id": "MeasureObservation_1_2_2",
          "code": {
            "coding": [ {
              "system": "http://terminology.hl7.org/CodeSystem/measure-population",
              "code": "measure-observation",
              "display": "Measure Observation"
            } ]
          },
          "count": 1
        } ],
        "measureScore": {
          "value": 0.0
        }
      } ],
      "evaluatedResource": [ {
        "reference": "Claim/10b6b4f7-caa7-416b-9ac4-ce2b31be4852"
      }, {
        "reference": "Claim/83a63633-a40d-42df-bf7b-926217bc5c34"
      }, {
        "reference": "Claim/4a637c9d-7a9f-47ba-82ce-bccb6c178827"
      }, {
        "reference": "Claim/2ffb614d-bcab-4d9b-a7db-7d05c762ee4d"
      }, {
        "reference": "Encounter/97a65847-84a8-43c2-b484-c19edd0cc221"
      }, {
        "reference": "Encounter/dbd5bae0-8a82-41d3-87db-90435832b576"
      }, {
        "reference": "Encounter/4af1e53b-9bc9-4827-82c2-92c33a35befc"
      }, {
        "reference": "Patient/58079a8d-2808-4029-b1fb-67ab4a841aa9"
      }, {
        "reference": "AdverseEvent/fc91fd08-1d44-450e-9c1f-42a5dc18363c"
      }, {
        "reference": "AdverseEvent/c1f37c47-add3-416a-8c2f-2b9db95dbc71"
      }, {
        "reference": "Practitioner/ed2e6008-02be-4ab3-8cde-71d9ae662705"
      }, {
        "reference": "Coverage/31becc75-85d0-4140-9814-ac4a5d55d16c"
      }, {
        "reference": "Organization/0c2ad564-34e4-4667-a0f0-b298231e2cb6"
      } ]
    },
    "request": {
      "method": "PUT",
      "url": "MeasureReport/1801d1c6-48ce-4c5e-bc64-9c318eb6709f"
    }
  } ]
}