{
  "resourceType": "Bundle",
  "id": "63ec096accb3770120fe9faf",
  "type": "transaction",
  "entry": [ {
    "fullUrl": "https://madie.cms.gov/Patient/569ebc6b-4bc4-4b1e-9e40-c3942190d446",
    "resource": {
      "resourceType": "Patient",
      "id": "569ebc6b-4bc4-4b1e-9e40-c3942190d446",
      "meta": {
        "profile": [ "http://hl7.org/fhir/us/qicore/StructureDefinition/qicore-patient" ]
      },
      "text": {
        "status": "generated",
        "div": "<div xmlns=\"http://www.w3.org/1999/xhtml\"><div class=\"hapiHeaderText\">LT24beforeAndLT2after <b>WBCPASS </b></div><table class=\"hapiPropertyTable\"><tbody><tr><td>Identifier</td><td>02a3c13b70ccf5a73b893e80582952bdd83e9cabbf053902bb5eb341874dc5ec</td></tr><tr><td>Date of birth</td><td><span>15 June 1956</span></td></tr></tbody></table></div>"
      },
      "extension": [ {
        "url": "http://hl7.org/fhir/us/core/StructureDefinition/us-core-race",
        "extension": [ {
          "url": "ombCategory",
          "valueCoding": {
            "system": "urn:oid:2.16.840.1.113883.6.238",
            "code": "1002-5",
            "display": "American Indian or Alaska Native",
            "userSelected": true
          }
        }, {
          "url": "text",
          "valueString": "American Indian or Alaska Native"
        } ]
      }, {
        "url": "http://hl7.org/fhir/us/core/StructureDefinition/us-core-ethnicity",
        "extension": [ {
          "url": "ombCategory",
          "valueCoding": {
            "system": "urn:oid:2.16.840.1.113883.6.238",
            "code": "2186-5",
            "display": "Not Hispanic or Latino",
            "userSelected": true
          }
        }, {
          "url": "text",
          "valueString": "Not Hispanic or Latino"
        } ]
      }, {
        "url": "http://hl7.org/fhir/us/core/StructureDefinition/us-core-sex",
        "valueCode": "248153007"
      } ],
      "identifier": [ {
        "type": {
          "coding": [ {
            "system": "http://terminology.hl7.org/CodeSystem/v2-0203",
            "code": "MR"
          } ]
        },
        "system": "https://bonnie-fhir.healthit.gov/",
        "value": "63ec096accb3770120fe9fa2"
      } ],
      "active": true,
      "name": [ {
        "use": "usual",
        "family": "AllLabsPass",
        "given": [ "ObsIPEncountersWithLabsDuringObsAndInpt" ]
      } ],
      "gender": "male",
      "birthDate": "1961-07-01"
    },
    "request": {
      "method": "PUT",
      "url": "Patient/569ebc6b-4bc4-4b1e-9e40-c3942190d446"
    }
  }, {
    "fullUrl": "https://madie.cms.gov/Encounter/62e23305-be1d-47fb-a789-d76785f2f746",
    "resource": {
      "resourceType": "Encounter",
      "id": "62e23305-be1d-47fb-a789-d76785f2f746",
      "meta": {
        "profile": [ "http://hl7.org/fhir/us/qicore/StructureDefinition/qicore-encounter" ]
      },
      "status": "finished",
      "class": {
        "system": "http://terminology.hl7.org/CodeSystem/v3-ActCode",
        "code": "OBSENC",
        "display": "observation encounter",
        "userSelected": true
      },
      "type": [ {
        "coding": [ {
          "system": "http://snomed.info/sct",
          "code": "448951000124107",
          "display": "Admission to observation unit (procedure)"
        } ]
      } ],
      "subject": {
        "reference": "Patient/569ebc6b-4bc4-4b1e-9e40-c3942190d446"
      },
      "period": {
        "start": "2026-07-01T08:00:00Z",
        "end": "2026-07-02T07:15:00Z"
      },
      "length": {
        "value": 1,
        "unit": "days"
      }
    },
    "request": {
      "method": "PUT",
      "url": "Encounter/62e23305-be1d-47fb-a789-d76785f2f746"
    }
  }, {
    "fullUrl": "https://madie.cms.gov/Encounter/580fdbe6-8f83-4d80-8c69-c96d7a946191",
    "resource": {
      "resourceType": "Encounter",
      "id": "580fdbe6-8f83-4d80-8c69-c96d7a946191",
      "meta": {
        "profile": [ "http://hl7.org/fhir/us/qicore/StructureDefinition/qicore-encounter" ]
      },
      "status": "finished",
      "class": {
        "system": "http://terminology.hl7.org/CodeSystem/v3-ActCode",
        "code": "IMP",
        "display": "inpatient encounter",
        "userSelected": true
      },
      "type": [ {
        "coding": [ {
          "system": "http://snomed.info/sct",
          "code": "183452005"
        } ]
      } ],
      "subject": {
        "reference": "Patient/569ebc6b-4bc4-4b1e-9e40-c3942190d446"
      },
      "period": {
        "start": "2026-07-02T07:15:00Z",
        "end": "2026-07-05T23:59:00Z"
      },
      "length": {
        "value": 3,
        "unit": "days"
      }
    },
    "request": {
      "method": "PUT",
      "url": "Encounter/580fdbe6-8f83-4d80-8c69-c96d7a946191"
    }
  }, {
    "fullUrl": "https://madie.cms.gov/Observation/ce6a8868-b87e-4a89-bb30-5a523b809cc2",
    "resource": {
      "resourceType": "Observation",
      "id": "ce6a8868-b87e-4a89-bb30-5a523b809cc2",
      "meta": {
        "profile": [ "http://hl7.org/fhir/us/qicore/StructureDefinition/qicore-observation-lab" ]
      },
      "status": "final",
      "category": [ {
        "coding": [ {
          "system": "http://terminology.hl7.org/CodeSystem/observation-category",
          "code": "laboratory",
          "display": "Laboratory",
          "userSelected": true
        } ]
      } ],
      "code": {
        "coding": [ {
          "system": "http://loinc.org",
          "version": "2.72",
          "code": "14627-4",
          "display": "Bicarbonate [Moles/volume] in Venous blood"
        } ]
      },
      "subject": {
        "reference": "Patient/569ebc6b-4bc4-4b1e-9e40-c3942190d446"
      },
      "effectiveDateTime": "2026-07-02T08:01:00Z",
      "issued": "2026-07-02T08:01:00Z",
      "performer": [ {
        "reference": "Organization/Organization-1"
      } ],
      "valueQuantity": {
        "value": 25,
        "unit": "mmol/L",
        "system": "http://unitsofmeasure.org",
        "code": "mg/dL"
      }
    },
    "request": {
      "method": "PUT",
      "url": "Observation/ce6a8868-b87e-4a89-bb30-5a523b809cc2"
    }
  }, {
    "fullUrl": "https://madie.cms.gov/Observation/d34628a0-0b59-4d5f-b7d0-73105362878f",
    "resource": {
      "resourceType": "Observation",
      "id": "d34628a0-0b59-4d5f-b7d0-73105362878f",
      "meta": {
        "profile": [ "http://hl7.org/fhir/us/qicore/StructureDefinition/qicore-observation-lab" ]
      },
      "status": "final",
      "category": [ {
        "coding": [ {
          "system": "http://terminology.hl7.org/CodeSystem/observation-category",
          "code": "laboratory",
          "display": "Laboratory",
          "userSelected": true
        } ]
      } ],
      "code": {
        "coding": [ {
          "system": "http://loinc.org",
          "version": "2.72",
          "code": "14682-9",
          "display": "Creatinine [Moles/volume] in Serum or Plasma",
          "userSelected": true
        } ]
      },
      "subject": {
        "reference": "Patient/569ebc6b-4bc4-4b1e-9e40-c3942190d446"
      },
      "effectiveDateTime": "2026-07-01T10:00:00Z",
      "issued": "2026-07-01T10:00:00Z",
      "performer": [ {
        "reference": "Organization/Organization-1"
      } ],
      "valueQuantity": {
        "value": 2,
        "unit": "mg/dL",
        "system": "http://unitsofmeasure.org",
        "code": "mg/dL"
      }
    },
    "request": {
      "method": "PUT",
      "url": "Observation/d34628a0-0b59-4d5f-b7d0-73105362878f"
    }
  }, {
    "fullUrl": "https://madie.cms.gov/Observation/f30a6a0b-9b3a-4133-a5aa-6f9af6483cd5",
    "resource": {
      "resourceType": "Observation",
      "id": "f30a6a0b-9b3a-4133-a5aa-6f9af6483cd5",
      "meta": {
        "profile": [ "http://hl7.org/fhir/us/qicore/StructureDefinition/qicore-observation-lab" ]
      },
      "status": "final",
      "category": [ {
        "coding": [ {
          "system": "http://terminology.hl7.org/CodeSystem/observation-category",
          "code": "laboratory",
          "display": "Laboratory",
          "userSelected": true
        } ]
      } ],
      "code": {
        "coding": [ {
          "system": "http://loinc.org",
          "version": "2.72",
          "code": "20570-8",
          "display": "Hematocrit [Volume Fraction] of Blood by calculation"
        } ]
      },
      "subject": {
        "reference": "Patient/569ebc6b-4bc4-4b1e-9e40-c3942190d446"
      },
      "effectiveDateTime": "2026-07-02T07:15:00Z",
      "issued": "2026-07-02T07:15:00Z",
      "performer": [ {
        "reference": "Organization/Organization-1"
      } ],
      "valueQuantity": {
        "value": 50,
        "unit": "%",
        "system": "http://unitsofmeasure.org",
        "code": "%"
      }
    },
    "request": {
      "method": "PUT",
      "url": "Observation/f30a6a0b-9b3a-4133-a5aa-6f9af6483cd5"
    }
  }, {
    "fullUrl": "https://madie.cms.gov/Observation/041f0e17-2e10-4f6c-b6cc-096749eef340",
    "resource": {
      "resourceType": "Observation",
      "id": "041f0e17-2e10-4f6c-b6cc-096749eef340",
      "meta": {
        "profile": [ "http://hl7.org/fhir/us/qicore/StructureDefinition/qicore-observation-lab" ]
      },
      "status": "final",
      "category": [ {
        "coding": [ {
          "system": "http://terminology.hl7.org/CodeSystem/observation-category",
          "code": "laboratory",
          "display": "Laboratory",
          "userSelected": true
        } ]
      } ],
      "code": {
        "coding": [ {
          "system": "http://loinc.org",
          "version": "2.72",
          "code": "26464-8",
          "display": "Leukocytes [#/volume] in Blood"
        } ]
      },
      "subject": {
        "reference": "Patient/569ebc6b-4bc4-4b1e-9e40-c3942190d446"
      },
      "effectiveDateTime": "2026-07-03T07:15:00Z",
      "issued": "2026-07-03T07:15:00Z",
      "performer": [ {
        "reference": "Organization/Organization-1"
      } ],
      "valueQuantity": {
        "value": 5000,
        "unit": "uL",
        "system": "http://unitsofmeasure.org",
        "code": "uL"
      }
    },
    "request": {
      "method": "PUT",
      "url": "Observation/041f0e17-2e10-4f6c-b6cc-096749eef340"
    }
  }, {
    "fullUrl": "https://madie.cms.gov/Observation/8eb21545-21e6-4e84-9e61-f043fa29e831",
    "resource": {
      "resourceType": "Observation",
      "id": "8eb21545-21e6-4e84-9e61-f043fa29e831",
      "meta": {
        "profile": [ "http://hl7.org/fhir/us/qicore/StructureDefinition/qicore-observation-lab" ]
      },
      "status": "final",
      "category": [ {
        "coding": [ {
          "system": "http://terminology.hl7.org/CodeSystem/observation-category",
          "code": "laboratory",
          "display": "Laboratory",
          "userSelected": true
        } ]
      } ],
      "code": {
        "coding": [ {
          "system": "http://loinc.org",
          "version": "2.72",
          "code": "13056-7",
          "display": "Platelets [#/volume] in Plasma by Automated count"
        } ]
      },
      "subject": {
        "reference": "Patient/569ebc6b-4bc4-4b1e-9e40-c3942190d446"
      },
      "effectiveDateTime": "2026-07-03T07:15:00Z",
      "issued": "2026-07-03T07:15:00Z",
      "performer": [ {
        "reference": "Organization/Organization-1"
      } ],
      "valueQuantity": {
        "value": 150000,
        "unit": "/uL",
        "system": "http://unitsofmeasure.org",
        "code": "/uL"
      }
    },
    "request": {
      "method": "PUT",
      "url": "Observation/8eb21545-21e6-4e84-9e61-f043fa29e831"
    }
  }, {
    "fullUrl": "https://madie.cms.gov/Observation/15beb6d4-3061-44a2-9404-e672ab0e178b",
    "resource": {
      "resourceType": "Observation",
      "id": "15beb6d4-3061-44a2-9404-e672ab0e178b",
      "meta": {
        "profile": [ "http://hl7.org/fhir/us/qicore/StructureDefinition/qicore-observation-lab" ]
      },
      "status": "final",
      "category": [ {
        "coding": [ {
          "system": "http://terminology.hl7.org/CodeSystem/observation-category",
          "code": "laboratory",
          "display": "Laboratory",
          "userSelected": true
        } ]
      } ],
      "code": {
        "coding": [ {
          "system": "http://loinc.org",
          "version": "2.72",
          "code": "2947-0",
          "display": "Sodium [Moles/volume] in Blood"
        } ]
      },
      "subject": {
        "reference": "Patient/569ebc6b-4bc4-4b1e-9e40-c3942190d446"
      },
      "effectiveDateTime": "2026-07-03T07:15:00Z",
      "issued": "2026-07-03T07:15:00Z",
      "performer": [ {
        "reference": "Organization/Organization-1"
      } ],
      "valueQuantity": {
        "value": 5,
        "unit": "meq/L",
        "system": "http://unitsofmeasure.org",
        "code": "meq/L"
      }
    },
    "request": {
      "method": "PUT",
      "url": "Observation/15beb6d4-3061-44a2-9404-e672ab0e178b"
    }
  }, {
    "fullUrl": "https://madie.cms.gov/Coverage/51fe7afe-6d17-49df-b697-801e4235642d",
    "resource": {
      "resourceType": "Coverage",
      "id": "51fe7afe-6d17-49df-b697-801e4235642d",
      "meta": {
        "profile": [ "http://hl7.org/fhir/us/qicore/StructureDefinition/qicore-coverage" ]
      },
      "status": "active",
      "type": {
        "coding": [ {
          "system": "https://nahdo.org/sopt",
          "version": "9.2",
          "code": "1",
          "display": "MEDICARE",
          "userSelected": true
        } ]
      },
      "subscriberId": "AB9876",
      "beneficiary": {
        "reference": "Patient/569ebc6b-4bc4-4b1e-9e40-c3942190d446"
      },
      "relationship": {
        "coding": [ {
          "system": "http://terminology.hl7.org/CodeSystem/subscriber-relationship",
          "code": "self"
        } ]
      },
      "period": {
        "start": "2026-01-01T00:00:00Z"
      },
      "payor": [ {
        "reference": "Organization/ea0b6c3d-b3fa-402f-a815-774a1f87a436"
      } ]
    },
    "request": {
      "method": "PUT",
      "url": "Coverage/51fe7afe-6d17-49df-b697-801e4235642d"
    }
  }, {
    "fullUrl": "https://madie.cms.gov/Organization/ea0b6c3d-b3fa-402f-a815-774a1f87a436",
    "resource": {
      "resourceType": "Organization",
      "id": "ea0b6c3d-b3fa-402f-a815-774a1f87a436",
      "meta": {
        "profile": [ "http://hl7.org/fhir/us/qicore/StructureDefinition/qicore-organization" ]
      },
      "identifier": [ {
        "use": "temp",
        "system": "urn:oid:2.16.840.1.113883.4.4",
        "value": "21-3259825"
      } ],
      "active": true,
      "type": [ {
        "coding": [ {
          "system": "http://terminology.hl7.org/CodeSystem/organization-type",
          "code": "pay",
          "display": "Payer"
        } ]
      } ],
      "name": "Blue Cross Blue Shield of Texas",
      "telecom": [ {
        "system": "phone",
        "value": "(+1) 972-766-6900"
      } ],
      "address": [ {
        "use": "billing",
        "type": "postal",
        "line": [ "P.O. Box 660044" ],
        "city": "Dallas",
        "state": "TX",
        "postalCode": "75266-0044",
        "country": "USA"
      } ]
    },
    "request": {
      "method": "PUT",
      "url": "Organization/ea0b6c3d-b3fa-402f-a815-774a1f87a436"
    }
  }, {
    "fullUrl": "https://madie.cms.gov/Practitioner/03ec991e-9bf6-4592-892b-9a1aee27223f",
    "resource": {
      "resourceType": "Practitioner",
      "id": "03ec991e-9bf6-4592-892b-9a1aee27223f",
      "meta": {
        "profile": [ "http://hl7.org/fhir/us/qicore/StructureDefinition/qicore-practitioner" ]
      },
      "identifier": [ {
        "system": "http://hl7.org/fhir/sid/us-npi",
        "value": "0723660813"
      } ],
      "name": [ {
        "family": "Evil",
        "prefix": [ "Dr" ]
      } ]
    },
    "request": {
      "method": "PUT",
      "url": "Practitioner/03ec991e-9bf6-4592-892b-9a1aee27223f"
    }
  }, {
    "fullUrl": "https://madie.cms.gov/MeasureReport/895f6bb9-c646-4d15-bb3f-e785b9ce4b3a",
    "resource": {
      "resourceType": "MeasureReport",
      "id": "895f6bb9-c646-4d15-bb3f-e785b9ce4b3a",
      "meta": {
        "profile": [ "http://hl7.org/fhir/us/cqfmeasures/StructureDefinition/test-case-cqfm" ]
      },
      "contained": [ {
        "resourceType": "Parameters",
        "id": "182aeda2-a31d-4082-8f5c-68ae34c9bfaa-parameters",
        "parameter": [ {
          "name": "subject",
          "valueString": "569ebc6b-4bc4-4b1e-9e40-c3942190d446"
        } ]
      } ],
      "extension": [ {
        "url": "http://hl7.org/fhir/StructureDefinition/cqf-inputParameters",
        "valueReference": {
          "reference": "#182aeda2-a31d-4082-8f5c-68ae34c9bfaa-parameters"
        }
      }, {
        "url": "http://hl7.org/fhir/us/cqfmeasures/StructureDefinition/cqfm-testCaseDescription",
        "valueMarkdown": "Patient has Medicare and is age 65 start of Observation enc:  creatinine during observation and bicarbonate, hematocrit, WBC, platelets, and sodium during inpatient encounter"
      } ],
      "modifierExtension": [ {
        "url": "http://hl7.org/fhir/us/cqfmeasures/StructureDefinition/cqfm-isTestCase",
        "valueBoolean": true
      } ],
      "status": "complete",
      "type": "individual",
      "measure": "https://madie.cms.gov/Measure/CMSFHIR844HybridHospitalWideMortality",
      "period": {
        "start": "2026-07-01",
        "end": "2027-06-30"
      },
      "group": [ {
        "id": "Group_1",
        "population": [ {
          "id": "InitialPopulation_1",
          "code": {
            "coding": [ {
              "system": "http://terminology.hl7.org/CodeSystem/measure-population",
              "code": "initial-population",
              "display": "Initial Population"
            } ]
          },
          "count": 1
        } ],
        "measureScore": {
          "value": 0.0
        }
      } ],
      "evaluatedResource": [ {
        "reference": "Patient/569ebc6b-4bc4-4b1e-9e40-c3942190d446"
      }, {
        "reference": "Encounter/62e23305-be1d-47fb-a789-d76785f2f746"
      }, {
        "reference": "Encounter/580fdbe6-8f83-4d80-8c69-c96d7a946191"
      }, {
        "reference": "Observation/ce6a8868-b87e-4a89-bb30-5a523b809cc2"
      }, {
        "reference": "Observation/d34628a0-0b59-4d5f-b7d0-73105362878f"
      }, {
        "reference": "Observation/f30a6a0b-9b3a-4133-a5aa-6f9af6483cd5"
      }, {
        "reference": "Observation/041f0e17-2e10-4f6c-b6cc-096749eef340"
      }, {
        "reference": "Observation/8eb21545-21e6-4e84-9e61-f043fa29e831"
      }, {
        "reference": "Observation/15beb6d4-3061-44a2-9404-e672ab0e178b"
      }, {
        "reference": "Coverage/51fe7afe-6d17-49df-b697-801e4235642d"
      }, {
        "reference": "Organization/ea0b6c3d-b3fa-402f-a815-774a1f87a436"
      }, {
        "reference": "Practitioner/03ec991e-9bf6-4592-892b-9a1aee27223f"
      } ]
    },
    "request": {
      "method": "PUT",
      "url": "MeasureReport/895f6bb9-c646-4d15-bb3f-e785b9ce4b3a"
    }
  } ]
}