{
  "resourceType": "Bundle",
  "id": "633c9d030968f8012250fc9d",
  "type": "transaction",
  "entry": [ {
    "fullUrl": "https://madie.cms.gov/Patient/1a19c21b-41f3-4376-9516-529ad9fb466f",
    "resource": {
      "resourceType": "Patient",
      "id": "1a19c21b-41f3-4376-9516-529ad9fb466f",
      "meta": {
        "profile": [ "http://hl7.org/fhir/us/qicore/StructureDefinition/qicore-patient" ]
      },
      "text": {
        "status": "generated",
        "div": "<div xmlns=\"http://www.w3.org/1999/xhtml\"><div class=\"hapiHeaderText\">MedDCAnticoaStartTmEQEncDischTm <b>NUMERPASS </b></div><table class=\"hapiPropertyTable\"><tbody><tr><td>Identifier</td><td>9128716b0b21eec571089f9d5d345182</td></tr><tr><td>Date of birth</td><td><span>23 May 1954</span></td></tr></tbody></table></div>"
      },
      "extension": [ {
        "url": "http://hl7.org/fhir/us/core/StructureDefinition/us-core-race",
        "extension": [ {
          "url": "ombCategory",
          "valueCoding": {
            "system": "urn:oid:2.16.840.1.113883.6.238",
            "code": "1002-5",
            "display": "American Indian or Alaska Native",
            "userSelected": true
          }
        }, {
          "url": "text",
          "valueString": "American Indian or Alaska Native"
        } ]
      }, {
        "url": "http://hl7.org/fhir/us/core/StructureDefinition/us-core-ethnicity",
        "extension": [ {
          "url": "ombCategory",
          "valueCoding": {
            "system": "urn:oid:2.16.840.1.113883.6.238",
            "code": "2135-2",
            "display": "Hispanic or Latino",
            "userSelected": true
          }
        }, {
          "url": "text",
          "valueString": "Hispanic or Latino"
        } ]
      } ],
      "identifier": [ {
        "type": {
          "coding": [ {
            "system": "http://terminology.hl7.org/CodeSystem/v2-0203",
            "code": "MR"
          } ]
        },
        "system": "https://bonnie-fhir.healthit.gov/",
        "value": "633c9d030968f8012250fc9d"
      } ],
      "active": true,
      "name": [ {
        "use": "usual",
        "family": "NUMERPass",
        "given": [ "MedDCAnticoaStartTmEQEncDischTm" ]
      } ],
      "gender": "female",
      "birthDate": "1955-05-23"
    },
    "request": {
      "method": "PUT",
      "url": "Patient/1a19c21b-41f3-4376-9516-529ad9fb466f"
    }
  }, {
    "fullUrl": "https://madie.cms.gov/Encounter/ef25689c-09bb-44f8-9342-19434d979a2a",
    "resource": {
      "resourceType": "Encounter",
      "id": "ef25689c-09bb-44f8-9342-19434d979a2a",
      "meta": {
        "profile": [ "http://hl7.org/fhir/us/qicore/StructureDefinition/qicore-encounter" ]
      },
      "status": "finished",
      "class": {
        "system": "http://terminology.hl7.org/CodeSystem/v3-ActCode",
        "code": "IMP",
        "display": "inpatient encounter"
      },
      "type": [ {
        "coding": [ {
          "system": "http://snomed.info/sct",
          "code": "32485007"
        } ]
      } ],
      "subject": {
        "reference": "Patient/1a19c21b-41f3-4376-9516-529ad9fb466f"
      },
      "period": {
        "start": "2026-11-20T08:00:00.000+00:00",
        "end": "2026-11-24T08:15:00.000+00:00"
      },
      "length": {
        "value": 4,
        "unit": "days"
      },
      "reasonReference": [ {
        "reference": "Condition/f99ff9cc-ee11-418e-9319-e3297a624806"
      } ]
    },
    "request": {
      "method": "PUT",
      "url": "Encounter/ef25689c-09bb-44f8-9342-19434d979a2a"
    }
  }, {
    "fullUrl": "https://madie.cms.gov/MedicationRequest/d431c1d1-3789-4669-9977-d6b62f15d369",
    "resource": {
      "resourceType": "MedicationRequest",
      "id": "d431c1d1-3789-4669-9977-d6b62f15d369",
      "meta": {
        "profile": [ "http://hl7.org/fhir/us/qicore/StructureDefinition/qicore-medicationrequest" ]
      },
      "status": "active",
      "intent": "order",
      "category": [ {
        "coding": [ {
          "system": "http://terminology.hl7.org/CodeSystem/medicationrequest-category",
          "code": "community",
          "display": "Community",
          "userSelected": true
        } ]
      } ],
      "medicationCodeableConcept": {
        "coding": [ {
          "system": "http://www.nlm.nih.gov/research/umls/rxnorm",
          "code": "308351"
        } ]
      },
      "subject": {
        "reference": "Patient/1a19c21b-41f3-4376-9516-529ad9fb466f"
      },
      "authoredOn": "2026-11-24T08:15:00.000+00:00",
      "requester": {
        "reference": "Practitioner/example"
      }
    },
    "request": {
      "method": "PUT",
      "url": "MedicationRequest/d431c1d1-3789-4669-9977-d6b62f15d369"
    }
  }, {
    "fullUrl": "https://madie.cms.gov/claim/5ca62962b8484628b8de1ec5",
    "resource": {
      "resourceType": "Claim",
      "id": "5ca62962b8484628b8de1ec5",
      "meta": {
        "profile": [ "http://hl7.org/fhir/us/qicore/StructureDefinition/qicore-claim" ]
      },
      "status": "active",
      "type": {
        "coding": [ {
          "system": "http://terminology.hl7.org/CodeSystem/claim-type",
          "code": "institutional"
        } ]
      },
      "use": "claim",
      "patient": {
        "reference": "Patient/d170a0a8-b5ad-4303-b6df-e304dd5f92ad"
      },
      "created": "2026-12-01",
      "provider": {
        "reference": "Practitioner/6e59884b-d7c3-46af-9244-da2d21fd835b"
      },
      "priority": {
        "coding": [ {
          "system": "http://terminology.hl7.org/CodeSystem/processpriority",
          "code": "normal"
        } ]
      },
      "diagnosis": [ {
        "sequence": 1,
        "diagnosisCodeableConcept": {
          "coding": [ {
            "system": "http://hl7.org/fhir/sid/icd-10-cm",
            "code": "I63.00"
          } ]
        },
        "type": [ {
          "coding": [ {
            "system": "http://terminology.hl7.org/CodeSystem/ex-diagnosistype",
            "code": "principal"
          } ]
        } ]
      } ],
      "insurance": [ {
        "sequence": 1,
        "focal": true,
        "coverage": {
          "reference": "Coverage/5fa041661c76ba66d9959367"
        }
      } ],
      "item": [ {
        "sequence": 1,
        "diagnosisSequence": [ 1 ],
        "productOrService": {
          "coding": [ {
            "system": "http://terminology.hl7.org/CodeSystem/ex-USCLS",
            "code": "99555"
          } ]
        },
        "encounter": [ {
          "reference": "Encounter/ef25689c-09bb-44f8-9342-19434d979a2a"
        } ]
      } ]
    },
    "request": {
      "method": "PUT",
      "url": "Claim/5ca62962b8484628b8de1ec5"
    }
  }, {
    "fullUrl": "https://madie.cms.gov/Coverage/5915da88-90b4-4a45-8c8d-2d6ed3600d22",
    "resource": {
      "resourceType": "Coverage",
      "id": "5915da88-90b4-4a45-8c8d-2d6ed3600d22",
      "meta": {
        "profile": [ "http://hl7.org/fhir/us/qicore/StructureDefinition/qicore-coverage" ]
      },
      "status": "active",
      "subscriberId": "523435",
      "beneficiary": {
        "reference": "Patient/162a5913-9989-42f2-8d6a-ae460e245e4c"
      },
      "relationship": {
        "coding": [ {
          "system": "http://terminology.hl7.org/CodeSystem/subscriber-relationship",
          "code": "self"
        } ]
      },
      "payor": [ {
        "reference": "Organization/304dddf4-c1cd-4aa9-840a-858c479c0111"
      } ]
    },
    "request": {
      "method": "PUT",
      "url": "Coverage/5915da88-90b4-4a45-8c8d-2d6ed3600d22"
    }
  }, {
    "fullUrl": "https://madie.cms.gov/Procedure/806c69c3-71fa-4d94-9f07-772b4337eb88",
    "resource": {
      "resourceType": "Procedure",
      "id": "806c69c3-71fa-4d94-9f07-772b4337eb88",
      "meta": {
        "profile": [ "http://hl7.org/fhir/us/qicore/StructureDefinition/qicore-procedure" ]
      },
      "extension": [ {
        "url": "http://hl7.org/fhir/us/qicore/StructureDefinition/qicore-recorded",
        "valueDateTime": "2026-11-19T13:35:00.000+00:00"
      } ],
      "status": "completed",
      "code": {
        "coding": [ {
          "system": "http://www.cms.gov/Medicare/Coding/ICD10",
          "code": "02560ZZ"
        }, {
          "system": "http://snomed.info/sct",
          "code": "175095005"
        } ]
      },
      "subject": {
        "reference": "Patient/1a19c21b-41f3-4376-9516-529ad9fb466f"
      },
      "performedPeriod": {
        "start": "2026-11-20T06:00:00.000+00:00",
        "end": "2026-11-20T07:15:00.000+00:00"
      }
    },
    "request": {
      "method": "PUT",
      "url": "Procedure/806c69c3-71fa-4d94-9f07-772b4337eb88"
    }
  }, {
    "fullUrl": "https://madie.cms.gov/claim/5ca62962b8484628b8de1ec5",
    "resource": {
      "resourceType": "Claim",
      "id": "5ca62962b8484628b8de1ec5",
      "meta": {
        "profile": [ "http://hl7.org/fhir/us/qicore/StructureDefinition/qicore-claim" ]
      },
      "status": "active",
      "type": {
        "coding": [ {
          "system": "http://terminology.hl7.org/CodeSystem/claim-type",
          "code": "institutional"
        } ]
      },
      "use": "claim",
      "patient": {
        "reference": "Patient/d170a0a8-b5ad-4303-b6df-e304dd5f92ad"
      },
      "created": "2026-12-01",
      "provider": {
        "reference": "Practitioner/6e59884b-d7c3-46af-9244-da2d21fd835b"
      },
      "priority": {
        "coding": [ {
          "system": "http://terminology.hl7.org/CodeSystem/processpriority",
          "code": "normal"
        } ]
      },
      "diagnosis": [ {
        "sequence": 1,
        "diagnosisCodeableConcept": {
          "coding": [ {
            "system": "http://hl7.org/fhir/sid/icd-10-cm",
            "code": "I63.00"
          } ]
        },
        "type": [ {
          "coding": [ {
            "system": "http://terminology.hl7.org/CodeSystem/ex-diagnosistype",
            "code": "principal"
          } ]
        } ]
      } ],
      "insurance": [ {
        "sequence": 1,
        "focal": true,
        "coverage": {
          "reference": "Coverage/5fa041661c76ba66d9959367"
        }
      } ],
      "item": [ {
        "sequence": 1,
        "diagnosisSequence": [ 1 ],
        "productOrService": {
          "coding": [ {
            "system": "http://terminology.hl7.org/CodeSystem/ex-USCLS",
            "code": "99555"
          } ]
        },
        "encounter": [ {
          "reference": "Encounter/5ca4cde2b8484613a5552a68"
        } ]
      } ]
    },
    "request": {
      "method": "PUT",
      "url": "Claim/5ca62962b8484628b8de1ec5"
    }
  }, {
    "fullUrl": "https://madie.cms.gov/Condition/f99ff9cc-ee11-418e-9319-e3297a624806",
    "resource": {
      "resourceType": "Condition",
      "id": "f99ff9cc-ee11-418e-9319-e3297a624806",
      "meta": {
        "profile": [ "http://hl7.org/fhir/us/qicore/StructureDefinition/qicore-condition-problems-health-concerns" ]
      },
      "clinicalStatus": {
        "coding": [ {
          "system": "http://terminology.hl7.org/CodeSystem/condition-clinical",
          "code": "active"
        } ]
      },
      "verificationStatus": {
        "coding": [ {
          "system": "http://terminology.hl7.org/CodeSystem/condition-ver-status",
          "code": "confirmed"
        } ]
      },
      "category": [ {
        "coding": [ {
          "system": "http://terminology.hl7.org/CodeSystem/condition-category",
          "code": "encounter-diagnosis",
          "display": "Encounter Diagnosis"
        } ]
      } ],
      "code": {
        "coding": [ {
          "system": "http://snomed.info/sct",
          "version": "2021-09",
          "code": "111297002",
          "display": "Nonparalytic stroke (disorder)",
          "userSelected": true
        } ]
      },
      "subject": {
        "reference": "Patient/1a19c21b-41f3-4376-9516-529ad9fb466f"
      },
      "recordedDate": "2026-10-13T08:00:00.000+00:00"
    },
    "request": {
      "method": "PUT",
      "url": "Condition/f99ff9cc-ee11-418e-9319-e3297a624806"
    }
  }, {
    "fullUrl": "https://madie.cms.gov/Organization/304dddf4-c1cd-4aa9-840a-858c479c0111",
    "resource": {
      "resourceType": "Organization",
      "id": "304dddf4-c1cd-4aa9-840a-858c479c0111",
      "meta": {
        "profile": [ "http://hl7.org/fhir/us/qicore/StructureDefinition/qicore-organization" ]
      },
      "identifier": [ {
        "use": "temp",
        "system": "urn:oid:2.16.840.1.113883.4.4",
        "value": "21-3259825"
      } ],
      "active": true,
      "type": [ {
        "coding": [ {
          "system": "http://terminology.hl7.org/CodeSystem/organization-type",
          "code": "pay",
          "display": "Payer"
        } ]
      } ],
      "name": "Blue Cross Blue Shield of Texas",
      "telecom": [ {
        "system": "phone",
        "value": "(+1) 972-766-6900"
      } ],
      "address": [ {
        "use": "billing",
        "type": "postal",
        "line": [ "P.O. Box 660044" ],
        "city": "Dallas",
        "state": "TX",
        "postalCode": "75266-0044",
        "country": "USA"
      } ]
    },
    "request": {
      "method": "PUT",
      "url": "Organization/304dddf4-c1cd-4aa9-840a-858c479c0111"
    }
  }, {
    "fullUrl": "https://madie.cms.gov/Practitioner/6e59884b-d7c3-46af-9244-da2d21fd835b",
    "resource": {
      "resourceType": "Practitioner",
      "id": "6e59884b-d7c3-46af-9244-da2d21fd835b",
      "identifier": [ {
        "system": "http://hl7.org/fhir/sid/us-npi",
        "value": "123456"
      } ],
      "name": [ {
        "family": "Evil",
        "prefix": [ "Dr" ]
      } ]
    },
    "request": {
      "method": "PUT",
      "url": "Practitioner/6e59884b-d7c3-46af-9244-da2d21fd835b"
    }
  }, {
    "fullUrl": "https://madie.cms.gov/MeasureReport/c30a7314-65d5-48cb-a1bd-830e037749b4",
    "resource": {
      "resourceType": "MeasureReport",
      "id": "c30a7314-65d5-48cb-a1bd-830e037749b4",
      "meta": {
        "profile": [ "http://hl7.org/fhir/us/cqfmeasures/StructureDefinition/test-case-cqfm" ]
      },
      "contained": [ {
        "resourceType": "Parameters",
        "id": "6d0e0ef6-d17b-48c5-a4d5-fcb594d2f0ac-parameters",
        "parameter": [ {
          "name": "subject",
          "valueString": "1a19c21b-41f3-4376-9516-529ad9fb466f"
        } ]
      } ],
      "extension": [ {
        "url": "http://hl7.org/fhir/StructureDefinition/cqf-inputParameters",
        "valueReference": {
          "reference": "#6d0e0ef6-d17b-48c5-a4d5-fcb594d2f0ac-parameters"
        }
      }, {
        "url": "http://hl7.org/fhir/us/cqfmeasures/StructureDefinition/cqfm-testCaseDescription",
        "valueMarkdown": "Pt. discharged on anticoagulant, starts time = OccurA discharge time\n"
      } ],
      "modifierExtension": [ {
        "url": "http://hl7.org/fhir/us/cqfmeasures/StructureDefinition/cqfm-isTestCase",
        "valueBoolean": true
      } ],
      "status": "complete",
      "type": "individual",
      "measure": "https://madie.cms.gov/Measure/CMS71FHIRSTKAnticoagAFFlutter",
      "period": {
        "start": "2026-01-01",
        "end": "2026-12-31"
      },
      "group": [ {
        "id": "Group_1",
        "population": [ {
          "id": "InitialPopulation_1",
          "code": {
            "coding": [ {
              "system": "http://terminology.hl7.org/CodeSystem/measure-population",
              "code": "initial-population",
              "display": "Initial Population"
            } ]
          },
          "count": 1
        }, {
          "id": "Denominator_1",
          "code": {
            "coding": [ {
              "system": "http://terminology.hl7.org/CodeSystem/measure-population",
              "code": "denominator",
              "display": "Denominator"
            } ]
          },
          "count": 1
        }, {
          "id": "DenominatorExclusion_1",
          "code": {
            "coding": [ {
              "system": "http://terminology.hl7.org/CodeSystem/measure-population",
              "code": "denominator-exclusion",
              "display": "Denominator Exclusion"
            } ]
          },
          "count": 0
        }, {
          "id": "Numerator_1",
          "code": {
            "coding": [ {
              "system": "http://terminology.hl7.org/CodeSystem/measure-population",
              "code": "numerator",
              "display": "Numerator"
            } ]
          },
          "count": 1
        }, {
          "id": "DenominatorException_1",
          "code": {
            "coding": [ {
              "system": "http://terminology.hl7.org/CodeSystem/measure-population",
              "code": "denominator-exception",
              "display": "Denominator Exception"
            } ]
          },
          "count": 0
        } ],
        "measureScore": {
          "value": 0.0
        }
      } ],
      "evaluatedResource": [ {
        "reference": "Patient/1a19c21b-41f3-4376-9516-529ad9fb466f"
      }, {
        "reference": "Encounter/ef25689c-09bb-44f8-9342-19434d979a2a"
      }, {
        "reference": "MedicationRequest/d431c1d1-3789-4669-9977-d6b62f15d369"
      }, {
        "reference": "Claim/5ca62962b8484628b8de1ec5"
      }, {
        "reference": "Coverage/5915da88-90b4-4a45-8c8d-2d6ed3600d22"
      }, {
        "reference": "Procedure/806c69c3-71fa-4d94-9f07-772b4337eb88"
      }, {
        "reference": "Claim/5ca62962b8484628b8de1ec5"
      }, {
        "reference": "Condition/f99ff9cc-ee11-418e-9319-e3297a624806"
      }, {
        "reference": "Organization/304dddf4-c1cd-4aa9-840a-858c479c0111"
      }, {
        "reference": "Practitioner/6e59884b-d7c3-46af-9244-da2d21fd835b"
      } ]
    },
    "request": {
      "method": "PUT",
      "url": "MeasureReport/c30a7314-65d5-48cb-a1bd-830e037749b4"
    }
  } ]
}