{
  "resourceType": "Bundle",
  "id": "6495b1fde06f07b7e170780c",
  "type": "collection",
  "entry": [ {
    "fullUrl": "https://madie.cms.gov/Patient/7c34502d-cd54-4f08-9c0c-93d3c04fc3bf",
    "resource": {
      "resourceType": "Patient",
      "id": "7c34502d-cd54-4f08-9c0c-93d3c04fc3bf",
      "meta": {
        "profile": [ "http://hl7.org/fhir/us/qicore/StructureDefinition/qicore-patient" ]
      },
      "extension": [ {
        "url": "http://hl7.org/fhir/us/core/StructureDefinition/us-core-race",
        "extension": [ {
          "url": "ombCategory",
          "valueCoding": {
            "system": "urn:oid:2.16.840.1.113883.6.238",
            "code": "2076-8",
            "display": "Native Hawaiian or Other Pacific Islander",
            "userSelected": true
          }
        }, {
          "url": "text",
          "valueString": "Native Hawaiian or Other Pacific Islander"
        } ]
      }, {
        "url": "http://hl7.org/fhir/us/core/StructureDefinition/us-core-ethnicity",
        "extension": [ {
          "url": "ombCategory",
          "valueCoding": {
            "system": "urn:oid:2.16.840.1.113883.6.238",
            "code": "2186-5",
            "display": "Not Hispanic or Latino",
            "userSelected": true
          }
        }, {
          "url": "text",
          "valueString": "Not Hispanic or Latino"
        } ]
      } ],
      "identifier": [ {
        "type": {
          "coding": [ {
            "system": "http://terminology.hl7.org/CodeSystem/v2-0203",
            "code": "MR"
          } ]
        },
        "system": "https://bonnie-fhir.healthit.gov/",
        "value": "6495b1fde06f07b7e170780c"
      } ],
      "name": [ {
        "family": "IPPass",
        "given": [ "EncOn240DayEdgeofMP" ]
      } ],
      "gender": "male",
      "birthDate": "1987-05-25"
    }
  }, {
    "fullUrl": "https://madie.cms.gov/Condition/b709c0e8-b074-48a8-b04a-c5b42256d2ac",
    "resource": {
      "resourceType": "Condition",
      "id": "b709c0e8-b074-48a8-b04a-c5b42256d2ac",
      "meta": {
        "profile": [ "http://hl7.org/fhir/us/qicore/StructureDefinition/qicore-condition-problems-health-concerns" ]
      },
      "clinicalStatus": {
        "coding": [ {
          "system": "http://terminology.hl7.org/CodeSystem/condition-clinical",
          "code": "active",
          "display": "active",
          "userSelected": true
        } ]
      },
      "category": [ {
        "coding": [ {
          "system": "http://terminology.hl7.org/CodeSystem/condition-category",
          "code": "problem-list-item",
          "display": "Problem List Item"
        } ]
      } ],
      "code": {
        "coding": [ {
          "system": "http://hl7.org/fhir/sid/icd-9-cm",
          "version": "2013",
          "code": "042",
          "display": "Human immunodeficiency virus [HIV] disease",
          "userSelected": true
        }, {
          "system": "http://snomed.info/sct",
          "version": "http://snomed.info/sct/731000124108/version/20250301",
          "code": "165816005",
          "userSelected": true
        } ]
      },
      "subject": {
        "reference": "Patient/7c34502d-cd54-4f08-9c0c-93d3c04fc3bf"
      },
      "onsetDateTime": "2021-12-02T12:00:00.000+00:00",
      "recordedDate": "2021-12-02T12:00:00.000+00:00"
    }
  }, {
    "fullUrl": "https://madie.cms.gov/Encounter/c6911a55-23e7-4872-97b5-75713ea1fe76",
    "resource": {
      "resourceType": "Encounter",
      "id": "c6911a55-23e7-4872-97b5-75713ea1fe76",
      "meta": {
        "profile": [ "http://hl7.org/fhir/us/qicore/StructureDefinition/qicore-encounter" ]
      },
      "status": "finished",
      "class": {
        "system": "http://terminology.hl7.org/CodeSystem/v3-ActCode",
        "code": "AMB",
        "display": "ambulatory"
      },
      "type": [ {
        "coding": [ {
          "system": "http://www.ama-assn.org/go/cpt",
          "code": "99386",
          "userSelected": true
        } ]
      } ],
      "subject": {
        "reference": "Patient/7c34502d-cd54-4f08-9c0c-93d3c04fc3bf"
      },
      "period": {
        "start": "2026-08-29T15:02:00.000+00:00",
        "end": "2026-08-29T15:55:00.000+00:00"
      }
    }
  }, {
    "fullUrl": "https://madie.cms.gov/Coverage/ccd84728-9dc2-49f4-880f-0fb769b3909f",
    "resource": {
      "resourceType": "Coverage",
      "id": "ccd84728-9dc2-49f4-880f-0fb769b3909f",
      "meta": {
        "profile": [ "http://hl7.org/fhir/us/qicore/StructureDefinition/qicore-coverage" ]
      },
      "status": "active",
      "subscriberId": "123456",
      "beneficiary": {
        "reference": "Patient/7c34502d-cd54-4f08-9c0c-93d3c04fc3bf"
      },
      "relationship": {
        "coding": [ {
          "system": "http://terminology.hl7.org/CodeSystem/subscriber-relationship",
          "code": "self",
          "display": "Self"
        } ]
      },
      "payor": [ {
        "reference": "Organization/3b79fb14-66b2-420d-8534-a310fecd0108"
      } ]
    }
  }, {
    "fullUrl": "https://madie.cms.gov/Organization/3b79fb14-66b2-420d-8534-a310fecd0108",
    "resource": {
      "resourceType": "Organization",
      "id": "3b79fb14-66b2-420d-8534-a310fecd0108",
      "meta": {
        "profile": [ "http://hl7.org/fhir/us/qicore/StructureDefinition/qicore-organization" ]
      },
      "identifier": [ {
        "use": "temp",
        "system": "urn:oid:2.16.840.1.113883.4.4",
        "value": "21-3259825"
      } ],
      "active": true,
      "type": [ {
        "coding": [ {
          "system": "http://terminology.hl7.org/CodeSystem/organization-type",
          "code": "pay",
          "display": "Payer"
        } ]
      } ],
      "name": "Blue Cross Blue Shield of Texas",
      "telecom": [ {
        "system": "phone",
        "value": "(+1) 972-766-6900"
      } ],
      "address": [ {
        "use": "billing",
        "type": "postal",
        "line": [ "P.O. Box 660044" ],
        "city": "Dallas",
        "state": "TX",
        "postalCode": "75266-0044",
        "country": "USA"
      } ]
    }
  }, {
    "fullUrl": "https://madie.cms.gov/Practitioner/22a89743-5f69-4443-85be-2aef623a1bf7",
    "resource": {
      "resourceType": "Practitioner",
      "id": "22a89743-5f69-4443-85be-2aef623a1bf7",
      "meta": {
        "profile": [ "http://hl7.org/fhir/us/qicore/StructureDefinition/qicore-practitioner" ]
      },
      "identifier": [ {
        "system": "http://hl7.org/fhir/sid/us-npi",
        "value": "1689411712"
      } ],
      "name": [ {
        "family": "Evil",
        "prefix": [ "Dr" ]
      } ]
    }
  }, {
    "fullUrl": "https://madie.cms.gov/MeasureReport/ac205e22-6813-40e6-ae4d-c08ed03a03c8",
    "resource": {
      "resourceType": "MeasureReport",
      "id": "ac205e22-6813-40e6-ae4d-c08ed03a03c8",
      "meta": {
        "profile": [ "http://hl7.org/fhir/us/cqfmeasures/StructureDefinition/test-case-cqfm" ]
      },
      "contained": [ {
        "resourceType": "Parameters",
        "id": "dcc9b761-c49b-41fa-8aa1-0844020495e5-parameters",
        "parameter": [ {
          "name": "subject",
          "valueString": "7c34502d-cd54-4f08-9c0c-93d3c04fc3bf"
        } ]
      } ],
      "extension": [ {
        "url": "http://hl7.org/fhir/StructureDefinition/cqf-inputParameters",
        "valueReference": {
          "reference": "#dcc9b761-c49b-41fa-8aa1-0844020495e5-parameters"
        }
      }, {
        "url": "http://hl7.org/fhir/us/cqfmeasures/StructureDefinition/cqfm-testCaseDescription",
        "valueMarkdown": "Patient with a diagnosis of HIV years before start of the MP and a qualifying encounter on inside 240 day edge of the MP "
      } ],
      "modifierExtension": [ {
        "url": "http://hl7.org/fhir/us/cqfmeasures/StructureDefinition/cqfm-isTestCase",
        "valueBoolean": true
      } ],
      "status": "complete",
      "type": "individual",
      "measure": "https://madie.cms.gov/Measure/CMS314FHIRHIVViralSuppression",
      "period": {
        "start": "2026-01-01",
        "end": "2026-12-31"
      },
      "group": [ {
        "id": "Group_1",
        "population": [ {
          "id": "InitialPopulation_1",
          "code": {
            "coding": [ {
              "system": "http://terminology.hl7.org/CodeSystem/measure-population",
              "code": "initial-population",
              "display": "Initial Population"
            } ]
          },
          "count": 1
        }, {
          "id": "Denominator_1",
          "code": {
            "coding": [ {
              "system": "http://terminology.hl7.org/CodeSystem/measure-population",
              "code": "denominator",
              "display": "Denominator"
            } ]
          },
          "count": 1
        }, {
          "id": "Numerator_1",
          "code": {
            "coding": [ {
              "system": "http://terminology.hl7.org/CodeSystem/measure-population",
              "code": "numerator",
              "display": "Numerator"
            } ]
          },
          "count": 0
        } ],
        "measureScore": {
          "value": 1.0
        }
      } ],
      "evaluatedResource": [ {
        "reference": "Patient/7c34502d-cd54-4f08-9c0c-93d3c04fc3bf"
      }, {
        "reference": "Condition/b709c0e8-b074-48a8-b04a-c5b42256d2ac"
      }, {
        "reference": "Encounter/c6911a55-23e7-4872-97b5-75713ea1fe76"
      }, {
        "reference": "Coverage/ccd84728-9dc2-49f4-880f-0fb769b3909f"
      }, {
        "reference": "Organization/3b79fb14-66b2-420d-8534-a310fecd0108"
      }, {
        "reference": "Practitioner/22a89743-5f69-4443-85be-2aef623a1bf7"
      } ]
    }
  } ]
}