{
  "resourceType": "Bundle",
  "id": "61095b0998086b53805591b5",
  "type": "collection",
  "entry": [ {
    "fullUrl": "https://madie.cms.gov/Patient/8bab0696-02d1-4e8f-a719-a91621cce9e0",
    "resource": {
      "resourceType": "Patient",
      "id": "8bab0696-02d1-4e8f-a719-a91621cce9e0",
      "meta": {
        "profile": [ "http://hl7.org/fhir/us/qicore/StructureDefinition/qicore-patient" ]
      },
      "extension": [ {
        "url": "http://hl7.org/fhir/us/core/StructureDefinition/us-core-race",
        "extension": [ {
          "url": "ombCategory",
          "valueCoding": {
            "system": "urn:oid:2.16.840.1.113883.6.238",
            "code": "1002-5",
            "display": "American Indian or Alaska Native",
            "userSelected": true
          }
        }, {
          "url": "text",
          "valueString": "American Indian or Alaska Native"
        } ]
      }, {
        "url": "http://hl7.org/fhir/us/core/StructureDefinition/us-core-ethnicity",
        "extension": [ {
          "url": "ombCategory",
          "valueCoding": {
            "system": "urn:oid:2.16.840.1.113883.6.238",
            "code": "2135-2",
            "display": "Hispanic or Latino",
            "userSelected": true
          }
        }, {
          "url": "text",
          "valueString": "Hispanic or Latino"
        } ]
      } ],
      "identifier": [ {
        "type": {
          "coding": [ {
            "system": "http://terminology.hl7.org/CodeSystem/v2-0203",
            "code": "MR"
          } ]
        },
        "system": "https://bonnie-fhir.healthit.gov/",
        "value": "61095b0998086b53805591b5"
      } ],
      "active": true,
      "name": [ {
        "use": "usual",
        "family": "DENEXPASS",
        "given": [ "DisordersOverlapsCatSurg" ]
      } ],
      "gender": "female",
      "birthDate": "1996-01-01"
    }
  }, {
    "fullUrl": "https://madie.cms.gov/Observation/8287d220-332a-41ba-8186-47c31bf66556",
    "resource": {
      "resourceType": "Observation",
      "id": "8287d220-332a-41ba-8186-47c31bf66556",
      "meta": {
        "profile": [ "http://hl7.org/fhir/us/qicore/StructureDefinition/qicore-observation-clinical-result" ]
      },
      "status": "final",
      "category": [ {
        "coding": [ {
          "system": "http://terminology.hl7.org/CodeSystem/observation-category",
          "code": "exam",
          "display": "Exam"
        } ]
      }, {
        "coding": [ {
          "system": "http://terminology.hl7.org/CodeSystem/observation-category",
          "code": "survey"
        } ]
      } ],
      "code": {
        "coding": [ {
          "system": "http://snomed.info/sct",
          "version": "http://snomed.info/sct/731000124108/version/20250301",
          "code": "419775003"
        } ]
      },
      "subject": {
        "reference": "Patient/8bab0696-02d1-4e8f-a719-a91621cce9e0"
      },
      "effectivePeriod": {
        "start": "2026-03-13T09:00:00.000+00:00",
        "end": "2026-03-13T09:30:00.000+00:00"
      },
      "dataAbsentReason": {
        "coding": [ {
          "system": "http://terminology.hl7.org/CodeSystem/data-absent-reason",
          "code": "unknown",
          "display": "Unknown"
        } ]
      }
    }
  }, {
    "fullUrl": "https://madie.cms.gov/Procedure/1d4350ef-15df-47aa-8869-83bd06955935",
    "resource": {
      "resourceType": "Procedure",
      "id": "1d4350ef-15df-47aa-8869-83bd06955935",
      "meta": {
        "profile": [ "http://hl7.org/fhir/us/qicore/StructureDefinition/qicore-procedure" ]
      },
      "extension": [ {
        "url": "http://hl7.org/fhir/us/qicore/StructureDefinition/qicore-recorded",
        "valueDateTime": "2026-03-05T13:35:00.000+00:00"
      } ],
      "status": "completed",
      "code": {
        "coding": [ {
          "system": "http://snomed.info/sct",
          "code": "84149000"
        } ]
      },
      "subject": {
        "reference": "Patient/8bab0696-02d1-4e8f-a719-a91621cce9e0"
      },
      "performedPeriod": {
        "start": "2026-03-05T13:20:00.000+00:00",
        "end": "2026-04-05T14:30:00.000+00:00"
      }
    }
  }, {
    "fullUrl": "https://madie.cms.gov/Condition/9ec161f5-f89e-457c-a7a7-fdb3e777fcc0",
    "resource": {
      "resourceType": "Condition",
      "id": "9ec161f5-f89e-457c-a7a7-fdb3e777fcc0",
      "meta": {
        "profile": [ "http://hl7.org/fhir/us/qicore/StructureDefinition/qicore-condition-problems-health-concerns" ]
      },
      "clinicalStatus": {
        "coding": [ {
          "system": "http://terminology.hl7.org/CodeSystem/condition-clinical",
          "code": "active",
          "display": "active",
          "userSelected": true
        } ]
      },
      "category": [ {
        "coding": [ {
          "system": "http://terminology.hl7.org/CodeSystem/condition-category",
          "code": "problem-list-item",
          "display": "Problem List Item"
        } ]
      } ],
      "code": {
        "coding": [ {
          "system": "http://hl7.org/fhir/sid/icd-10-cm",
          "code": "H31.301",
          "userSelected": true
        }, {
          "system": "http://hl7.org/fhir/sid/icd-10-cm",
          "code": "H55.00",
          "userSelected": true
        }, {
          "system": "http://hl7.org/fhir/sid/icd-10-cm",
          "code": "H47.20",
          "userSelected": true
        }, {
          "system": "http://hl7.org/fhir/sid/icd-10-cm",
          "code": "Q12.8",
          "userSelected": true
        }, {
          "system": "http://hl7.org/fhir/sid/icd-10-cm",
          "code": "H26.101",
          "userSelected": true
        }, {
          "system": "http://hl7.org/fhir/sid/icd-10-cm",
          "code": "H53.482",
          "userSelected": true
        }, {
          "system": "http://hl7.org/fhir/sid/icd-10-cm",
          "code": "H30.001",
          "userSelected": true
        }, {
          "system": "http://hl7.org/fhir/sid/icd-10-cm",
          "code": "H31.011",
          "userSelected": true
        }, {
          "system": "http://snomed.info/sct",
          "version": "http://snomed.info/sct/731000124108/version/20250301",
          "code": "128329001",
          "userSelected": true
        } ]
      },
      "subject": {
        "reference": "Patient/8bab0696-02d1-4e8f-a719-a91621cce9e0"
      },
      "onsetDateTime": "2024-11-01T08:00:00.000+00:00"
    }
  }, {
    "fullUrl": "https://madie.cms.gov/Coverage/f36fabcc-b4b7-469e-bfa8-4b0f8c1ecfa7",
    "resource": {
      "resourceType": "Coverage",
      "id": "f36fabcc-b4b7-469e-bfa8-4b0f8c1ecfa7",
      "meta": {
        "profile": [ "http://hl7.org/fhir/us/qicore/StructureDefinition/qicore-coverage" ]
      },
      "status": "active",
      "subscriberId": "123456",
      "beneficiary": {
        "reference": "Patient/8bab0696-02d1-4e8f-a719-a91621cce9e0"
      },
      "relationship": {
        "coding": [ {
          "system": "http://terminology.hl7.org/CodeSystem/subscriber-relationship",
          "code": "self",
          "display": "Self"
        } ]
      },
      "payor": [ {
        "reference": "Organization/77e5559b-ecfc-4b36-ae04-aa25b598ce44"
      } ]
    }
  }, {
    "fullUrl": "https://madie.cms.gov/Organization/77e5559b-ecfc-4b36-ae04-aa25b598ce44",
    "resource": {
      "resourceType": "Organization",
      "id": "77e5559b-ecfc-4b36-ae04-aa25b598ce44",
      "meta": {
        "profile": [ "http://hl7.org/fhir/us/qicore/StructureDefinition/qicore-organization" ]
      },
      "identifier": [ {
        "use": "temp",
        "system": "urn:oid:2.16.840.1.113883.4.4",
        "value": "21-3259825"
      } ],
      "active": true,
      "type": [ {
        "coding": [ {
          "system": "http://terminology.hl7.org/CodeSystem/organization-type",
          "code": "pay",
          "display": "Payer"
        } ]
      } ],
      "name": "Blue Cross Blue Shield of Texas",
      "telecom": [ {
        "system": "phone",
        "value": "(+1) 972-766-6900"
      } ],
      "address": [ {
        "use": "billing",
        "type": "postal",
        "line": [ "P.O. Box 660044" ],
        "city": "Dallas",
        "state": "TX",
        "postalCode": "75266-0044",
        "country": "USA"
      } ]
    }
  }, {
    "fullUrl": "https://madie.cms.gov/Practitioner/72434c63-eeb9-4830-b38e-28f2cc2e61cd",
    "resource": {
      "resourceType": "Practitioner",
      "id": "72434c63-eeb9-4830-b38e-28f2cc2e61cd",
      "meta": {
        "profile": [ "http://hl7.org/fhir/us/qicore/StructureDefinition/qicore-practitioner" ]
      },
      "identifier": [ {
        "system": "http://hl7.org/fhir/sid/us-npi",
        "value": "1689411712"
      } ],
      "name": [ {
        "family": "Evil",
        "prefix": [ "Dr" ]
      } ]
    }
  }, {
    "fullUrl": "https://madie.cms.gov/MeasureReport/375e5eeb-ac50-4676-8831-bb0796a53b0c",
    "resource": {
      "resourceType": "MeasureReport",
      "id": "375e5eeb-ac50-4676-8831-bb0796a53b0c",
      "meta": {
        "profile": [ "http://hl7.org/fhir/us/cqfmeasures/StructureDefinition/test-case-cqfm" ]
      },
      "contained": [ {
        "resourceType": "Parameters",
        "id": "9f7dc151-2ffe-4a43-a816-a3abbd1153cf-parameters",
        "parameter": [ {
          "name": "subject",
          "valueString": "8bab0696-02d1-4e8f-a719-a91621cce9e0"
        } ]
      } ],
      "extension": [ {
        "url": "http://hl7.org/fhir/StructureDefinition/cqf-inputParameters",
        "valueReference": {
          "reference": "#9f7dc151-2ffe-4a43-a816-a3abbd1153cf-parameters"
        }
      }, {
        "url": "http://hl7.org/fhir/us/cqfmeasures/StructureDefinition/cqfm-testCaseDescription",
        "valueMarkdown": "Patient with visual defects diagnosis overlapping cataract surgery"
      } ],
      "modifierExtension": [ {
        "url": "http://hl7.org/fhir/us/cqfmeasures/StructureDefinition/cqfm-isTestCase",
        "valueBoolean": true
      } ],
      "status": "complete",
      "type": "individual",
      "measure": "https://madie.cms.gov/Measure/CMS133FHIRCataracts2040BCVA90Days",
      "period": {
        "start": "2026-01-01",
        "end": "2026-12-31"
      },
      "group": [ {
        "id": "Group_1",
        "population": [ {
          "id": "InitialPopulation_1",
          "code": {
            "coding": [ {
              "system": "http://terminology.hl7.org/CodeSystem/measure-population",
              "code": "initial-population",
              "display": "Initial Population"
            } ]
          },
          "count": 1
        }, {
          "id": "Denominator_1",
          "code": {
            "coding": [ {
              "system": "http://terminology.hl7.org/CodeSystem/measure-population",
              "code": "denominator",
              "display": "Denominator"
            } ]
          },
          "count": 1
        }, {
          "id": "DenominatorExclusion_1",
          "code": {
            "coding": [ {
              "system": "http://terminology.hl7.org/CodeSystem/measure-population",
              "code": "denominator-exclusion",
              "display": "Denominator Exclusion"
            } ]
          },
          "count": 1
        }, {
          "id": "Numerator_1",
          "code": {
            "coding": [ {
              "system": "http://terminology.hl7.org/CodeSystem/measure-population",
              "code": "numerator",
              "display": "Numerator"
            } ]
          },
          "count": 0
        } ],
        "measureScore": {
          "value": 0.0
        }
      } ],
      "evaluatedResource": [ {
        "reference": "Patient/8bab0696-02d1-4e8f-a719-a91621cce9e0"
      }, {
        "reference": "Observation/8287d220-332a-41ba-8186-47c31bf66556"
      }, {
        "reference": "Procedure/1d4350ef-15df-47aa-8869-83bd06955935"
      }, {
        "reference": "Condition/9ec161f5-f89e-457c-a7a7-fdb3e777fcc0"
      }, {
        "reference": "Coverage/f36fabcc-b4b7-469e-bfa8-4b0f8c1ecfa7"
      }, {
        "reference": "Organization/77e5559b-ecfc-4b36-ae04-aa25b598ce44"
      }, {
        "reference": "Practitioner/72434c63-eeb9-4830-b38e-28f2cc2e61cd"
      } ]
    }
  } ]
}