{
  "resourceType": "Bundle",
  "id": "63487c2e0968f8012254017a",
  "type": "transaction",
  "entry": [ {
    "fullUrl": "https://madie.cms.gov/Patient/ebbb9064-6bf2-4ad1-ad56-5ee93afde52d",
    "resource": {
      "resourceType": "Patient",
      "id": "ebbb9064-6bf2-4ad1-ad56-5ee93afde52d",
      "meta": {
        "profile": [ "http://hl7.org/fhir/us/qicore/StructureDefinition/qicore-patient" ]
      },
      "text": {
        "status": "generated",
        "div": "<div xmlns=\"http://www.w3.org/1999/xhtml\"><div class=\"hapiHeaderText\">AssessP0RelDtTimeLTTimeOfDeliv <b>DENPASS </b></div><table class=\"hapiPropertyTable\"><tbody><tr><td>Identifier</td><td>cb4a87fae0aeb4667064306e289209af09ca2376f26fb181f5d5ea03cba5dc53</td></tr><tr><td>Date of birth</td><td><span>14 February 1985</span></td></tr></tbody></table></div>"
      },
      "extension": [ {
        "url": "http://hl7.org/fhir/us/core/StructureDefinition/us-core-race",
        "extension": [ {
          "url": "ombCategory",
          "valueCoding": {
            "system": "urn:oid:2.16.840.1.113883.6.238",
            "code": "1002-5",
            "display": "American Indian or Alaska Native",
            "userSelected": true
          }
        }, {
          "url": "text",
          "valueString": "American Indian or Alaska Native"
        } ]
      }, {
        "url": "http://hl7.org/fhir/us/core/StructureDefinition/us-core-ethnicity",
        "extension": [ {
          "url": "ombCategory",
          "valueCoding": {
            "system": "urn:oid:2.16.840.1.113883.6.238",
            "code": "2135-2",
            "display": "Hispanic or Latino",
            "userSelected": true
          }
        }, {
          "url": "text",
          "valueString": "Hispanic or Latino"
        } ]
      } ],
      "identifier": [ {
        "type": {
          "coding": [ {
            "system": "http://terminology.hl7.org/CodeSystem/v2-0203",
            "code": "MR"
          } ]
        },
        "system": "https://bonnie-fhir.healthit.gov/",
        "value": "63487c2e0968f8012254017a"
      } ],
      "active": true,
      "name": [ {
        "use": "usual",
        "family": "DENPass",
        "given": [ "AssessP0RelDtTimeLTTimeOfDeliv" ]
      } ],
      "gender": "female",
      "birthDate": "1998-02-14"
    },
    "request": {
      "method": "PUT",
      "url": "Patient/ebbb9064-6bf2-4ad1-ad56-5ee93afde52d"
    }
  }, {
    "fullUrl": "https://madie.cms.gov/Observation/3ac81b9e-6315-4a12-bdc0-33a5055cd9ce",
    "resource": {
      "resourceType": "Observation",
      "id": "3ac81b9e-6315-4a12-bdc0-33a5055cd9ce",
      "meta": {
        "profile": [ "http://hl7.org/fhir/us/qicore/StructureDefinition/qicore-simple-observation" ]
      },
      "status": "final",
      "category": [ {
        "coding": [ {
          "system": "http://terminology.hl7.org/CodeSystem/observation-category",
          "code": "exam",
          "display": "exam",
          "userSelected": true
        } ]
      } ],
      "code": {
        "coding": [ {
          "system": "http://loinc.org",
          "code": "11977-6"
        } ]
      },
      "subject": {
        "reference": "Patient/ebbb9064-6bf2-4ad1-ad56-5ee93afde52d"
      },
      "effectiveDateTime": "2026-06-08T19:59:00.000+00:00",
      "valueInteger": 0
    },
    "request": {
      "method": "PUT",
      "url": "Observation/3ac81b9e-6315-4a12-bdc0-33a5055cd9ce"
    }
  }, {
    "fullUrl": "https://madie.cms.gov/Observation/9885283a-74d5-4f06-8d08-209da63436ea",
    "resource": {
      "resourceType": "Observation",
      "id": "9885283a-74d5-4f06-8d08-209da63436ea",
      "meta": {
        "profile": [ "http://hl7.org/fhir/us/qicore/StructureDefinition/qicore-simple-observation" ]
      },
      "status": "final",
      "category": [ {
        "coding": [ {
          "system": "http://terminology.hl7.org/CodeSystem/observation-category",
          "code": "exam",
          "display": "exam",
          "userSelected": true
        } ]
      } ],
      "code": {
        "coding": [ {
          "system": "http://loinc.org",
          "code": "11884-4"
        } ]
      },
      "subject": {
        "reference": "Patient/ebbb9064-6bf2-4ad1-ad56-5ee93afde52d"
      },
      "effectiveDateTime": "2026-06-08T20:00:00.000+00:00",
      "valueQuantity": {
        "value": 37,
        "system": "http://unitsofmeasure.org",
        "code": "wk"
      }
    },
    "request": {
      "method": "PUT",
      "url": "Observation/9885283a-74d5-4f06-8d08-209da63436ea"
    }
  }, {
    "fullUrl": "https://madie.cms.gov/Observation/57dac789-46e7-4276-9209-df21a9943b2f",
    "resource": {
      "resourceType": "Observation",
      "id": "57dac789-46e7-4276-9209-df21a9943b2f",
      "meta": {
        "profile": [ "http://hl7.org/fhir/us/qicore/StructureDefinition/qicore-simple-observation" ]
      },
      "status": "final",
      "category": [ {
        "coding": [ {
          "system": "http://terminology.hl7.org/CodeSystem/observation-category",
          "code": "exam",
          "display": "exam",
          "userSelected": true
        } ]
      } ],
      "code": {
        "coding": [ {
          "system": "http://loinc.org",
          "code": "93857-1"
        } ]
      },
      "subject": {
        "reference": "Patient/ebbb9064-6bf2-4ad1-ad56-5ee93afde52d"
      },
      "effectiveDateTime": "2026-06-08T20:00:00.000+00:00",
      "valueDateTime": "2026-06-08T20:00:00.000+00:00"
    },
    "request": {
      "method": "PUT",
      "url": "Observation/57dac789-46e7-4276-9209-df21a9943b2f"
    }
  }, {
    "fullUrl": "https://madie.cms.gov/Encounter/dc075b83-1939-4eb7-bba1-92a91f2a9be3",
    "resource": {
      "resourceType": "Encounter",
      "id": "dc075b83-1939-4eb7-bba1-92a91f2a9be3",
      "meta": {
        "profile": [ "http://hl7.org/fhir/us/qicore/StructureDefinition/qicore-encounter" ]
      },
      "status": "finished",
      "class": {
        "system": "http://terminology.hl7.org/CodeSystem/v3-ActCode",
        "code": "IMP",
        "display": "inpatient encounter"
      },
      "type": [ {
        "coding": [ {
          "system": "http://snomed.info/sct",
          "code": "8715000"
        } ]
      } ],
      "subject": {
        "reference": "Patient/ebbb9064-6bf2-4ad1-ad56-5ee93afde52d"
      },
      "period": {
        "start": "2026-06-08T08:00:00.000+00:00",
        "end": "2026-06-10T08:15:00.000+00:00"
      },
      "length": {
        "value": 2,
        "unit": "days"
      },
      "reasonReference": [ {
        "reference": "Condition/978adbcc-4edb-444b-8e22-39315a671f8f"
      } ]
    },
    "request": {
      "method": "PUT",
      "url": "Encounter/dc075b83-1939-4eb7-bba1-92a91f2a9be3"
    }
  }, {
    "fullUrl": "https://madie.cms.gov/Procedure/4d1f9380-ee99-4747-858f-f80fcd9fa1df",
    "resource": {
      "resourceType": "Procedure",
      "id": "4d1f9380-ee99-4747-858f-f80fcd9fa1df",
      "meta": {
        "profile": [ "http://hl7.org/fhir/us/qicore/StructureDefinition/qicore-procedure" ]
      },
      "extension": [ {
        "url": "http://hl7.org/fhir/us/qicore/StructureDefinition/qicore-recorded",
        "valueDateTime": "2014-04-05T13:35:00.000+00:00"
      } ],
      "status": "completed",
      "code": {
        "coding": [ {
          "system": "http://www.cms.gov/Medicare/Coding/ICD10",
          "code": "10D00Z0"
        } ]
      },
      "subject": {
        "reference": "Patient/ebbb9064-6bf2-4ad1-ad56-5ee93afde52d"
      },
      "performedPeriod": {
        "start": "2026-06-08T20:00:00.000+00:00",
        "end": "2026-06-08T20:15:00.000+00:00"
      }
    },
    "request": {
      "method": "PUT",
      "url": "Procedure/4d1f9380-ee99-4747-858f-f80fcd9fa1df"
    }
  }, {
    "fullUrl": "https://madie.cms.gov/Condition/978adbcc-4edb-444b-8e22-39315a671f8f",
    "resource": {
      "resourceType": "Condition",
      "id": "978adbcc-4edb-444b-8e22-39315a671f8f",
      "meta": {
        "profile": [ "http://hl7.org/fhir/us/qicore/StructureDefinition/qicore-condition-encounter-diagnosis" ]
      },
      "category": [ {
        "coding": [ {
          "system": "http://terminology.hl7.org/CodeSystem/condition-category",
          "code": "encounter-diagnosis",
          "display": "Encounter Diagnosis"
        } ]
      } ],
      "code": {
        "coding": [ {
          "system": "http://snomed.info/sct",
          "version": "2022-09",
          "code": "169826009",
          "display": "Single live birth from singleton pregnancy (finding)",
          "userSelected": true
        } ]
      },
      "subject": {
        "reference": "Patient/ebbb9064-6bf2-4ad1-ad56-5ee93afde52d"
      },
      "encounter": {
        "reference": "Encounter/dc075b83-1939-4eb7-bba1-92a91f2a9be3"
      },
      "recordedDate": "2026-10-18T08:00:00.000+00:00"
    },
    "request": {
      "method": "PUT",
      "url": "Condition/978adbcc-4edb-444b-8e22-39315a671f8f"
    }
  }, {
    "fullUrl": "https://madie.cms.gov/Coverage/ed507a3c-b09f-4e8e-82ce-0fc436f971dc",
    "resource": {
      "resourceType": "Coverage",
      "id": "ed507a3c-b09f-4e8e-82ce-0fc436f971dc",
      "meta": {
        "profile": [ "http://hl7.org/fhir/us/qicore/StructureDefinition/qicore-coverage" ]
      },
      "status": "active",
      "subscriberId": "523435",
      "beneficiary": {
        "reference": "Patient/ebbb9064-6bf2-4ad1-ad56-5ee93afde52d"
      },
      "relationship": {
        "coding": [ {
          "system": "http://terminology.hl7.org/CodeSystem/subscriber-relationship",
          "code": "self"
        } ]
      },
      "payor": [ {
        "reference": "Organization/32dbe0b7-e813-4f0d-b0c4-01746662e369"
      } ]
    },
    "request": {
      "method": "PUT",
      "url": "Coverage/ed507a3c-b09f-4e8e-82ce-0fc436f971dc"
    }
  }, {
    "fullUrl": "https://madie.cms.gov/Organization/32dbe0b7-e813-4f0d-b0c4-01746662e369",
    "resource": {
      "resourceType": "Organization",
      "id": "32dbe0b7-e813-4f0d-b0c4-01746662e369",
      "meta": {
        "profile": [ "http://hl7.org/fhir/us/qicore/StructureDefinition/qicore-organization" ]
      },
      "identifier": [ {
        "use": "temp",
        "system": "urn:oid:2.16.840.1.113883.4.4",
        "value": "21-3259825"
      } ],
      "active": true,
      "type": [ {
        "coding": [ {
          "system": "http://terminology.hl7.org/CodeSystem/organization-type",
          "code": "pay",
          "display": "Payer"
        } ]
      } ],
      "name": "Blue Cross Blue Shield of Texas",
      "telecom": [ {
        "system": "phone",
        "value": "(+1) 972-766-6900"
      } ],
      "address": [ {
        "use": "billing",
        "type": "postal",
        "line": [ "P.O. Box 660044" ],
        "city": "Dallas",
        "state": "TX",
        "postalCode": "75266-0044",
        "country": "USA"
      } ]
    },
    "request": {
      "method": "PUT",
      "url": "Organization/32dbe0b7-e813-4f0d-b0c4-01746662e369"
    }
  }, {
    "fullUrl": "https://madie.cms.gov/Practitioner/bce421ae-3a57-427c-aafd-cc0d0f10cd66",
    "resource": {
      "resourceType": "Practitioner",
      "id": "bce421ae-3a57-427c-aafd-cc0d0f10cd66",
      "meta": {
        "profile": [ "http://hl7.org/fhir/us/qicore/StructureDefinition/qicore-practitioner" ]
      },
      "identifier": [ {
        "system": "http://hl7.org/fhir/sid/us-npi",
        "value": "1234567890"
      } ],
      "name": [ {
        "family": "Evil",
        "prefix": [ "Dr" ]
      } ]
    },
    "request": {
      "method": "PUT",
      "url": "Practitioner/bce421ae-3a57-427c-aafd-cc0d0f10cd66"
    }
  }, {
    "fullUrl": "https://madie.cms.gov/MeasureReport/6587253e-5aad-45a8-a059-672e25e7f4b0",
    "resource": {
      "resourceType": "MeasureReport",
      "id": "6587253e-5aad-45a8-a059-672e25e7f4b0",
      "meta": {
        "profile": [ "http://hl7.org/fhir/us/cqfmeasures/StructureDefinition/test-case-cqfm" ]
      },
      "contained": [ {
        "resourceType": "Parameters",
        "id": "384c81e2-a06f-419d-beda-1e0df08747de-parameters",
        "parameter": [ {
          "name": "subject",
          "valueString": "ebbb9064-6bf2-4ad1-ad56-5ee93afde52d"
        } ]
      } ],
      "extension": [ {
        "url": "http://hl7.org/fhir/StructureDefinition/cqf-inputParameters",
        "valueReference": {
          "reference": "#384c81e2-a06f-419d-beda-1e0df08747de-parameters"
        }
      }, {
        "url": "http://hl7.org/fhir/us/cqfmeasures/StructureDefinition/cqfm-testCaseDescription",
        "valueMarkdown": "Parity=0, relevant date/time same date but time less than delivery date/time\n"
      } ],
      "modifierExtension": [ {
        "url": "http://hl7.org/fhir/us/cqfmeasures/StructureDefinition/cqfm-isTestCase",
        "valueBoolean": true
      } ],
      "status": "complete",
      "type": "individual",
      "measure": "https://madie.cms.gov/Measure/CMS0334FHIRPCCesareanBirth",
      "period": {
        "start": "2026-01-01",
        "end": "2026-12-31"
      },
      "group": [ {
        "id": "Group_1",
        "population": [ {
          "id": "InitialPopulation_1",
          "code": {
            "coding": [ {
              "system": "http://terminology.hl7.org/CodeSystem/measure-population",
              "code": "initial-population",
              "display": "Initial Population"
            } ]
          },
          "count": 1
        }, {
          "id": "Denominator_1",
          "code": {
            "coding": [ {
              "system": "http://terminology.hl7.org/CodeSystem/measure-population",
              "code": "denominator",
              "display": "Denominator"
            } ]
          },
          "count": 1
        }, {
          "id": "DenominatorExclusion_1",
          "code": {
            "coding": [ {
              "system": "http://terminology.hl7.org/CodeSystem/measure-population",
              "code": "denominator-exclusion",
              "display": "Denominator Exclusion"
            } ]
          },
          "count": 0
        }, {
          "id": "Numerator_1",
          "code": {
            "coding": [ {
              "system": "http://terminology.hl7.org/CodeSystem/measure-population",
              "code": "numerator",
              "display": "Numerator"
            } ]
          },
          "count": 1
        } ],
        "measureScore": {
          "value": 0.0
        }
      } ],
      "evaluatedResource": [ {
        "reference": "Patient/ebbb9064-6bf2-4ad1-ad56-5ee93afde52d"
      }, {
        "reference": "Observation/3ac81b9e-6315-4a12-bdc0-33a5055cd9ce"
      }, {
        "reference": "Observation/9885283a-74d5-4f06-8d08-209da63436ea"
      }, {
        "reference": "Observation/57dac789-46e7-4276-9209-df21a9943b2f"
      }, {
        "reference": "Encounter/dc075b83-1939-4eb7-bba1-92a91f2a9be3"
      }, {
        "reference": "Procedure/4d1f9380-ee99-4747-858f-f80fcd9fa1df"
      }, {
        "reference": "Condition/978adbcc-4edb-444b-8e22-39315a671f8f"
      }, {
        "reference": "Coverage/ed507a3c-b09f-4e8e-82ce-0fc436f971dc"
      }, {
        "reference": "Organization/32dbe0b7-e813-4f0d-b0c4-01746662e369"
      }, {
        "reference": "Practitioner/bce421ae-3a57-427c-aafd-cc0d0f10cd66"
      } ]
    },
    "request": {
      "method": "PUT",
      "url": "MeasureReport/6587253e-5aad-45a8-a059-672e25e7f4b0"
    }
  } ]
}