{
  "resourceType": "Bundle",
  "id": "NUMERPass-DTapPolioSameCode",
  "type": "transaction",
  "entry": [ {
    "fullUrl": "https://madie.cms.gov/Patient/abdc2eef-788d-4772-8f48-c75c0b0009a0",
    "resource": {
      "resourceType": "Patient",
      "id": "abdc2eef-788d-4772-8f48-c75c0b0009a0",
      "meta": {
        "profile": [ "http://hl7.org/fhir/us/qicore/StructureDefinition/qicore-patient" ]
      },
      "extension": [ {
        "url": "http://hl7.org/fhir/us/core/StructureDefinition/us-core-race",
        "extension": [ {
          "url": "ombCategory",
          "valueCoding": {
            "system": "urn:oid:2.16.840.1.113883.6.238",
            "code": "2028-9",
            "display": "Asian"
          }
        }, {
          "url": "text",
          "valueString": "Asian"
        } ]
      }, {
        "url": "http://hl7.org/fhir/us/core/StructureDefinition/us-core-ethnicity",
        "extension": [ {
          "url": "ombCategory",
          "valueCoding": {
            "system": "urn:oid:2.16.840.1.113883.6.238",
            "code": "2135-2",
            "display": "Hispanic or Latino"
          }
        }, {
          "url": "text",
          "valueString": "Hispanic or Latino"
        } ]
      } ],
      "identifier": [ {
        "system": "http://hospital.smarthealthit.org",
        "value": "999999995"
      } ],
      "name": [ {
        "family": "Bertha",
        "given": [ "Betty" ]
      } ],
      "gender": "female",
      "birthDate": "2024-01-01"
    },
    "request": {
      "method": "PUT",
      "url": "Patient/abdc2eef-788d-4772-8f48-c75c0b0009a0"
    }
  }, {
    "fullUrl": "https://madie.cms.gov/Encounter/4af2554b-5084-4ba1-b3e9-d0668ef6183c",
    "resource": {
      "resourceType": "Encounter",
      "id": "4af2554b-5084-4ba1-b3e9-d0668ef6183c",
      "meta": {
        "profile": [ "http://hl7.org/fhir/us/qicore/StructureDefinition/qicore-encounter" ]
      },
      "status": "finished",
      "class": {
        "system": "http://terminology.hl7.org/CodeSystem/v3-ActCode",
        "code": "AMB",
        "display": "ambulatory"
      },
      "type": [ {
        "coding": [ {
          "system": "http://snomed.info/sct",
          "code": "185317003",
          "display": "Telephone encounter (procedure)"
        } ]
      } ],
      "subject": {
        "reference": "Patient/abdc2eef-788d-4772-8f48-c75c0b0009a0"
      },
      "period": {
        "start": "2026-01-01T01:00:00.000+00:00",
        "end": "2026-01-01T01:15:00.000+00:00"
      }
    },
    "request": {
      "method": "PUT",
      "url": "Encounter/4af2554b-5084-4ba1-b3e9-d0668ef6183c"
    }
  }, {
    "fullUrl": "https://madie.cms.gov/Immunization/eeb5f8f5-ffb0-4465-a90d-9feb48337d9c",
    "resource": {
      "resourceType": "Immunization",
      "id": "eeb5f8f5-ffb0-4465-a90d-9feb48337d9c",
      "meta": {
        "profile": [ "http://hl7.org/fhir/us/qicore/StructureDefinition/qicore-immunization" ]
      },
      "status": "completed",
      "vaccineCode": {
        "coding": [ {
          "system": "http://hl7.org/fhir/sid/cvx",
          "code": "146",
          "display": "DTaP,IPV,Hib,HepB"
        } ]
      },
      "patient": {
        "reference": "Patient/abdc2eef-788d-4772-8f48-c75c0b0009a0"
      },
      "occurrenceDateTime": "2025-01-02T00:00:00.000+00:00",
      "recorded": "2025-01-02T00:00:00.000+00:00",
      "primarySource": true
    },
    "request": {
      "method": "PUT",
      "url": "Immunization/eeb5f8f5-ffb0-4465-a90d-9feb48337d9c"
    }
  }, {
    "fullUrl": "https://madie.cms.gov/Immunization/f11206cf-0c26-4012-975f-0c9495b4412d",
    "resource": {
      "resourceType": "Immunization",
      "id": "f11206cf-0c26-4012-975f-0c9495b4412d",
      "meta": {
        "profile": [ "http://hl7.org/fhir/us/qicore/StructureDefinition/qicore-immunization" ]
      },
      "status": "completed",
      "vaccineCode": {
        "coding": [ {
          "system": "http://hl7.org/fhir/sid/cvx",
          "code": "146",
          "display": "DTaP,IPV,Hib,HepB"
        } ]
      },
      "patient": {
        "reference": "Patient/abdc2eef-788d-4772-8f48-c75c0b0009a0"
      },
      "occurrenceDateTime": "2025-01-02T00:00:00.000+00:00",
      "recorded": "2025-01-02T00:00:00.000+00:00",
      "primarySource": true
    },
    "request": {
      "method": "PUT",
      "url": "Immunization/f11206cf-0c26-4012-975f-0c9495b4412d"
    }
  }, {
    "fullUrl": "https://madie.cms.gov/Immunization/41387f00-6ffa-49bd-b6a5-4f0d02811caa",
    "resource": {
      "resourceType": "Immunization",
      "id": "41387f00-6ffa-49bd-b6a5-4f0d02811caa",
      "meta": {
        "profile": [ "http://hl7.org/fhir/us/qicore/StructureDefinition/qicore-immunization" ]
      },
      "status": "completed",
      "vaccineCode": {
        "coding": [ {
          "system": "http://hl7.org/fhir/sid/cvx",
          "code": "146",
          "display": "DTaP,IPV,Hib,HepB"
        } ]
      },
      "patient": {
        "reference": "Patient/abdc2eef-788d-4772-8f48-c75c0b0009a0"
      },
      "occurrenceDateTime": "2025-01-07T00:00:00.000+00:00",
      "recorded": "2025-01-02T00:00:00.000+00:00",
      "primarySource": true
    },
    "request": {
      "method": "PUT",
      "url": "Immunization/41387f00-6ffa-49bd-b6a5-4f0d02811caa"
    }
  }, {
    "fullUrl": "https://madie.cms.gov/Immunization/ed8245dd-e17c-4faa-ab55-124099a15e2c",
    "resource": {
      "resourceType": "Immunization",
      "id": "ed8245dd-e17c-4faa-ab55-124099a15e2c",
      "meta": {
        "profile": [ "http://hl7.org/fhir/us/qicore/StructureDefinition/qicore-immunization" ]
      },
      "status": "completed",
      "vaccineCode": {
        "coding": [ {
          "system": "http://hl7.org/fhir/sid/cvx",
          "code": "146",
          "display": "DTaP,IPV,Hib,HepB"
        } ]
      },
      "patient": {
        "reference": "Patient/abdc2eef-788d-4772-8f48-c75c0b0009a0"
      },
      "occurrenceDateTime": "2025-01-10T00:00:00.000+00:00",
      "recorded": "2025-01-02T00:00:00.000+00:00",
      "primarySource": true
    },
    "request": {
      "method": "PUT",
      "url": "Immunization/ed8245dd-e17c-4faa-ab55-124099a15e2c"
    }
  }, {
    "fullUrl": "https://madie.cms.gov/Immunization/1c91c368-cfcf-455e-9635-87e3f2f356f5",
    "resource": {
      "resourceType": "Immunization",
      "id": "1c91c368-cfcf-455e-9635-87e3f2f356f5",
      "meta": {
        "profile": [ "http://hl7.org/fhir/us/qicore/StructureDefinition/qicore-immunization" ]
      },
      "status": "completed",
      "vaccineCode": {
        "coding": [ {
          "system": "http://hl7.org/fhir/sid/cvx",
          "code": "146",
          "display": "DTaP,IPV,Hib,HepB"
        } ]
      },
      "patient": {
        "reference": "Patient/abdc2eef-788d-4772-8f48-c75c0b0009a0"
      },
      "occurrenceDateTime": "2025-01-02T00:00:00.000+00:00",
      "recorded": "2025-01-02T00:00:00.000+00:00",
      "primarySource": true
    },
    "request": {
      "method": "PUT",
      "url": "Immunization/1c91c368-cfcf-455e-9635-87e3f2f356f5"
    }
  }, {
    "fullUrl": "https://madie.cms.gov/Immunization/159fe927-736f-4081-b884-79cbdf2a99ce",
    "resource": {
      "resourceType": "Immunization",
      "id": "159fe927-736f-4081-b884-79cbdf2a99ce",
      "meta": {
        "profile": [ "http://hl7.org/fhir/us/qicore/StructureDefinition/qicore-immunization" ]
      },
      "status": "completed",
      "vaccineCode": {
        "coding": [ {
          "system": "http://hl7.org/fhir/sid/cvx",
          "code": "146",
          "display": "DTaP,IPV,Hib,HepB"
        } ]
      },
      "patient": {
        "reference": "Patient/abdc2eef-788d-4772-8f48-c75c0b0009a0"
      },
      "occurrenceDateTime": "2025-01-06T00:00:00.000+00:00",
      "recorded": "2025-01-02T00:00:00.000+00:00",
      "primarySource": true
    },
    "request": {
      "method": "PUT",
      "url": "Immunization/159fe927-736f-4081-b884-79cbdf2a99ce"
    }
  }, {
    "fullUrl": "https://madie.cms.gov/Immunization/9664c720-3b15-4e36-9164-c55209a5605c",
    "resource": {
      "resourceType": "Immunization",
      "id": "9664c720-3b15-4e36-9164-c55209a5605c",
      "meta": {
        "profile": [ "http://hl7.org/fhir/us/qicore/StructureDefinition/qicore-immunization" ]
      },
      "status": "completed",
      "vaccineCode": {
        "coding": [ {
          "system": "http://hl7.org/fhir/sid/cvx",
          "code": "146",
          "display": "DTaP,IPV,Hib,HepB"
        } ]
      },
      "patient": {
        "reference": "Patient/abdc2eef-788d-4772-8f48-c75c0b0009a0"
      },
      "occurrenceDateTime": "2025-01-09T00:00:00.000+00:00",
      "recorded": "2025-01-02T00:00:00.000+00:00",
      "primarySource": true
    },
    "request": {
      "method": "PUT",
      "url": "Immunization/9664c720-3b15-4e36-9164-c55209a5605c"
    }
  }, {
    "fullUrl": "https://madie.cms.gov/Immunization/0b345715-9999-4749-ab20-384cb3048757",
    "resource": {
      "resourceType": "Immunization",
      "id": "0b345715-9999-4749-ab20-384cb3048757",
      "meta": {
        "profile": [ "http://hl7.org/fhir/us/qicore/StructureDefinition/qicore-immunization" ]
      },
      "status": "completed",
      "vaccineCode": {
        "coding": [ {
          "system": "http://hl7.org/fhir/sid/cvx",
          "code": "94",
          "display": "measles, mumps, rubella, and varicella virus vaccine"
        } ]
      },
      "patient": {
        "reference": "Patient/abdc2eef-788d-4772-8f48-c75c0b0009a0"
      },
      "occurrenceDateTime": "2025-01-02T00:00:00.000+00:00",
      "recorded": "2025-01-02T00:00:00.000+00:00",
      "primarySource": true
    },
    "request": {
      "method": "PUT",
      "url": "Immunization/0b345715-9999-4749-ab20-384cb3048757"
    }
  }, {
    "fullUrl": "https://madie.cms.gov/Immunization/8c87dbda-f848-4044-ad3e-8fafd7695b82",
    "resource": {
      "resourceType": "Immunization",
      "id": "8c87dbda-f848-4044-ad3e-8fafd7695b82",
      "meta": {
        "profile": [ "http://hl7.org/fhir/us/qicore/StructureDefinition/qicore-immunization" ]
      },
      "status": "completed",
      "vaccineCode": {
        "coding": [ {
          "system": "http://hl7.org/fhir/sid/cvx",
          "code": "49",
          "display": "Haemophilus influenzae type b vaccine, PRP-OMP conjugate"
        } ]
      },
      "patient": {
        "reference": "Patient/abdc2eef-788d-4772-8f48-c75c0b0009a0"
      },
      "occurrenceDateTime": "2025-01-02T00:00:00.000+00:00",
      "recorded": "2025-01-02T00:00:00.000+00:00",
      "primarySource": true
    },
    "request": {
      "method": "PUT",
      "url": "Immunization/8c87dbda-f848-4044-ad3e-8fafd7695b82"
    }
  }, {
    "fullUrl": "https://madie.cms.gov/Immunization/e266deb5-0d36-445f-8727-e56bc988771b",
    "resource": {
      "resourceType": "Immunization",
      "id": "e266deb5-0d36-445f-8727-e56bc988771b",
      "meta": {
        "profile": [ "http://hl7.org/fhir/us/qicore/StructureDefinition/qicore-immunization" ]
      },
      "status": "completed",
      "vaccineCode": {
        "coding": [ {
          "system": "http://hl7.org/fhir/sid/cvx",
          "code": "49",
          "display": "Haemophilus influenzae type b vaccine, PRP-OMP conjugate"
        } ]
      },
      "patient": {
        "reference": "Patient/abdc2eef-788d-4772-8f48-c75c0b0009a0"
      },
      "occurrenceDateTime": "2025-01-02T00:00:00.000+00:00",
      "recorded": "2025-01-02T00:00:00.000+00:00",
      "primarySource": true
    },
    "request": {
      "method": "PUT",
      "url": "Immunization/e266deb5-0d36-445f-8727-e56bc988771b"
    }
  }, {
    "fullUrl": "https://madie.cms.gov/Immunization/3afb8cb6-5ab2-4023-8073-538fb8e48fb2",
    "resource": {
      "resourceType": "Immunization",
      "id": "3afb8cb6-5ab2-4023-8073-538fb8e48fb2",
      "meta": {
        "profile": [ "http://hl7.org/fhir/us/qicore/StructureDefinition/qicore-immunization" ]
      },
      "status": "completed",
      "vaccineCode": {
        "coding": [ {
          "system": "http://hl7.org/fhir/sid/cvx",
          "code": "49",
          "display": "Haemophilus influenzae type b vaccine, PRP-OMP conjugate"
        } ]
      },
      "patient": {
        "reference": "Patient/abdc2eef-788d-4772-8f48-c75c0b0009a0"
      },
      "occurrenceDateTime": "2025-01-02T00:00:00.000+00:00",
      "recorded": "2025-01-02T00:00:00.000+00:00",
      "primarySource": true
    },
    "request": {
      "method": "PUT",
      "url": "Immunization/3afb8cb6-5ab2-4023-8073-538fb8e48fb2"
    }
  }, {
    "fullUrl": "https://madie.cms.gov/Immunization/2770d3a1-16c0-4c1f-aa3e-3936144f676b",
    "resource": {
      "resourceType": "Immunization",
      "id": "2770d3a1-16c0-4c1f-aa3e-3936144f676b",
      "meta": {
        "profile": [ "http://hl7.org/fhir/us/qicore/StructureDefinition/qicore-immunization" ]
      },
      "status": "completed",
      "vaccineCode": {
        "coding": [ {
          "system": "http://hl7.org/fhir/sid/cvx",
          "code": "51",
          "display": "Haemophilus influenzae type b conjugate and Hepatitis B vaccine"
        } ]
      },
      "patient": {
        "reference": "Patient/abdc2eef-788d-4772-8f48-c75c0b0009a0"
      },
      "occurrenceDateTime": "2025-01-02T00:00:00.000+00:00",
      "recorded": "2025-01-02T00:00:00.000+00:00",
      "primarySource": true
    },
    "request": {
      "method": "PUT",
      "url": "Immunization/2770d3a1-16c0-4c1f-aa3e-3936144f676b"
    }
  }, {
    "fullUrl": "https://madie.cms.gov/Immunization/1fb5cab3-8d9d-44e9-bbe8-873be2f89901",
    "resource": {
      "resourceType": "Immunization",
      "id": "1fb5cab3-8d9d-44e9-bbe8-873be2f89901",
      "meta": {
        "profile": [ "http://hl7.org/fhir/us/qicore/StructureDefinition/qicore-immunization" ]
      },
      "status": "completed",
      "vaccineCode": {
        "coding": [ {
          "system": "http://hl7.org/fhir/sid/cvx",
          "code": "51",
          "display": "Haemophilus influenzae type b conjugate and Hepatitis B vaccine"
        } ]
      },
      "patient": {
        "reference": "Patient/abdc2eef-788d-4772-8f48-c75c0b0009a0"
      },
      "occurrenceDateTime": "2025-01-10T00:00:00.000+00:00",
      "recorded": "2025-01-02T00:00:00.000+00:00",
      "primarySource": true
    },
    "request": {
      "method": "PUT",
      "url": "Immunization/1fb5cab3-8d9d-44e9-bbe8-873be2f89901"
    }
  }, {
    "fullUrl": "https://madie.cms.gov/Immunization/3786afcb-d177-48e8-8fe8-edf3a4878ac5",
    "resource": {
      "resourceType": "Immunization",
      "id": "3786afcb-d177-48e8-8fe8-edf3a4878ac5",
      "meta": {
        "profile": [ "http://hl7.org/fhir/us/qicore/StructureDefinition/qicore-immunization" ]
      },
      "status": "completed",
      "vaccineCode": {
        "coding": [ {
          "system": "http://hl7.org/fhir/sid/cvx",
          "code": "51",
          "display": "Haemophilus influenzae type b conjugate and Hepatitis B vaccine"
        } ]
      },
      "patient": {
        "reference": "Patient/abdc2eef-788d-4772-8f48-c75c0b0009a0"
      },
      "occurrenceDateTime": "2025-01-12T00:00:00.000+00:00",
      "recorded": "2025-01-02T00:00:00.000+00:00",
      "primarySource": true
    },
    "request": {
      "method": "PUT",
      "url": "Immunization/3786afcb-d177-48e8-8fe8-edf3a4878ac5"
    }
  }, {
    "fullUrl": "https://madie.cms.gov/Immunization/48929f6f-c0a1-4e17-97fa-db9ebd676940",
    "resource": {
      "resourceType": "Immunization",
      "id": "48929f6f-c0a1-4e17-97fa-db9ebd676940",
      "meta": {
        "profile": [ "http://hl7.org/fhir/us/qicore/StructureDefinition/qicore-immunization" ]
      },
      "status": "completed",
      "vaccineCode": {
        "coding": [ {
          "system": "http://hl7.org/fhir/sid/cvx",
          "code": "94",
          "display": "measles, mumps, rubella, and varicella virus vaccine"
        } ]
      },
      "patient": {
        "reference": "Patient/abdc2eef-788d-4772-8f48-c75c0b0009a0"
      },
      "occurrenceDateTime": "2025-01-02T00:00:00.000+00:00",
      "recorded": "2025-01-02T00:00:00.000+00:00",
      "primarySource": true
    },
    "request": {
      "method": "PUT",
      "url": "Immunization/48929f6f-c0a1-4e17-97fa-db9ebd676940"
    }
  }, {
    "fullUrl": "https://madie.cms.gov/Immunization/37b7e4fe-e0f6-4fd0-817d-1d643586ac47",
    "resource": {
      "resourceType": "Immunization",
      "id": "37b7e4fe-e0f6-4fd0-817d-1d643586ac47",
      "meta": {
        "profile": [ "http://hl7.org/fhir/us/qicore/StructureDefinition/qicore-immunization" ]
      },
      "status": "completed",
      "vaccineCode": {
        "coding": [ {
          "system": "http://hl7.org/fhir/sid/cvx",
          "code": "215",
          "display": "Pneumococcal conjugate vaccine 15-valent (PCV15), polysaccharide CRM197 conjugate, adjuvant, preservative free"
        } ]
      },
      "patient": {
        "reference": "Patient/abdc2eef-788d-4772-8f48-c75c0b0009a0"
      },
      "occurrenceDateTime": "2025-01-12T00:00:00.000+00:00",
      "recorded": "2025-01-02T00:00:00.000+00:00",
      "primarySource": true
    },
    "request": {
      "method": "PUT",
      "url": "Immunization/37b7e4fe-e0f6-4fd0-817d-1d643586ac47"
    }
  }, {
    "fullUrl": "https://madie.cms.gov/Immunization/4d24a351-6e4f-4d94-a74c-72cf1fbd55f8",
    "resource": {
      "resourceType": "Immunization",
      "id": "4d24a351-6e4f-4d94-a74c-72cf1fbd55f8",
      "meta": {
        "profile": [ "http://hl7.org/fhir/us/qicore/StructureDefinition/qicore-immunization" ]
      },
      "status": "completed",
      "vaccineCode": {
        "coding": [ {
          "system": "http://hl7.org/fhir/sid/cvx",
          "code": "215",
          "display": "Pneumococcal conjugate vaccine 15-valent (PCV15), polysaccharide CRM197 conjugate, adjuvant, preservative free"
        } ]
      },
      "patient": {
        "reference": "Patient/abdc2eef-788d-4772-8f48-c75c0b0009a0"
      },
      "occurrenceDateTime": "2025-01-14T00:00:00.000+00:00",
      "recorded": "2025-01-02T00:00:00.000+00:00",
      "primarySource": true
    },
    "request": {
      "method": "PUT",
      "url": "Immunization/4d24a351-6e4f-4d94-a74c-72cf1fbd55f8"
    }
  }, {
    "fullUrl": "https://madie.cms.gov/Immunization/d6823186-99ff-4096-88ee-0333a6dda4e6",
    "resource": {
      "resourceType": "Immunization",
      "id": "d6823186-99ff-4096-88ee-0333a6dda4e6",
      "meta": {
        "profile": [ "http://hl7.org/fhir/us/qicore/StructureDefinition/qicore-immunization" ]
      },
      "status": "completed",
      "vaccineCode": {
        "coding": [ {
          "system": "http://hl7.org/fhir/sid/cvx",
          "code": "215",
          "display": "Pneumococcal conjugate vaccine 15-valent (PCV15), polysaccharide CRM197 conjugate, adjuvant, preservative free"
        } ]
      },
      "patient": {
        "reference": "Patient/abdc2eef-788d-4772-8f48-c75c0b0009a0"
      },
      "occurrenceDateTime": "2025-01-20T00:00:00.000+00:00",
      "recorded": "2025-01-02T00:00:00.000+00:00",
      "primarySource": true
    },
    "request": {
      "method": "PUT",
      "url": "Immunization/d6823186-99ff-4096-88ee-0333a6dda4e6"
    }
  }, {
    "fullUrl": "https://madie.cms.gov/Immunization/b0e08e53-4ab3-4425-96e8-5d10355b5588",
    "resource": {
      "resourceType": "Immunization",
      "id": "b0e08e53-4ab3-4425-96e8-5d10355b5588",
      "meta": {
        "profile": [ "http://hl7.org/fhir/us/qicore/StructureDefinition/qicore-immunization" ]
      },
      "status": "completed",
      "vaccineCode": {
        "coding": [ {
          "system": "http://hl7.org/fhir/sid/cvx",
          "code": "215",
          "display": "Pneumococcal conjugate vaccine 15-valent (PCV15), polysaccharide CRM197 conjugate, adjuvant, preservative free"
        } ]
      },
      "patient": {
        "reference": "Patient/abdc2eef-788d-4772-8f48-c75c0b0009a0"
      },
      "occurrenceDateTime": "2025-01-22T00:00:00.000+00:00",
      "recorded": "2025-01-02T00:00:00.000+00:00",
      "primarySource": true
    },
    "request": {
      "method": "PUT",
      "url": "Immunization/b0e08e53-4ab3-4425-96e8-5d10355b5588"
    }
  }, {
    "fullUrl": "https://madie.cms.gov/Immunization/e36152fe-2391-4035-8f68-b442a55e6ff8",
    "resource": {
      "resourceType": "Immunization",
      "id": "e36152fe-2391-4035-8f68-b442a55e6ff8",
      "meta": {
        "profile": [ "http://hl7.org/fhir/us/qicore/StructureDefinition/qicore-immunization" ]
      },
      "status": "completed",
      "vaccineCode": {
        "coding": [ {
          "system": "http://hl7.org/fhir/sid/cvx",
          "code": "85",
          "display": "hepatitis A vaccine, unspecified formulation"
        } ]
      },
      "patient": {
        "reference": "Patient/abdc2eef-788d-4772-8f48-c75c0b0009a0"
      },
      "occurrenceDateTime": "2025-01-02T00:00:00.000+00:00",
      "recorded": "2025-01-02T00:00:00.000+00:00",
      "primarySource": true
    },
    "request": {
      "method": "PUT",
      "url": "Immunization/e36152fe-2391-4035-8f68-b442a55e6ff8"
    }
  }, {
    "fullUrl": "https://madie.cms.gov/Immunization/24e67cb8-a5e2-421c-bb9e-c424beac840b",
    "resource": {
      "resourceType": "Immunization",
      "id": "24e67cb8-a5e2-421c-bb9e-c424beac840b",
      "meta": {
        "profile": [ "http://hl7.org/fhir/us/qicore/StructureDefinition/qicore-immunization" ]
      },
      "status": "completed",
      "vaccineCode": {
        "coding": [ {
          "system": "http://hl7.org/fhir/sid/cvx",
          "code": "119",
          "display": "rotavirus, live, monovalent vaccine"
        } ]
      },
      "patient": {
        "reference": "Patient/abdc2eef-788d-4772-8f48-c75c0b0009a0"
      },
      "occurrenceDateTime": "2025-01-02T00:00:00.000+00:00",
      "recorded": "2025-01-02T00:00:00.000+00:00",
      "primarySource": true
    },
    "request": {
      "method": "PUT",
      "url": "Immunization/24e67cb8-a5e2-421c-bb9e-c424beac840b"
    }
  }, {
    "fullUrl": "https://madie.cms.gov/Immunization/e203bda7-5342-48dd-8040-3362a4b015fb",
    "resource": {
      "resourceType": "Immunization",
      "id": "e203bda7-5342-48dd-8040-3362a4b015fb",
      "meta": {
        "profile": [ "http://hl7.org/fhir/us/qicore/StructureDefinition/qicore-immunization" ]
      },
      "status": "completed",
      "vaccineCode": {
        "coding": [ {
          "system": "http://hl7.org/fhir/sid/cvx",
          "code": "119",
          "display": "rotavirus, live, monovalent vaccine"
        } ]
      },
      "patient": {
        "reference": "Patient/abdc2eef-788d-4772-8f48-c75c0b0009a0"
      },
      "occurrenceDateTime": "2025-01-07T00:00:00.000+00:00",
      "recorded": "2025-01-02T00:00:00.000+00:00",
      "primarySource": true
    },
    "request": {
      "method": "PUT",
      "url": "Immunization/e203bda7-5342-48dd-8040-3362a4b015fb"
    }
  }, {
    "fullUrl": "https://madie.cms.gov/Immunization/73ac78b3-96cf-4f9d-9e43-58be81b96ceb",
    "resource": {
      "resourceType": "Immunization",
      "id": "73ac78b3-96cf-4f9d-9e43-58be81b96ceb",
      "meta": {
        "profile": [ "http://hl7.org/fhir/us/qicore/StructureDefinition/qicore-immunization" ]
      },
      "status": "completed",
      "vaccineCode": {
        "coding": [ {
          "system": "http://hl7.org/fhir/sid/cvx",
          "code": "153",
          "display": "Influenza, injectable, MDCK, preservative free"
        } ]
      },
      "patient": {
        "reference": "Patient/abdc2eef-788d-4772-8f48-c75c0b0009a0"
      },
      "occurrenceDateTime": "2025-01-02T00:00:00.000+00:00",
      "recorded": "2025-01-02T00:00:00.000+00:00",
      "primarySource": true
    },
    "request": {
      "method": "PUT",
      "url": "Immunization/73ac78b3-96cf-4f9d-9e43-58be81b96ceb"
    }
  }, {
    "fullUrl": "https://madie.cms.gov/Immunization/86a76f1b-b3b4-41ed-b113-3462457c1d65",
    "resource": {
      "resourceType": "Immunization",
      "id": "86a76f1b-b3b4-41ed-b113-3462457c1d65",
      "meta": {
        "profile": [ "http://hl7.org/fhir/us/qicore/StructureDefinition/qicore-immunization" ]
      },
      "status": "completed",
      "vaccineCode": {
        "coding": [ {
          "system": "http://hl7.org/fhir/sid/cvx",
          "code": "153",
          "display": "Influenza, injectable, MDCK, preservative free"
        } ]
      },
      "patient": {
        "reference": "Patient/abdc2eef-788d-4772-8f48-c75c0b0009a0"
      },
      "occurrenceDateTime": "2025-01-10T00:00:00.000+00:00",
      "recorded": "2025-01-02T00:00:00.000+00:00",
      "primarySource": true
    },
    "request": {
      "method": "PUT",
      "url": "Immunization/86a76f1b-b3b4-41ed-b113-3462457c1d65"
    }
  }, {
    "fullUrl": "https://madie.cms.gov/MeasureReport/b5704c66-b6b9-4eb8-9037-d60d4a662332",
    "resource": {
      "resourceType": "MeasureReport",
      "id": "b5704c66-b6b9-4eb8-9037-d60d4a662332",
      "meta": {
        "profile": [ "http://hl7.org/fhir/us/cqfmeasures/StructureDefinition/test-case-cqfm" ]
      },
      "contained": [ {
        "resourceType": "Parameters",
        "id": "29b565c8-0c59-4f67-acae-86b374f96995-parameters",
        "parameter": [ {
          "name": "subject",
          "valueString": "abdc2eef-788d-4772-8f48-c75c0b0009a0"
        } ]
      } ],
      "extension": [ {
        "url": "http://hl7.org/fhir/StructureDefinition/cqf-inputParameters",
        "valueReference": {
          "reference": "#29b565c8-0c59-4f67-acae-86b374f96995-parameters"
        }
      }, {
        "url": "http://hl7.org/fhir/us/cqfmeasures/StructureDefinition/cqfm-testCaseDescription",
        "valueMarkdown": "CVX 146 meets DTap and other vaccines"
      } ],
      "modifierExtension": [ {
        "url": "http://hl7.org/fhir/us/cqfmeasures/StructureDefinition/cqfm-isTestCase",
        "valueBoolean": true
      } ],
      "status": "complete",
      "type": "individual",
      "measure": "https://madie.cms.gov/Measure/CMS117FHIRChildImmunStatus",
      "period": {
        "start": "2026-01-01",
        "end": "2026-12-31"
      },
      "group": [ {
        "id": "Group_1",
        "population": [ {
          "id": "InitialPopulation_1",
          "code": {
            "coding": [ {
              "system": "http://terminology.hl7.org/CodeSystem/measure-population",
              "code": "initial-population",
              "display": "Initial Population"
            } ]
          },
          "count": 1
        }, {
          "id": "Denominator_1",
          "code": {
            "coding": [ {
              "system": "http://terminology.hl7.org/CodeSystem/measure-population",
              "code": "denominator",
              "display": "Denominator"
            } ]
          },
          "count": 1
        }, {
          "id": "DenominatorExclusion_1",
          "code": {
            "coding": [ {
              "system": "http://terminology.hl7.org/CodeSystem/measure-population",
              "code": "denominator-exclusion",
              "display": "Denominator Exclusion"
            } ]
          },
          "count": 0
        }, {
          "id": "Numerator_1",
          "code": {
            "coding": [ {
              "system": "http://terminology.hl7.org/CodeSystem/measure-population",
              "code": "numerator",
              "display": "Numerator"
            } ]
          },
          "count": 1
        } ],
        "measureScore": {
          "value": 1.0
        }
      } ],
      "evaluatedResource": [ {
        "reference": "Patient/abdc2eef-788d-4772-8f48-c75c0b0009a0"
      }, {
        "reference": "Encounter/4af2554b-5084-4ba1-b3e9-d0668ef6183c"
      }, {
        "reference": "Immunization/eeb5f8f5-ffb0-4465-a90d-9feb48337d9c"
      }, {
        "reference": "Immunization/f11206cf-0c26-4012-975f-0c9495b4412d"
      }, {
        "reference": "Immunization/41387f00-6ffa-49bd-b6a5-4f0d02811caa"
      }, {
        "reference": "Immunization/ed8245dd-e17c-4faa-ab55-124099a15e2c"
      }, {
        "reference": "Immunization/1c91c368-cfcf-455e-9635-87e3f2f356f5"
      }, {
        "reference": "Immunization/159fe927-736f-4081-b884-79cbdf2a99ce"
      }, {
        "reference": "Immunization/9664c720-3b15-4e36-9164-c55209a5605c"
      }, {
        "reference": "Immunization/0b345715-9999-4749-ab20-384cb3048757"
      }, {
        "reference": "Immunization/8c87dbda-f848-4044-ad3e-8fafd7695b82"
      }, {
        "reference": "Immunization/e266deb5-0d36-445f-8727-e56bc988771b"
      }, {
        "reference": "Immunization/3afb8cb6-5ab2-4023-8073-538fb8e48fb2"
      }, {
        "reference": "Immunization/2770d3a1-16c0-4c1f-aa3e-3936144f676b"
      }, {
        "reference": "Immunization/1fb5cab3-8d9d-44e9-bbe8-873be2f89901"
      }, {
        "reference": "Immunization/3786afcb-d177-48e8-8fe8-edf3a4878ac5"
      }, {
        "reference": "Immunization/48929f6f-c0a1-4e17-97fa-db9ebd676940"
      }, {
        "reference": "Immunization/37b7e4fe-e0f6-4fd0-817d-1d643586ac47"
      }, {
        "reference": "Immunization/4d24a351-6e4f-4d94-a74c-72cf1fbd55f8"
      }, {
        "reference": "Immunization/d6823186-99ff-4096-88ee-0333a6dda4e6"
      }, {
        "reference": "Immunization/b0e08e53-4ab3-4425-96e8-5d10355b5588"
      }, {
        "reference": "Immunization/e36152fe-2391-4035-8f68-b442a55e6ff8"
      }, {
        "reference": "Immunization/24e67cb8-a5e2-421c-bb9e-c424beac840b"
      }, {
        "reference": "Immunization/e203bda7-5342-48dd-8040-3362a4b015fb"
      }, {
        "reference": "Immunization/73ac78b3-96cf-4f9d-9e43-58be81b96ceb"
      }, {
        "reference": "Immunization/86a76f1b-b3b4-41ed-b113-3462457c1d65"
      } ]
    },
    "request": {
      "method": "PUT",
      "url": "MeasureReport/b5704c66-b6b9-4eb8-9037-d60d4a662332"
    }
  } ]
}