{
  "resourceType": "Bundle",
  "id": "Patient-27-DENEXPass-PalliativeCareSurveyOverlapsB4MP",
  "type": "transaction",
  "entry": [ {
    "fullUrl": "https://madie.cms.gov/Patient/f4eeba51-a6fc-4ffd-bd62-49fd1c375f01",
    "resource": {
      "resourceType": "Patient",
      "id": "f4eeba51-a6fc-4ffd-bd62-49fd1c375f01",
      "meta": {
        "profile": [ "http://hl7.org/fhir/us/qicore/StructureDefinition/qicore-patient" ]
      },
      "extension": [ {
        "url": "http://hl7.org/fhir/us/core/StructureDefinition/us-core-race",
        "extension": [ {
          "url": "ombCategory",
          "valueCoding": {
            "system": "urn:oid:2.16.840.1.113883.6.238",
            "code": "2028-9",
            "display": "Asian"
          }
        }, {
          "url": "text",
          "valueString": "Asian"
        } ]
      }, {
        "url": "http://hl7.org/fhir/us/core/StructureDefinition/us-core-ethnicity",
        "extension": [ {
          "url": "ombCategory",
          "valueCoding": {
            "system": "urn:oid:2.16.840.1.113883.6.238",
            "code": "2135-2",
            "display": "Hispanic or Latino"
          }
        }, {
          "url": "text",
          "valueString": "Hispanic or Latino"
        } ]
      } ],
      "identifier": [ {
        "system": "http://hospital.smarthealthit.org",
        "value": "999999995"
      } ],
      "name": [ {
        "family": "Bertha",
        "given": [ "Betty" ]
      } ],
      "gender": "female",
      "birthDate": "2007-01-01"
    },
    "request": {
      "method": "PUT",
      "url": "Patient/f4eeba51-a6fc-4ffd-bd62-49fd1c375f01"
    }
  }, {
    "fullUrl": "https://madie.cms.gov/Encounter/b32cf2d1-d65b-40e6-a46e-c87d3df54eca",
    "resource": {
      "resourceType": "Encounter",
      "id": "b32cf2d1-d65b-40e6-a46e-c87d3df54eca",
      "meta": {
        "profile": [ "http://hl7.org/fhir/us/qicore/StructureDefinition/qicore-encounter" ]
      },
      "status": "finished",
      "class": {
        "system": "http://terminology.hl7.org/CodeSystem/v3-ActCode",
        "code": "AMB",
        "display": "ambulatory"
      },
      "type": [ {
        "coding": [ {
          "system": "http://snomed.info/sct",
          "code": "185460008",
          "display": "Home visit request by patient (procedure)"
        } ]
      } ],
      "subject": {
        "reference": "Patient/f4eeba51-a6fc-4ffd-bd62-49fd1c375f01"
      },
      "period": {
        "start": "2026-01-01T00:00:00.000+00:00",
        "end": "2026-01-01T00:15:00.000+00:00"
      }
    },
    "request": {
      "method": "PUT",
      "url": "Encounter/b32cf2d1-d65b-40e6-a46e-c87d3df54eca"
    }
  }, {
    "fullUrl": "https://madie.cms.gov/Condition/685a1145-bbd6-4348-ba45-fca9bbf8df5a",
    "resource": {
      "resourceType": "Condition",
      "id": "685a1145-bbd6-4348-ba45-fca9bbf8df5a",
      "meta": {
        "profile": [ "http://hl7.org/fhir/us/qicore/StructureDefinition/qicore-condition-encounter-diagnosis" ]
      },
      "clinicalStatus": {
        "coding": [ {
          "system": "http://terminology.hl7.org/CodeSystem/condition-clinical",
          "code": "active"
        } ]
      },
      "category": [ {
        "coding": [ {
          "system": "http://terminology.hl7.org/CodeSystem/condition-category",
          "code": "encounter-diagnosis",
          "display": "Encounter Diagnosis"
        } ]
      } ],
      "code": {
        "coding": [ {
          "system": "http://snomed.info/sct",
          "code": "102781000119107",
          "display": "Sensory neuropathy due to type 1 diabetes mellitus (disorder)"
        } ]
      },
      "subject": {
        "reference": "Patient/f4eeba51-a6fc-4ffd-bd62-49fd1c375f01"
      },
      "onsetDateTime": "2026-01-01T23:59:00.000+00:00"
    },
    "request": {
      "method": "PUT",
      "url": "Condition/685a1145-bbd6-4348-ba45-fca9bbf8df5a"
    }
  }, {
    "fullUrl": "https://madie.cms.gov/Observation/bfa8043e-61fc-46dd-8a18-48522d52edb4",
    "resource": {
      "resourceType": "Observation",
      "id": "bfa8043e-61fc-46dd-8a18-48522d52edb4",
      "meta": {
        "profile": [ "http://hl7.org/fhir/us/qicore/StructureDefinition/qicore-observation-screening-assessment" ]
      },
      "status": "final",
      "category": [ {
        "coding": [ {
          "system": "http://terminology.hl7.org/CodeSystem/observation-category",
          "code": "survey"
        } ]
      } ],
      "code": {
        "coding": [ {
          "system": "http://loinc.org",
          "code": "71007-9",
          "display": "Functional Assessment of Chronic Illness Therapy - Palliative Care Questionnaire (FACIT-Pal)"
        } ]
      },
      "subject": {
        "reference": "Patient/f4eeba51-a6fc-4ffd-bd62-49fd1c375f01"
      },
      "effectivePeriod": {
        "start": "2025-12-31T00:00:00.000+00:00",
        "end": "2026-01-01T00:00:00.000+00:00"
      },
      "valueCodeableConcept": {
        "coding": [ {
          "system": "http://snomed.info/sct",
          "code": "373066001",
          "display": "Yes (qualifier value)"
        } ]
      }
    },
    "request": {
      "method": "PUT",
      "url": "Observation/bfa8043e-61fc-46dd-8a18-48522d52edb4"
    }
  }, {
    "fullUrl": "https://madie.cms.gov/MeasureReport/e375ec29-d1c1-4b3b-ad70-82d5679427f0",
    "resource": {
      "resourceType": "MeasureReport",
      "id": "e375ec29-d1c1-4b3b-ad70-82d5679427f0",
      "meta": {
        "profile": [ "http://hl7.org/fhir/us/cqfmeasures/StructureDefinition/test-case-cqfm" ]
      },
      "contained": [ {
        "resourceType": "Parameters",
        "id": "42966601-351c-42d2-8e18-be3e58522004-parameters",
        "parameter": [ {
          "name": "subject",
          "valueString": "f4eeba51-a6fc-4ffd-bd62-49fd1c375f01"
        } ]
      } ],
      "extension": [ {
        "url": "http://hl7.org/fhir/StructureDefinition/cqf-inputParameters",
        "valueReference": {
          "reference": "#42966601-351c-42d2-8e18-be3e58522004-parameters"
        }
      }, {
        "url": "http://hl7.org/fhir/us/cqfmeasures/StructureDefinition/cqfm-testCaseDescription",
        "valueMarkdown": "Palliative care survey overlap before the MP"
      } ],
      "modifierExtension": [ {
        "url": "http://hl7.org/fhir/us/cqfmeasures/StructureDefinition/cqfm-isTestCase",
        "valueBoolean": true
      } ],
      "status": "complete",
      "type": "individual",
      "measure": "https://madie.cms.gov/Measure/CMS122FHIRDiabetesAssessGT9Pct",
      "period": {
        "start": "2026-01-01",
        "end": "2026-12-31"
      },
      "group": [ {
        "id": "Group_1",
        "population": [ {
          "id": "InitialPopulation_1",
          "code": {
            "coding": [ {
              "system": "http://terminology.hl7.org/CodeSystem/measure-population",
              "code": "initial-population",
              "display": "Initial Population"
            } ]
          },
          "count": 1
        }, {
          "id": "Denominator_1",
          "code": {
            "coding": [ {
              "system": "http://terminology.hl7.org/CodeSystem/measure-population",
              "code": "denominator",
              "display": "Denominator"
            } ]
          },
          "count": 1
        }, {
          "id": "DenominatorExclusion_1",
          "code": {
            "coding": [ {
              "system": "http://terminology.hl7.org/CodeSystem/measure-population",
              "code": "denominator-exclusion",
              "display": "Denominator Exclusion"
            } ]
          },
          "count": 1
        }, {
          "id": "Numerator_1",
          "code": {
            "coding": [ {
              "system": "http://terminology.hl7.org/CodeSystem/measure-population",
              "code": "numerator",
              "display": "Numerator"
            } ]
          },
          "count": 0
        } ],
        "measureScore": {
          "value": 1.0
        }
      } ],
      "evaluatedResource": [ {
        "reference": "Patient/f4eeba51-a6fc-4ffd-bd62-49fd1c375f01"
      }, {
        "reference": "Encounter/b32cf2d1-d65b-40e6-a46e-c87d3df54eca"
      }, {
        "reference": "Condition/685a1145-bbd6-4348-ba45-fca9bbf8df5a"
      }, {
        "reference": "Observation/bfa8043e-61fc-46dd-8a18-48522d52edb4"
      } ]
    },
    "request": {
      "method": "PUT",
      "url": "MeasureReport/e375ec29-d1c1-4b3b-ad70-82d5679427f0"
    }
  } ]
}