{
  "resourceType": "Bundle",
  "id": "tests-DENEXFail-Increase03mgSCrUsingLowestIn24Hrs",
  "type": "transaction",
  "entry": [ {
    "fullUrl": "https://madie.cms.gov/Patient/4ecdf561-5bdb-4a32-8cad-beb0dc1d1367",
    "resource": {
      "resourceType": "Patient",
      "id": "4ecdf561-5bdb-4a32-8cad-beb0dc1d1367",
      "meta": {
        "profile": [ "http://hl7.org/fhir/us/qicore/StructureDefinition/qicore-patient" ]
      },
      "extension": [ {
        "url": "http://hl7.org/fhir/us/core/StructureDefinition/us-core-race",
        "extension": [ {
          "url": "ombCategory",
          "valueCoding": {
            "system": "urn:oid:2.16.840.1.113883.6.238",
            "code": "2106-3",
            "display": "White"
          }
        }, {
          "url": "text",
          "valueString": "White"
        } ]
      }, {
        "url": "http://hl7.org/fhir/us/core/StructureDefinition/us-core-ethnicity",
        "extension": [ {
          "url": "ombCategory",
          "valueCoding": {
            "system": "urn:oid:2.16.840.1.113883.6.238",
            "code": "2135-2",
            "display": "Hispanic or Latino"
          }
        }, {
          "url": "text",
          "valueString": "Hispanic or Latino"
        } ]
      }, {
        "url": "http://hl7.org/fhir/us/core/StructureDefinition/us-core-sex",
        "valueCode": "248153007"
      } ],
      "identifier": [ {
        "system": "http://hospital.smarthealthit.org",
        "value": "999999999"
      } ],
      "name": [ {
        "family": "Example",
        "given": [ "Patient" ]
      } ],
      "gender": "male",
      "birthDate": "1975-01-01"
    },
    "request": {
      "method": "PUT",
      "url": "Patient/4ecdf561-5bdb-4a32-8cad-beb0dc1d1367"
    }
  }, {
    "fullUrl": "https://madie.cms.gov/Encounter/20e59fef-264a-4afe-bcc9-0173627bf144",
    "resource": {
      "resourceType": "Encounter",
      "id": "20e59fef-264a-4afe-bcc9-0173627bf144",
      "meta": {
        "profile": [ "http://hl7.org/fhir/us/qicore/StructureDefinition/qicore-encounter" ]
      },
      "status": "finished",
      "class": {
        "system": "http://terminology.hl7.org/CodeSystem/v3-ActCode",
        "code": "IMP",
        "display": "inpatient encounter"
      },
      "type": [ {
        "coding": [ {
          "system": "http://snomed.info/sct",
          "code": "183452005",
          "display": "Emergency hospital admission (procedure)"
        } ]
      } ],
      "subject": {
        "reference": "Patient/4ecdf561-5bdb-4a32-8cad-beb0dc1d1367"
      },
      "period": {
        "start": "2026-12-16T08:00:00.000+00:00",
        "end": "2026-12-24T08:15:00.000+00:00"
      }
    },
    "request": {
      "method": "PUT",
      "url": "Encounter/20e59fef-264a-4afe-bcc9-0173627bf144"
    }
  }, {
    "fullUrl": "https://madie.cms.gov/Observation/07c46088-831a-48d4-8734-47ec0b413e9f",
    "resource": {
      "resourceType": "Observation",
      "id": "07c46088-831a-48d4-8734-47ec0b413e9f",
      "meta": {
        "profile": [ "http://hl7.org/fhir/us/qicore/StructureDefinition/qicore-observation-lab" ]
      },
      "status": "final",
      "category": [ {
        "coding": [ {
          "system": "http://terminology.hl7.org/CodeSystem/observation-category",
          "code": "laboratory",
          "display": "Laboratory"
        } ]
      } ],
      "code": {
        "coding": [ {
          "system": "http://loinc.org",
          "code": "21232-4",
          "display": "Creatinine [Mass/volume] in Serum or Plasma"
        } ]
      },
      "subject": {
        "reference": "Patient/4ecdf561-5bdb-4a32-8cad-beb0dc1d1367"
      },
      "effectiveDateTime": "2026-12-16T20:00:00.000+00:00",
      "valueQuantity": {
        "value": 1,
        "unit": "mg/dL",
        "system": "http://unitsofmeasure.org",
        "code": "mg/dL"
      }
    },
    "request": {
      "method": "PUT",
      "url": "Observation/07c46088-831a-48d4-8734-47ec0b413e9f"
    }
  }, {
    "fullUrl": "https://madie.cms.gov/Observation/df4a836e-2750-4bb2-ab45-fc5ed42d15ae",
    "resource": {
      "resourceType": "Observation",
      "id": "df4a836e-2750-4bb2-ab45-fc5ed42d15ae",
      "meta": {
        "profile": [ "http://hl7.org/fhir/us/qicore/StructureDefinition/qicore-observation-lab" ]
      },
      "status": "final",
      "category": [ {
        "coding": [ {
          "system": "http://terminology.hl7.org/CodeSystem/observation-category",
          "code": "laboratory",
          "display": "Laboratory"
        } ]
      } ],
      "code": {
        "coding": [ {
          "system": "http://loinc.org",
          "code": "21232-4",
          "display": "Creatinine [Mass/volume] in Serum or Plasma"
        } ]
      },
      "subject": {
        "reference": "Patient/4ecdf561-5bdb-4a32-8cad-beb0dc1d1367"
      },
      "effectiveDateTime": "2026-12-17T08:00:00.000+00:00",
      "valueQuantity": {
        "value": 1.3,
        "unit": "mg/dL",
        "system": "http://unitsofmeasure.org",
        "code": "mg/dL"
      }
    },
    "request": {
      "method": "PUT",
      "url": "Observation/df4a836e-2750-4bb2-ab45-fc5ed42d15ae"
    }
  }, {
    "fullUrl": "https://madie.cms.gov/Observation/c7f1e1de-0950-45db-b068-3ce7ae6df6d4",
    "resource": {
      "resourceType": "Observation",
      "id": "c7f1e1de-0950-45db-b068-3ce7ae6df6d4",
      "meta": {
        "profile": [ "http://hl7.org/fhir/us/qicore/StructureDefinition/qicore-observation-lab" ]
      },
      "status": "final",
      "category": [ {
        "coding": [ {
          "system": "http://terminology.hl7.org/CodeSystem/observation-category",
          "code": "laboratory",
          "display": "Laboratory"
        } ]
      } ],
      "code": {
        "coding": [ {
          "system": "http://loinc.org",
          "code": "21232-4",
          "display": "Creatinine [Mass/volume] in Serum or Plasma"
        } ]
      },
      "subject": {
        "reference": "Patient/4ecdf561-5bdb-4a32-8cad-beb0dc1d1367"
      },
      "effectiveDateTime": "2026-12-18T08:01:00.000+00:00",
      "valueQuantity": {
        "value": 1,
        "unit": "mg/dL",
        "system": "http://unitsofmeasure.org",
        "code": "mg/dL"
      }
    },
    "request": {
      "method": "PUT",
      "url": "Observation/c7f1e1de-0950-45db-b068-3ce7ae6df6d4"
    }
  }, {
    "fullUrl": "https://madie.cms.gov/MeasureReport/3bf1f631-b435-48ee-927b-5b50eac015fa",
    "resource": {
      "resourceType": "MeasureReport",
      "id": "3bf1f631-b435-48ee-927b-5b50eac015fa",
      "meta": {
        "profile": [ "http://hl7.org/fhir/us/cqfmeasures/StructureDefinition/test-case-cqfm" ]
      },
      "contained": [ {
        "resourceType": "Parameters",
        "id": "e2d4bbb1-c215-40a4-912c-a6d2503c0bd0-parameters",
        "parameter": [ {
          "name": "subject",
          "valueString": "4ecdf561-5bdb-4a32-8cad-beb0dc1d1367"
        } ]
      } ],
      "extension": [ {
        "url": "http://hl7.org/fhir/StructureDefinition/cqf-inputParameters",
        "valueReference": {
          "reference": "#e2d4bbb1-c215-40a4-912c-a6d2503c0bd0-parameters"
        }
      }, {
        "url": "http://hl7.org/fhir/us/cqfmeasures/StructureDefinition/cqfm-testCaseDescription",
        "valueMarkdown": "IP encounter where Male Pt had SCr of 1 within 1st 24 hrs. Subsequent SCr = 1.3. Increase of 0.3 Meets denominator exclusion"
      } ],
      "modifierExtension": [ {
        "url": "http://hl7.org/fhir/us/cqfmeasures/StructureDefinition/cqfm-isTestCase",
        "valueBoolean": true
      } ],
      "status": "complete",
      "type": "individual",
      "measure": "https://madie.cms.gov/Measure/CMS832FHIRHHAKI",
      "period": {
        "start": "2026-01-01",
        "end": "2026-12-31"
      },
      "group": [ {
        "id": "Group_1",
        "population": [ {
          "id": "InitialPopulation_1",
          "code": {
            "coding": [ {
              "system": "http://terminology.hl7.org/CodeSystem/measure-population",
              "code": "initial-population",
              "display": "Initial Population"
            } ]
          },
          "count": 1
        }, {
          "id": "Denominator_1",
          "code": {
            "coding": [ {
              "system": "http://terminology.hl7.org/CodeSystem/measure-population",
              "code": "denominator",
              "display": "Denominator"
            } ]
          },
          "count": 1
        }, {
          "id": "DenominatorExclusion_1",
          "code": {
            "coding": [ {
              "system": "http://terminology.hl7.org/CodeSystem/measure-population",
              "code": "denominator-exclusion",
              "display": "Denominator Exclusion"
            } ]
          },
          "count": 1
        }, {
          "id": "Numerator_1",
          "code": {
            "coding": [ {
              "system": "http://terminology.hl7.org/CodeSystem/measure-population",
              "code": "numerator",
              "display": "Numerator"
            } ]
          },
          "count": 0
        } ],
        "measureScore": {
          "value": 0.0
        }
      } ],
      "evaluatedResource": [ {
        "reference": "Patient/4ecdf561-5bdb-4a32-8cad-beb0dc1d1367"
      }, {
        "reference": "Encounter/20e59fef-264a-4afe-bcc9-0173627bf144"
      }, {
        "reference": "Observation/07c46088-831a-48d4-8734-47ec0b413e9f"
      }, {
        "reference": "Observation/df4a836e-2750-4bb2-ab45-fc5ed42d15ae"
      }, {
        "reference": "Observation/c7f1e1de-0950-45db-b068-3ce7ae6df6d4"
      } ]
    },
    "request": {
      "method": "PUT",
      "url": "MeasureReport/3bf1f631-b435-48ee-927b-5b50eac015fa"
    }
  } ]
}