{
  "resourceType": "Bundle",
  "id": "60f82c2e98086b570510e27e",
  "type": "transaction",
  "entry": [ {
    "fullUrl": "https://madie.cms.gov/Patient/9a8c51a0-bf53-42b6-927d-c1f90b81a31a",
    "resource": {
      "resourceType": "Patient",
      "id": "9a8c51a0-bf53-42b6-927d-c1f90b81a31a",
      "meta": {
        "profile": [ "http://hl7.org/fhir/us/qicore/StructureDefinition/qicore-patient" ]
      },
      "text": {
        "status": "generated",
        "div": "<div xmlns=\"http://www.w3.org/1999/xhtml\"><div class=\"hapiHeaderText\">LOS=2Days_ED_EQ1hr <b>DENEXFAIL </b></div><table class=\"hapiPropertyTable\"><tbody><tr><td>Identifier</td><td>47952b1442c8dc3c6d8daf3fe023d33d</td></tr><tr><td>Date of birth</td><td><span>21 August 1993</span></td></tr></tbody></table></div>"
      },
      "extension": [ {
        "url": "http://hl7.org/fhir/us/core/StructureDefinition/us-core-race",
        "extension": [ {
          "url": "ombCategory",
          "valueCoding": {
            "system": "urn:oid:2.16.840.1.113883.6.238",
            "code": "1002-5",
            "display": "American Indian or Alaska Native",
            "userSelected": true
          }
        }, {
          "url": "text",
          "valueString": "American Indian or Alaska Native"
        } ]
      }, {
        "url": "http://hl7.org/fhir/us/core/StructureDefinition/us-core-ethnicity",
        "extension": [ {
          "url": "ombCategory",
          "valueCoding": {
            "system": "urn:oid:2.16.840.1.113883.6.238",
            "code": "2135-2",
            "display": "Hispanic or Latino",
            "userSelected": true
          }
        }, {
          "url": "text",
          "valueString": "Hispanic or Latino"
        } ]
      } ],
      "identifier": [ {
        "type": {
          "coding": [ {
            "system": "http://terminology.hl7.org/CodeSystem/v2-0203",
            "code": "MR"
          } ]
        },
        "system": "https://bonnie-fhir.healthit.gov/",
        "value": "60f82c2e98086b570510e27e"
      } ],
      "active": true,
      "name": [ {
        "use": "usual",
        "family": "DENEXFail",
        "given": [ "LOSEQ2DaysEDEQ1hr" ]
      } ],
      "gender": "male",
      "birthDate": "1994-08-21"
    },
    "request": {
      "method": "PUT",
      "url": "Patient/9a8c51a0-bf53-42b6-927d-c1f90b81a31a"
    }
  }, {
    "fullUrl": "https://madie.cms.gov/Encounter/3769c97f-4ee2-4525-bcbd-b29484255f73",
    "resource": {
      "resourceType": "Encounter",
      "id": "3769c97f-4ee2-4525-bcbd-b29484255f73",
      "meta": {
        "profile": [ "http://hl7.org/fhir/us/qicore/StructureDefinition/qicore-encounter" ]
      },
      "status": "finished",
      "class": {
        "system": "http://terminology.hl7.org/CodeSystem/v3-ActCode",
        "code": "EMER",
        "display": "emergency",
        "userSelected": true
      },
      "type": [ {
        "coding": [ {
          "system": "http://snomed.info/sct",
          "code": "4525004"
        } ]
      } ],
      "subject": {
        "reference": "Patient/9a8c51a0-bf53-42b6-927d-c1f90b81a31a"
      },
      "period": {
        "start": "2026-08-20T08:00:00.000+00:00",
        "end": "2026-08-20T21:00:00.000+00:00"
      },
      "length": {
        "value": 0,
        "unit": "days"
      }
    },
    "request": {
      "method": "PUT",
      "url": "Encounter/3769c97f-4ee2-4525-bcbd-b29484255f73"
    }
  }, {
    "fullUrl": "https://madie.cms.gov/Encounter/19e09e8a-67da-4595-b08e-fb2fccf7da7b",
    "resource": {
      "resourceType": "Encounter",
      "id": "19e09e8a-67da-4595-b08e-fb2fccf7da7b",
      "meta": {
        "profile": [ "http://hl7.org/fhir/us/qicore/StructureDefinition/qicore-encounter" ]
      },
      "status": "finished",
      "class": {
        "system": "http://terminology.hl7.org/CodeSystem/v3-ActCode",
        "code": "IMP",
        "display": "inpatient encounter",
        "userSelected": true
      },
      "type": [ {
        "coding": [ {
          "system": "http://snomed.info/sct",
          "code": "32485007"
        } ]
      } ],
      "subject": {
        "reference": "Patient/9a8c51a0-bf53-42b6-927d-c1f90b81a31a"
      },
      "period": {
        "start": "2026-08-20T22:00:00.000+00:00",
        "end": "2026-08-22T12:00:00.000+00:00"
      },
      "length": {
        "value": 2,
        "unit": "days"
      },
      "reasonReference": [ {
        "reference": "Condition/18d1f25b-5fdd-4a2f-9edb-dd9fa29b91be"
      } ]
    },
    "request": {
      "method": "PUT",
      "url": "Encounter/19e09e8a-67da-4595-b08e-fb2fccf7da7b"
    }
  }, {
    "fullUrl": "https://madie.cms.gov/Coverage/6c096e9c-b325-4ee0-a072-47c8964fcb24",
    "resource": {
      "resourceType": "Coverage",
      "id": "6c096e9c-b325-4ee0-a072-47c8964fcb24",
      "status": "active",
      "beneficiary": {
        "reference": "Patient/9a8c51a0-bf53-42b6-927d-c1f90b81a31a"
      },
      "period": {
        "start": "1994-08-21T07:00:00.000+00:00"
      },
      "payor": [ {
        "reference": "Organization/90eb54b5-27ce-4e3d-a0de-17d22e1165d3"
      } ]
    },
    "request": {
      "method": "PUT",
      "url": "Coverage/6c096e9c-b325-4ee0-a072-47c8964fcb24"
    }
  }, {
    "fullUrl": "https://madie.cms.gov/Condition/18d1f25b-5fdd-4a2f-9edb-dd9fa29b91be",
    "resource": {
      "resourceType": "Condition",
      "id": "18d1f25b-5fdd-4a2f-9edb-dd9fa29b91be",
      "meta": {
        "profile": [ "http://hl7.org/fhir/us/qicore/StructureDefinition/qicore-condition-encounter-diagnosis" ]
      },
      "clinicalStatus": {
        "coding": [ {
          "system": "http://terminology.hl7.org/CodeSystem/condition-clinical",
          "code": "active"
        } ]
      },
      "verificationStatus": {
        "coding": [ {
          "system": "http://terminology.hl7.org/CodeSystem/condition-ver-status",
          "code": "confirmed"
        } ]
      },
      "category": [ {
        "coding": [ {
          "system": "http://terminology.hl7.org/CodeSystem/condition-category",
          "code": "encounter-diagnosis",
          "display": "Encounter Diagnosis"
        } ]
      } ],
      "code": {
        "coding": [ {
          "system": "http://snomed.info/sct",
          "version": "2020-09",
          "code": "111297002",
          "display": "Nonparalytic stroke (disorder)",
          "userSelected": true
        } ]
      },
      "subject": {
        "reference": "Patient/9a8c51a0-bf53-42b6-927d-c1f90b81a31a"
      },
      "encounter": {
        "reference": "Encounter/19e09e8a-67da-4595-b08e-fb2fccf7da7b"
      },
      "recordedDate": "2026-08-12T08:00:00.000+00:00"
    },
    "request": {
      "method": "PUT",
      "url": "Condition/18d1f25b-5fdd-4a2f-9edb-dd9fa29b91be"
    }
  }, {
    "fullUrl": "https://madie.cms.gov/claim/5ca62962b8484628b8de1ec5",
    "resource": {
      "resourceType": "Claim",
      "id": "5ca62962b8484628b8de1ec5",
      "meta": {
        "profile": [ "http://hl7.org/fhir/us/qicore/StructureDefinition/qicore-claim" ]
      },
      "status": "active",
      "type": {
        "coding": [ {
          "system": "http://terminology.hl7.org/CodeSystem/claim-type",
          "code": "institutional"
        } ]
      },
      "use": "claim",
      "patient": {
        "reference": "Patient/5450abfd-a667-4eb9-9b59-e85feed4865c"
      },
      "created": "2026-12-01",
      "provider": {
        "reference": "Practitioner/practitioner-123456"
      },
      "priority": {
        "coding": [ {
          "system": "http://terminology.hl7.org/CodeSystem/processpriority",
          "code": "normal"
        } ]
      },
      "diagnosis": [ {
        "sequence": 1,
        "diagnosisCodeableConcept": {
          "coding": [ {
            "system": "http://hl7.org/fhir/sid/icd-10-cm",
            "code": "I63.00"
          } ]
        },
        "type": [ {
          "coding": [ {
            "system": "http://terminology.hl7.org/CodeSystem/ex-diagnosistype",
            "code": "principal"
          } ]
        } ]
      } ],
      "insurance": [ {
        "sequence": 1,
        "focal": true,
        "coverage": {
          "reference": "Coverage/5fa041661c76ba66d9959367"
        }
      } ],
      "item": [ {
        "sequence": 1,
        "diagnosisSequence": [ 1 ],
        "productOrService": {
          "coding": [ {
            "system": "http://terminology.hl7.org/CodeSystem/ex-USCLS",
            "code": "99555"
          } ]
        },
        "encounter": [ {
          "reference": "Encounter/19e09e8a-67da-4595-b08e-fb2fccf7da7b"
        } ]
      } ]
    },
    "request": {
      "method": "PUT",
      "url": "Claim/5ca62962b8484628b8de1ec5"
    }
  }, {
    "fullUrl": "https://madie.cms.gov/Organization/90eb54b5-27ce-4e3d-a0de-17d22e1165d3",
    "resource": {
      "resourceType": "Organization",
      "id": "90eb54b5-27ce-4e3d-a0de-17d22e1165d3",
      "meta": {
        "profile": [ "http://hl7.org/fhir/us/qicore/StructureDefinition/qicore-organization" ]
      },
      "identifier": [ {
        "use": "temp",
        "system": "urn:oid:2.16.840.1.113883.4.4",
        "value": "21-3259825"
      } ],
      "active": true,
      "type": [ {
        "coding": [ {
          "system": "http://terminology.hl7.org/CodeSystem/organization-type",
          "code": "pay",
          "display": "Payer"
        } ]
      } ],
      "name": "Blue Cross Blue Shield of Texas",
      "telecom": [ {
        "system": "phone",
        "value": "(+1) 972-766-6900"
      } ],
      "address": [ {
        "use": "billing",
        "type": "postal",
        "line": [ "P.O. Box 660044" ],
        "city": "Dallas",
        "state": "TX",
        "postalCode": "75266-0044",
        "country": "USA"
      } ]
    },
    "request": {
      "method": "PUT",
      "url": "Organization/90eb54b5-27ce-4e3d-a0de-17d22e1165d3"
    }
  }, {
    "fullUrl": "https://madie.cms.gov/MeasureReport/26bc9893-7d99-4482-8b0c-ea64039e7b8b",
    "resource": {
      "resourceType": "MeasureReport",
      "id": "26bc9893-7d99-4482-8b0c-ea64039e7b8b",
      "meta": {
        "profile": [ "http://hl7.org/fhir/us/cqfmeasures/StructureDefinition/test-case-cqfm" ]
      },
      "contained": [ {
        "resourceType": "Parameters",
        "id": "5b46a34a-05f0-4ee8-b793-fe3d980e3ccb-parameters",
        "parameter": [ {
          "name": "subject",
          "valueString": "9a8c51a0-bf53-42b6-927d-c1f90b81a31a"
        } ]
      } ],
      "extension": [ {
        "url": "http://hl7.org/fhir/StructureDefinition/cqf-inputParameters",
        "valueReference": {
          "reference": "#5b46a34a-05f0-4ee8-b793-fe3d980e3ccb-parameters"
        }
      }, {
        "url": "http://hl7.org/fhir/us/cqfmeasures/StructureDefinition/cqfm-testCaseDescription",
        "valueMarkdown": "Patient has  ED Visit = 1 hour ends before IP encounter and starts = 2 days before end of IP , global.Hospitalization ( = Ed +IP)\n"
      } ],
      "modifierExtension": [ {
        "url": "http://hl7.org/fhir/us/cqfmeasures/StructureDefinition/cqfm-isTestCase",
        "valueBoolean": true
      } ],
      "status": "complete",
      "type": "individual",
      "measure": "https://madie.cms.gov/Measure/CMS72FHIRSTKAntithromboticDay2",
      "period": {
        "start": "2026-01-01",
        "end": "2026-12-31"
      },
      "group": [ {
        "id": "Group_1",
        "population": [ {
          "id": "InitialPopulation_1",
          "code": {
            "coding": [ {
              "system": "http://terminology.hl7.org/CodeSystem/measure-population",
              "code": "initial-population",
              "display": "Initial Population"
            } ]
          },
          "count": 1
        }, {
          "id": "Denominator_1",
          "code": {
            "coding": [ {
              "system": "http://terminology.hl7.org/CodeSystem/measure-population",
              "code": "denominator",
              "display": "Denominator"
            } ]
          },
          "count": 1
        }, {
          "id": "DenominatorExclusion_1",
          "code": {
            "coding": [ {
              "system": "http://terminology.hl7.org/CodeSystem/measure-population",
              "code": "denominator-exclusion",
              "display": "Denominator Exclusion"
            } ]
          },
          "count": 0
        }, {
          "id": "Numerator_1",
          "code": {
            "coding": [ {
              "system": "http://terminology.hl7.org/CodeSystem/measure-population",
              "code": "numerator",
              "display": "Numerator"
            } ]
          },
          "count": 0
        }, {
          "id": "DenominatorException_1",
          "code": {
            "coding": [ {
              "system": "http://terminology.hl7.org/CodeSystem/measure-population",
              "code": "denominator-exception",
              "display": "Denominator Exception"
            } ]
          },
          "count": 0
        } ],
        "measureScore": {
          "value": 0.0
        }
      } ],
      "evaluatedResource": [ {
        "reference": "Patient/9a8c51a0-bf53-42b6-927d-c1f90b81a31a"
      }, {
        "reference": "Encounter/3769c97f-4ee2-4525-bcbd-b29484255f73"
      }, {
        "reference": "Encounter/19e09e8a-67da-4595-b08e-fb2fccf7da7b"
      }, {
        "reference": "Coverage/6c096e9c-b325-4ee0-a072-47c8964fcb24"
      }, {
        "reference": "Condition/18d1f25b-5fdd-4a2f-9edb-dd9fa29b91be"
      }, {
        "reference": "Claim/5ca62962b8484628b8de1ec5"
      }, {
        "reference": "Organization/90eb54b5-27ce-4e3d-a0de-17d22e1165d3"
      } ]
    },
    "request": {
      "method": "PUT",
      "url": "MeasureReport/26bc9893-7d99-4482-8b0c-ea64039e7b8b"
    }
  } ]
}