{
  "resourceType": "Bundle",
  "id": "tests-a40acaba-9191-4e65-8e32-cf3d48ec1964-bundle",
  "type": "transaction",
  "entry": [ {
    "fullUrl": "https://madie.cms.gov/Procedure/1c362953-8364-4cbd-a090-1877a8fd951d",
    "resource": {
      "resourceType": "Procedure",
      "id": "1c362953-8364-4cbd-a090-1877a8fd951d",
      "meta": {
        "profile": [ "http://hl7.org/fhir/us/qicore/StructureDefinition/qicore-procedure" ]
      },
      "extension": [ {
        "url": "http://hl7.org/fhir/us/qicore/StructureDefinition/qicore-recorded",
        "valueDateTime": "2026-04-11T10:30:00.000+00:00"
      } ],
      "status": "completed",
      "category": {
        "coding": [ {
          "system": "http://snomed.info/sct",
          "code": "18286008",
          "display": "General or neuraxial anesthesia"
        } ]
      },
      "code": {
        "coding": [ {
          "system": "http://snomed.info/sct",
          "code": "112943005",
          "display": "Epidural injection of anesthetic substance, diagnostic, caudal, continuous"
        } ]
      },
      "subject": {
        "reference": "Patient/a40acaba-9191-4e65-8e32-cf3d48ec1964"
      },
      "performedPeriod": {
        "start": "2026-04-11T08:00:00.000+00:00",
        "end": "2026-04-11T10:15:00.000+00:00"
      }
    },
    "request": {
      "method": "PUT",
      "url": "Procedure/1c362953-8364-4cbd-a090-1877a8fd951d"
    }
  }, {
    "fullUrl": "https://madie.cms.gov/Patient/a40acaba-9191-4e65-8e32-cf3d48ec1964",
    "resource": {
      "resourceType": "Patient",
      "id": "a40acaba-9191-4e65-8e32-cf3d48ec1964",
      "meta": {
        "profile": [ "http://hl7.org/fhir/us/qicore/StructureDefinition/qicore-patient" ]
      },
      "extension": [ {
        "url": "http://hl7.org/fhir/us/core/StructureDefinition/us-core-race",
        "extension": [ {
          "url": "ombCategory",
          "valueCoding": {
            "system": "urn:oid:2.16.840.1.113883.6.238",
            "code": "2054-5",
            "display": "Black or African American",
            "userSelected": true
          }
        }, {
          "url": "text",
          "valueString": "Black or African American"
        } ]
      }, {
        "url": "http://hl7.org/fhir/us/core/StructureDefinition/us-core-ethnicity",
        "extension": [ {
          "url": "ombCategory",
          "valueCoding": {
            "system": "urn:oid:2.16.840.1.113883.6.238",
            "code": "2186-5",
            "display": "Not Hispanic or Latino",
            "userSelected": true
          }
        }, {
          "url": "text",
          "valueString": "Not Hispanic or Latino"
        } ]
      } ],
      "identifier": [ {
        "type": {
          "coding": [ {
            "system": "http://terminology.hl7.org/CodeSystem/v2-0203",
            "code": "MR"
          } ]
        },
        "system": "https://bonnie-fhir.healthit.gov/",
        "value": "61152a3b98086b7a79cbd7c1"
      } ],
      "active": true,
      "name": [ {
        "use": "usual",
        "family": "DENOMPass",
        "given": [ "RiskVariableSmokingStatus2BeforeEnc" ]
      } ],
      "gender": "female",
      "birthDate": "1966-07-12"
    },
    "request": {
      "method": "PUT",
      "url": "Patient/a40acaba-9191-4e65-8e32-cf3d48ec1964"
    }
  }, {
    "fullUrl": "https://madie.cms.gov/Observation/a050a830-2aec-405b-9ecf-f6016ea9c41f",
    "resource": {
      "resourceType": "Observation",
      "id": "a050a830-2aec-405b-9ecf-f6016ea9c41f",
      "meta": {
        "profile": [ "http://hl7.org/fhir/us/core/StructureDefinition/us-core-smokingstatus" ]
      },
      "status": "final",
      "category": [ {
        "coding": [ {
          "system": "http://terminology.hl7.org/CodeSystem/observation-category",
          "code": "social-history",
          "display": "Social History"
        } ],
        "text": "Social History"
      } ],
      "code": {
        "coding": [ {
          "system": "http://snomed.info/sct",
          "code": "401201003",
          "display": "Cigarette pack-years (observable entity)"
        } ],
        "text": "Cigarette pack-years"
      },
      "subject": {
        "reference": "Patient/a40acaba-9191-4e65-8e32-cf3d48ec1964"
      },
      "effectiveDateTime": "2026-04-04T09:00:00.000+00:00",
      "valueQuantity": {
        "value": 26,
        "unit": "pack-years",
        "system": "http://unitsofmeasure.org",
        "code": "{pack-years}"
      }
    },
    "request": {
      "method": "PUT",
      "url": "Observation/a050a830-2aec-405b-9ecf-f6016ea9c41f"
    }
  }, {
    "fullUrl": "https://madie.cms.gov/Observation/53242048-9ca1-4aac-9335-82684e5d3237",
    "resource": {
      "resourceType": "Observation",
      "id": "53242048-9ca1-4aac-9335-82684e5d3237",
      "meta": {
        "profile": [ "http://hl7.org/fhir/us/core/StructureDefinition/us-core-smokingstatus" ]
      },
      "status": "final",
      "category": [ {
        "coding": [ {
          "system": "http://terminology.hl7.org/CodeSystem/observation-category",
          "code": "social-history",
          "display": "Social History"
        } ],
        "text": "Social History"
      } ],
      "code": {
        "coding": [ {
          "system": "http://snomed.info/sct",
          "code": "401201003",
          "display": "Cigarette pack-years (observable entity)"
        } ],
        "text": "Cigarette pack-years"
      },
      "subject": {
        "reference": "Patient/a40acaba-9191-4e65-8e32-cf3d48ec1964"
      },
      "effectiveDateTime": "2026-04-10T09:00:00.000+00:00",
      "valueQuantity": {
        "value": 26,
        "unit": "pack-years",
        "system": "http://unitsofmeasure.org",
        "code": "{pack-years}"
      }
    },
    "request": {
      "method": "PUT",
      "url": "Observation/53242048-9ca1-4aac-9335-82684e5d3237"
    }
  }, {
    "fullUrl": "https://madie.cms.gov/Encounter/d83fb39b-05c7-4139-9cf7-b4ed93e19080",
    "resource": {
      "resourceType": "Encounter",
      "id": "d83fb39b-05c7-4139-9cf7-b4ed93e19080",
      "meta": {
        "profile": [ "http://hl7.org/fhir/us/qicore/StructureDefinition/qicore-encounter" ]
      },
      "status": "finished",
      "class": {
        "system": "http://terminology.hl7.org/CodeSystem/v3-ActCode",
        "code": "IMP",
        "display": "inpatient encounter"
      },
      "type": [ {
        "coding": [ {
          "system": "http://snomed.info/sct",
          "code": "112689000",
          "display": "Hospital admission, elective, with complete pre-admission work-up"
        } ],
        "text": "Hospital admission, elective, with complete pre-admission work-up"
      } ],
      "priority": {
        "coding": [ {
          "system": "http://snomed.info/sct",
          "code": "103390000"
        } ]
      },
      "subject": {
        "reference": "Patient/a40acaba-9191-4e65-8e32-cf3d48ec1964"
      },
      "period": {
        "start": "2026-04-10T08:00:00.000+00:00",
        "end": "2026-04-14T08:15:00.000+00:00"
      }
    },
    "request": {
      "method": "PUT",
      "url": "Encounter/d83fb39b-05c7-4139-9cf7-b4ed93e19080"
    }
  }, {
    "fullUrl": "https://madie.cms.gov/MeasureReport/ff7e8027-814c-4836-b7e4-bfefce8deed0",
    "resource": {
      "resourceType": "MeasureReport",
      "id": "ff7e8027-814c-4836-b7e4-bfefce8deed0",
      "meta": {
        "profile": [ "http://hl7.org/fhir/us/cqfmeasures/StructureDefinition/test-case-cqfm" ]
      },
      "contained": [ {
        "resourceType": "Parameters",
        "id": "92d93c46-8617-4af8-90f1-aa0db24f84a3-parameters",
        "parameter": [ {
          "name": "subject",
          "valueString": "a40acaba-9191-4e65-8e32-cf3d48ec1964"
        } ]
      } ],
      "extension": [ {
        "url": "http://hl7.org/fhir/StructureDefinition/cqf-inputParameters",
        "valueReference": {
          "reference": "#92d93c46-8617-4af8-90f1-aa0db24f84a3-parameters"
        }
      }, {
        "url": "http://hl7.org/fhir/us/cqfmeasures/StructureDefinition/cqfm-testCaseDescription",
        "valueMarkdown": "Elective hosp with proc (general anesthesia) within 3 days of encounter. 2 smoking status assessments before enc start. Result displays correctly from the latest one (most recent): : 230065006 Chain smoker"
      } ],
      "modifierExtension": [ {
        "url": "http://hl7.org/fhir/us/cqfmeasures/StructureDefinition/cqfm-isTestCase",
        "valueBoolean": true
      } ],
      "status": "complete",
      "type": "individual",
      "measure": "https://madie.cms.gov/Measure/CMS1218FHIRHHRF",
      "period": {
        "start": "2026-01-01",
        "end": "2026-12-31"
      },
      "group": [ {
        "id": "Group_1",
        "population": [ {
          "id": "InitialPopulation_1",
          "code": {
            "coding": [ {
              "system": "http://terminology.hl7.org/CodeSystem/measure-population",
              "code": "initial-population",
              "display": "Initial Population"
            } ]
          },
          "count": 1
        }, {
          "id": "Denominator_1",
          "code": {
            "coding": [ {
              "system": "http://terminology.hl7.org/CodeSystem/measure-population",
              "code": "denominator",
              "display": "Denominator"
            } ]
          },
          "count": 1
        }, {
          "id": "DenominatorExclusion_1",
          "code": {
            "coding": [ {
              "system": "http://terminology.hl7.org/CodeSystem/measure-population",
              "code": "denominator-exclusion",
              "display": "Denominator Exclusion"
            } ]
          },
          "count": 0
        }, {
          "id": "Numerator_1",
          "code": {
            "coding": [ {
              "system": "http://terminology.hl7.org/CodeSystem/measure-population",
              "code": "numerator",
              "display": "Numerator"
            } ]
          },
          "count": 0
        } ],
        "measureScore": {
          "value": 0.0
        }
      } ],
      "evaluatedResource": [ {
        "reference": "Procedure/1c362953-8364-4cbd-a090-1877a8fd951d"
      }, {
        "reference": "Patient/a40acaba-9191-4e65-8e32-cf3d48ec1964"
      }, {
        "reference": "Observation/a050a830-2aec-405b-9ecf-f6016ea9c41f"
      }, {
        "reference": "Observation/53242048-9ca1-4aac-9335-82684e5d3237"
      }, {
        "reference": "Encounter/d83fb39b-05c7-4139-9cf7-b4ed93e19080"
      } ]
    },
    "request": {
      "method": "PUT",
      "url": "MeasureReport/ff7e8027-814c-4836-b7e4-bfefce8deed0"
    }
  } ]
}