{
  "resourceType": "Bundle",
  "id": "632368e98d26c655c5601f01",
  "type": "transaction",
  "entry": [ {
    "fullUrl": "https://madie.cms.gov/Patient/6bbda026-cf4e-4843-91cd-30e8e052fc43",
    "resource": {
      "resourceType": "Patient",
      "id": "6bbda026-cf4e-4843-91cd-30e8e052fc43",
      "meta": {
        "profile": [ "http://hl7.org/fhir/us/qicore/StructureDefinition/qicore-patient" ]
      },
      "extension": [ {
        "url": "http://hl7.org/fhir/us/core/StructureDefinition/us-core-race",
        "extension": [ {
          "url": "ombCategory",
          "valueCoding": {
            "system": "urn:oid:2.16.840.1.113883.6.238",
            "code": "2054-5",
            "display": "Black or African American",
            "userSelected": true
          }
        }, {
          "url": "text",
          "valueString": "Black or African American"
        } ]
      }, {
        "url": "http://hl7.org/fhir/us/core/StructureDefinition/us-core-ethnicity",
        "extension": [ {
          "url": "ombCategory",
          "valueCoding": {
            "system": "urn:oid:2.16.840.1.113883.6.238",
            "code": "2186-5",
            "display": "Not Hispanic or Latino",
            "userSelected": true
          }
        }, {
          "url": "text",
          "valueString": "Not Hispanic or Latino"
        } ]
      } ],
      "identifier": [ {
        "system": "http://hospital.smarthealthit.org",
        "value": "999999999"
      } ],
      "name": [ {
        "family": "NUMERPass",
        "given": [ "OpioidAndBenzodiazepine" ]
      } ],
      "gender": "female",
      "birthDate": "2006-12-31"
    },
    "request": {
      "method": "PUT",
      "url": "Patient/6bbda026-cf4e-4843-91cd-30e8e052fc43"
    }
  }, {
    "fullUrl": "https://madie.cms.gov/Encounter/60d7efea-b927-4a38-b09d-72f63c68427c",
    "resource": {
      "resourceType": "Encounter",
      "id": "60d7efea-b927-4a38-b09d-72f63c68427c",
      "meta": {
        "profile": [ "http://hl7.org/fhir/us/qicore/StructureDefinition/qicore-encounter" ]
      },
      "status": "finished",
      "class": {
        "system": "http://terminology.hl7.org/CodeSystem/v3-ActCode",
        "code": "IMP",
        "display": "inpatient encounter"
      },
      "type": [ {
        "coding": [ {
          "system": "http://snomed.info/sct",
          "code": "183452005",
          "display": "Emergency hospital admission (procedure)",
          "userSelected": true
        } ]
      } ],
      "subject": {
        "reference": "Patient/6bbda026-cf4e-4843-91cd-30e8e052fc43"
      },
      "period": {
        "start": "2026-01-01T00:00:00.000+00:00",
        "end": "2026-01-02T00:15:00.000+00:00"
      }
    },
    "request": {
      "method": "PUT",
      "url": "Encounter/60d7efea-b927-4a38-b09d-72f63c68427c"
    }
  }, {
    "fullUrl": "https://madie.cms.gov/MedicationRequest/8f37be4e-c08c-495b-aab9-080159d4402e",
    "resource": {
      "resourceType": "MedicationRequest",
      "id": "8f37be4e-c08c-495b-aab9-080159d4402e",
      "meta": {
        "profile": [ "http://hl7.org/fhir/us/qicore/StructureDefinition/qicore-medicationrequest" ]
      },
      "status": "active",
      "intent": "order",
      "category": [ {
        "coding": [ {
          "system": "http://terminology.hl7.org/CodeSystem/medicationrequest-category",
          "code": "community",
          "display": "Community",
          "userSelected": true
        } ]
      } ],
      "doNotPerform": false,
      "medicationCodeableConcept": {
        "coding": [ {
          "system": "http://www.nlm.nih.gov/research/umls/rxnorm",
          "code": "1014632",
          "display": "acetaminophen 300 MG / oxycodone hydrochloride 7.5 MG Oral Tablet",
          "userSelected": true
        } ]
      },
      "subject": {
        "reference": "Patient/6bbda026-cf4e-4843-91cd-30e8e052fc43"
      },
      "authoredOn": "2026-01-02T00:15:00.000+00:00",
      "requester": {
        "reference": "Practitioner/be41c7c4-d3ca-4c55-a4a5-805c9f9f6269"
      }
    },
    "request": {
      "method": "PUT",
      "url": "MedicationRequest/8f37be4e-c08c-495b-aab9-080159d4402e"
    }
  }, {
    "fullUrl": "https://madie.cms.gov/Practitioner/be41c7c4-d3ca-4c55-a4a5-805c9f9f6269",
    "resource": {
      "resourceType": "Practitioner",
      "id": "be41c7c4-d3ca-4c55-a4a5-805c9f9f6269",
      "meta": {
        "profile": [ "http://hl7.org/fhir/us/qicore/StructureDefinition/qicore-practitioner" ]
      },
      "identifier": [ {
        "system": "http://hl7.org/fhir/sid/us-npi",
        "value": "9999999896"
      } ],
      "active": true,
      "name": [ {
        "family": "Ramires",
        "given": [ "Alma" ],
        "prefix": [ "Dr" ]
      } ],
      "address": [ {
        "use": "home",
        "line": [ "534 Erewhon St" ],
        "city": "Netherville",
        "state": "IN",
        "postalCode": "46131"
      } ],
      "qualification": [ {
        "identifier": [ {
          "system": "http://goodhealth.org/prIdentifier",
          "value": "12345"
        } ],
        "code": {
          "coding": [ {
            "system": "http://terminology.hl7.org/CodeSystem/v2-0360|2.7",
            "code": "BS",
            "display": "Bachelor of Science"
          } ],
          "text": "Bachelor of Science"
        },
        "period": {
          "start": "1995"
        },
        "issuer": {
          "display": "Example University"
        }
      } ]
    },
    "request": {
      "method": "PUT",
      "url": "Practitioner/be41c7c4-d3ca-4c55-a4a5-805c9f9f6269"
    }
  }, {
    "fullUrl": "https://madie.cms.gov/MedicationRequest/c279bbba-4327-4b8a-ac6b-a79f034d0e5d",
    "resource": {
      "resourceType": "MedicationRequest",
      "id": "c279bbba-4327-4b8a-ac6b-a79f034d0e5d",
      "meta": {
        "profile": [ "http://hl7.org/fhir/us/qicore/StructureDefinition/qicore-medicationrequest" ]
      },
      "status": "active",
      "intent": "order",
      "category": [ {
        "coding": [ {
          "system": "http://terminology.hl7.org/CodeSystem/medicationrequest-category",
          "code": "community",
          "display": "Community",
          "userSelected": true
        } ]
      } ],
      "doNotPerform": false,
      "medicationCodeableConcept": {
        "coding": [ {
          "system": "http://www.nlm.nih.gov/research/umls/rxnorm",
          "code": "1298088",
          "display": "flurazepam hydrochloride 15 MG Oral Capsule",
          "userSelected": true
        } ]
      },
      "subject": {
        "reference": "Patient/6bbda026-cf4e-4843-91cd-30e8e052fc43"
      },
      "authoredOn": "2026-01-02T00:10:00.000+00:00",
      "requester": {
        "reference": "Practitioner/be41c7c4-d3ca-4c55-a4a5-805c9f9f6269"
      }
    },
    "request": {
      "method": "PUT",
      "url": "MedicationRequest/c279bbba-4327-4b8a-ac6b-a79f034d0e5d"
    }
  }, {
    "fullUrl": "https://madie.cms.gov/Coverage/469d5511-f30c-4fdd-a129-6d54b662e114",
    "resource": {
      "resourceType": "Coverage",
      "id": "469d5511-f30c-4fdd-a129-6d54b662e114",
      "meta": {
        "profile": [ "http://hl7.org/fhir/us/qicore/StructureDefinition/qicore-coverage" ]
      },
      "status": "active",
      "subscriberId": "523435",
      "beneficiary": {
        "reference": "Patient/6bbda026-cf4e-4843-91cd-30e8e052fc43"
      },
      "relationship": {
        "coding": [ {
          "system": "http://terminology.hl7.org/CodeSystem/subscriber-relationship",
          "code": "self"
        } ]
      },
      "payor": [ {
        "reference": "Organization/8127ed6d-7724-4337-9a9d-335aac17d055"
      } ]
    },
    "request": {
      "method": "PUT",
      "url": "Coverage/469d5511-f30c-4fdd-a129-6d54b662e114"
    }
  }, {
    "fullUrl": "https://madie.cms.gov/Organization/8127ed6d-7724-4337-9a9d-335aac17d055",
    "resource": {
      "resourceType": "Organization",
      "id": "8127ed6d-7724-4337-9a9d-335aac17d055",
      "meta": {
        "profile": [ "http://hl7.org/fhir/us/qicore/StructureDefinition/qicore-organization" ]
      },
      "identifier": [ {
        "use": "temp",
        "system": "urn:oid:2.16.840.1.113883.4.4",
        "value": "21-3259825"
      } ],
      "active": true,
      "type": [ {
        "coding": [ {
          "system": "http://terminology.hl7.org/CodeSystem/organization-type",
          "code": "pay",
          "display": "Payer"
        } ]
      } ],
      "name": "Blue Cross Blue Shield of Texas",
      "telecom": [ {
        "system": "phone",
        "value": "(+1) 972-766-6900"
      } ],
      "address": [ {
        "use": "billing",
        "type": "postal",
        "line": [ "P.O. Box 660044" ],
        "city": "Dallas",
        "state": "TX",
        "postalCode": "75266-0044",
        "country": "USA"
      } ]
    },
    "request": {
      "method": "PUT",
      "url": "Organization/8127ed6d-7724-4337-9a9d-335aac17d055"
    }
  }, {
    "fullUrl": "https://madie.cms.gov/MeasureReport/84ee2ef2-5c6c-407e-b34d-2332f0802a1f",
    "resource": {
      "resourceType": "MeasureReport",
      "id": "84ee2ef2-5c6c-407e-b34d-2332f0802a1f",
      "meta": {
        "profile": [ "http://hl7.org/fhir/us/cqfmeasures/StructureDefinition/test-case-cqfm" ]
      },
      "contained": [ {
        "resourceType": "Parameters",
        "id": "529f4b26-47b7-471c-b942-7f607770e373-parameters",
        "parameter": [ {
          "name": "subject",
          "valueString": "6bbda026-cf4e-4843-91cd-30e8e052fc43"
        } ]
      } ],
      "extension": [ {
        "url": "http://hl7.org/fhir/StructureDefinition/cqf-inputParameters",
        "valueReference": {
          "reference": "#529f4b26-47b7-471c-b942-7f607770e373-parameters"
        }
      }, {
        "url": "http://hl7.org/fhir/us/cqfmeasures/StructureDefinition/cqfm-testCaseDescription",
        "valueMarkdown": "Encounter 01/01,  0000 - 1/2 0015, age 18, opioid (MedicationRequest-1) and benzodiazepines (MedicationRequest-2) at discharge on 1/2"
      } ],
      "modifierExtension": [ {
        "url": "http://hl7.org/fhir/us/cqfmeasures/StructureDefinition/cqfm-isTestCase",
        "valueBoolean": true
      } ],
      "status": "complete",
      "type": "individual",
      "measure": "https://madie.cms.gov/Measure/CMS506FHIRSafeUseofOpioids",
      "period": {
        "start": "2026-01-01",
        "end": "2026-12-31"
      },
      "group": [ {
        "id": "Group_1",
        "population": [ {
          "id": "InitialPopulation_1",
          "code": {
            "coding": [ {
              "system": "http://terminology.hl7.org/CodeSystem/measure-population",
              "code": "initial-population",
              "display": "Initial Population"
            } ]
          },
          "count": 1
        }, {
          "id": "Denominator_1",
          "code": {
            "coding": [ {
              "system": "http://terminology.hl7.org/CodeSystem/measure-population",
              "code": "denominator",
              "display": "Denominator"
            } ]
          },
          "count": 1
        }, {
          "id": "DenominatorExclusion_1",
          "code": {
            "coding": [ {
              "system": "http://terminology.hl7.org/CodeSystem/measure-population",
              "code": "denominator-exclusion",
              "display": "Denominator Exclusion"
            } ]
          },
          "count": 0
        }, {
          "id": "Numerator_1",
          "code": {
            "coding": [ {
              "system": "http://terminology.hl7.org/CodeSystem/measure-population",
              "code": "numerator",
              "display": "Numerator"
            } ]
          },
          "count": 1
        } ],
        "measureScore": {
          "value": 0.0
        }
      } ],
      "evaluatedResource": [ {
        "reference": "Patient/6bbda026-cf4e-4843-91cd-30e8e052fc43"
      }, {
        "reference": "Encounter/60d7efea-b927-4a38-b09d-72f63c68427c"
      }, {
        "reference": "MedicationRequest/8f37be4e-c08c-495b-aab9-080159d4402e"
      }, {
        "reference": "Practitioner/be41c7c4-d3ca-4c55-a4a5-805c9f9f6269"
      }, {
        "reference": "MedicationRequest/c279bbba-4327-4b8a-ac6b-a79f034d0e5d"
      }, {
        "reference": "Coverage/469d5511-f30c-4fdd-a129-6d54b662e114"
      }, {
        "reference": "Organization/8127ed6d-7724-4337-9a9d-335aac17d055"
      } ]
    },
    "request": {
      "method": "PUT",
      "url": "MeasureReport/84ee2ef2-5c6c-407e-b34d-2332f0802a1f"
    }
  } ]
}