{
  "resourceType": "Bundle",
  "id": "62ec3235ea03a4ebacd6a08a",
  "type": "collection",
  "entry": [ {
    "fullUrl": "https://madie.cms.gov/Patient/9ada2736-229a-40d4-b026-2bdec85c6d02",
    "resource": {
      "resourceType": "Patient",
      "id": "9ada2736-229a-40d4-b026-2bdec85c6d02",
      "meta": {
        "profile": [ "http://hl7.org/fhir/us/qicore/StructureDefinition/qicore-patient" ]
      },
      "extension": [ {
        "url": "http://hl7.org/fhir/us/core/StructureDefinition/us-core-race",
        "extension": [ {
          "url": "ombCategory",
          "valueCoding": {
            "system": "urn:oid:2.16.840.1.113883.6.238",
            "code": "1002-5",
            "display": "American Indian or Alaska Native",
            "userSelected": true
          }
        }, {
          "url": "text",
          "valueString": "American Indian or Alaska Native"
        }, {
          "url": "detailed",
          "valueCoding": {
            "system": "http://terminology.hl7.org/CodeSystem/v3-NullFlavor",
            "code": "OTH",
            "display": "other"
          }
        } ]
      }, {
        "url": "http://hl7.org/fhir/us/core/StructureDefinition/us-core-ethnicity",
        "extension": [ {
          "url": "ombCategory",
          "valueCoding": {
            "system": "urn:oid:2.16.840.1.113883.6.238",
            "code": "2135-2",
            "display": "Hispanic or Latino",
            "userSelected": true
          }
        }, {
          "url": "text",
          "valueString": "Hispanic or Latino"
        }, {
          "url": "detailed",
          "valueCoding": {
            "system": "http://terminology.hl7.org/CodeSystem/v3-NullFlavor",
            "code": "OTH",
            "display": "other"
          }
        } ]
      } ],
      "identifier": [ {
        "type": {
          "coding": [ {
            "system": "http://terminology.hl7.org/CodeSystem/v2-0203",
            "code": "MR"
          } ]
        },
        "system": "https://bonnie-fhir.healthit.gov/",
        "value": "62ec3235ea03a4ebacd6a08a"
      } ],
      "name": [ {
        "family": "NumerPass",
        "given": [ "Enc1stDayMPAt0000" ]
      } ],
      "gender": "unknown",
      "birthDate": "2008-01-01"
    }
  }, {
    "fullUrl": "https://madie.cms.gov/Encounter/a4cd2cc1-9657-457d-a977-a90db37f0ed6",
    "resource": {
      "resourceType": "Encounter",
      "id": "a4cd2cc1-9657-457d-a977-a90db37f0ed6",
      "meta": {
        "profile": [ "http://hl7.org/fhir/us/qicore/StructureDefinition/qicore-encounter" ]
      },
      "status": "finished",
      "class": {
        "system": "http://terminology.hl7.org/CodeSystem/v3-ActCode",
        "code": "AMB",
        "display": "ambulatory"
      },
      "type": [ {
        "coding": [ {
          "system": "http://snomed.info/sct",
          "code": "10197000",
          "display": "Psychiatric interview and evaluation (procedure)",
          "userSelected": true
        } ]
      } ],
      "subject": {
        "reference": "Patient/9ada2736-229a-40d4-b026-2bdec85c6d02"
      },
      "period": {
        "start": "2026-01-01T00:00:00.000+00:00",
        "end": "2026-08-04T08:15:00.000+00:00"
      }
    }
  }, {
    "fullUrl": "https://madie.cms.gov/Procedure/457c91fc-c5b4-4345-b3d9-463098b57252",
    "resource": {
      "resourceType": "Procedure",
      "id": "457c91fc-c5b4-4345-b3d9-463098b57252",
      "meta": {
        "profile": [ "http://hl7.org/fhir/us/qicore/StructureDefinition/qicore-procedure" ]
      },
      "extension": [ {
        "url": "http://hl7.org/fhir/us/qicore/StructureDefinition/qicore-recorded",
        "valueDateTime": "2025-02-01T09:00:00.000+00:00"
      } ],
      "status": "completed",
      "code": {
        "coding": [ {
          "system": "http://snomed.info/sct",
          "code": "428191000124101",
          "display": "Documentation of current medications (procedure)",
          "userSelected": true
        } ]
      },
      "subject": {
        "reference": "Patient/9ada2736-229a-40d4-b026-2bdec85c6d02"
      },
      "performedDateTime": "2026-01-01T08:10:00.000+00:00"
    }
  }, {
    "fullUrl": "https://madie.cms.gov/Coverage/59e01a35-f1de-49a7-bee6-c2f1e531c42a",
    "resource": {
      "resourceType": "Coverage",
      "id": "59e01a35-f1de-49a7-bee6-c2f1e531c42a",
      "meta": {
        "profile": [ "http://hl7.org/fhir/us/qicore/StructureDefinition/qicore-coverage" ]
      },
      "status": "active",
      "type": {
        "coding": [ {
          "system": "https://nahdo.org/sopt",
          "code": "1",
          "display": "MEDICARE"
        } ]
      },
      "subscriberId": "123456",
      "beneficiary": {
        "reference": "Patient/9ada2736-229a-40d4-b026-2bdec85c6d02"
      },
      "relationship": {
        "coding": [ {
          "system": "http://terminology.hl7.org/CodeSystem/subscriber-relationship",
          "code": "self",
          "display": "Self",
          "userSelected": true
        } ]
      },
      "period": {
        "start": "2025-12-01T00:00:00.000+00:00"
      },
      "payor": [ {
        "reference": "Organization/47f7d8fd-b559-49da-831b-2a0f843d4627"
      } ]
    }
  }, {
    "fullUrl": "https://madie.cms.gov/Organization/47f7d8fd-b559-49da-831b-2a0f843d4627",
    "resource": {
      "resourceType": "Organization",
      "id": "47f7d8fd-b559-49da-831b-2a0f843d4627",
      "meta": {
        "profile": [ "http://hl7.org/fhir/us/qicore/StructureDefinition/qicore-organization" ]
      },
      "identifier": [ {
        "use": "temp",
        "system": "urn:oid:2.16.840.1.113883.4.4",
        "value": "21-3259825"
      } ],
      "active": true,
      "type": [ {
        "coding": [ {
          "system": "http://terminology.hl7.org/CodeSystem/organization-type",
          "code": "pay",
          "display": "Payer"
        } ]
      } ],
      "name": "Blue Cross Blue Shield of Texas",
      "telecom": [ {
        "system": "phone",
        "value": "(+1) 972-766-6900"
      } ],
      "address": [ {
        "use": "billing",
        "type": "postal",
        "line": [ "P.O. Box 660044" ],
        "city": "Dallas",
        "state": "TX",
        "postalCode": "75266-0044",
        "country": "USA"
      } ]
    }
  }, {
    "fullUrl": "https://madie.cms.gov/Practitioner/ab9de299-0b5c-4e70-b336-fe74bab52d5b",
    "resource": {
      "resourceType": "Practitioner",
      "id": "ab9de299-0b5c-4e70-b336-fe74bab52d5b",
      "meta": {
        "profile": [ "http://hl7.org/fhir/us/qicore/StructureDefinition/qicore-practitioner" ]
      },
      "identifier": [ {
        "system": "http://hl7.org/fhir/sid/us-npi",
        "value": "1234567893"
      } ],
      "name": [ {
        "family": "Evil",
        "prefix": [ "Dr" ]
      } ]
    }
  }, {
    "fullUrl": "https://madie.cms.gov/MeasureReport/20c3879b-c472-46f2-8b8c-7866a54a29b1",
    "resource": {
      "resourceType": "MeasureReport",
      "id": "20c3879b-c472-46f2-8b8c-7866a54a29b1",
      "meta": {
        "profile": [ "http://hl7.org/fhir/us/cqfmeasures/StructureDefinition/test-case-cqfm" ]
      },
      "contained": [ {
        "resourceType": "Parameters",
        "id": "e134aa58-ce9f-4113-a16e-405740e60151-parameters",
        "parameter": [ {
          "name": "subject",
          "valueString": "9ada2736-229a-40d4-b026-2bdec85c6d02"
        } ]
      } ],
      "extension": [ {
        "url": "http://hl7.org/fhir/StructureDefinition/cqf-inputParameters",
        "valueReference": {
          "reference": "#e134aa58-ce9f-4113-a16e-405740e60151-parameters"
        }
      }, {
        "url": "http://hl7.org/fhir/us/cqfmeasures/StructureDefinition/cqfm-testCaseDescription",
        "valueMarkdown": "Qualifying encounter on the first day of the measurement period with time of 0000."
      } ],
      "modifierExtension": [ {
        "url": "http://hl7.org/fhir/us/cqfmeasures/StructureDefinition/cqfm-isTestCase",
        "valueBoolean": true
      } ],
      "status": "complete",
      "type": "individual",
      "measure": "https://madie.cms.gov/Measure/CMS68FHIRDocumentationCurrentMeds",
      "period": {
        "start": "2026-01-01",
        "end": "2026-12-31"
      },
      "group": [ {
        "id": "Group_1",
        "population": [ {
          "id": "InitialPopulation_1",
          "code": {
            "coding": [ {
              "system": "http://terminology.hl7.org/CodeSystem/measure-population",
              "code": "initial-population",
              "display": "Initial Population"
            } ]
          },
          "count": 1
        }, {
          "id": "Denominator_1",
          "code": {
            "coding": [ {
              "system": "http://terminology.hl7.org/CodeSystem/measure-population",
              "code": "denominator",
              "display": "Denominator"
            } ]
          },
          "count": 1
        }, {
          "id": "Numerator_1",
          "code": {
            "coding": [ {
              "system": "http://terminology.hl7.org/CodeSystem/measure-population",
              "code": "numerator",
              "display": "Numerator"
            } ]
          },
          "count": 1
        }, {
          "id": "DenominatorException_1",
          "code": {
            "coding": [ {
              "system": "http://terminology.hl7.org/CodeSystem/measure-population",
              "code": "denominator-exception",
              "display": "Denominator Exception"
            } ]
          },
          "count": 0
        } ],
        "measureScore": {
          "value": 0.0
        }
      } ],
      "evaluatedResource": [ {
        "reference": "Patient/9ada2736-229a-40d4-b026-2bdec85c6d02"
      }, {
        "reference": "Encounter/a4cd2cc1-9657-457d-a977-a90db37f0ed6"
      }, {
        "reference": "Procedure/457c91fc-c5b4-4345-b3d9-463098b57252"
      }, {
        "reference": "Coverage/59e01a35-f1de-49a7-bee6-c2f1e531c42a"
      }, {
        "reference": "Organization/47f7d8fd-b559-49da-831b-2a0f843d4627"
      }, {
        "reference": "Practitioner/ab9de299-0b5c-4e70-b336-fe74bab52d5b"
      } ]
    }
  } ]
}