{
  "resourceType": "Bundle",
  "id": "77732f15414ba67d4e1d1119",
  "type": "transaction",
  "entry": [ {
    "fullUrl": "https://madie.cms.gov/Patient/8749b972-7e53-4f5b-9047-7b7eaf31bc1d",
    "resource": {
      "resourceType": "Patient",
      "id": "8749b972-7e53-4f5b-9047-7b7eaf31bc1d",
      "meta": {
        "profile": [ "http://hl7.org/fhir/us/qicore/StructureDefinition/qicore-patient" ]
      },
      "extension": [ {
        "url": "http://hl7.org/fhir/us/core/StructureDefinition/us-core-race",
        "extension": [ {
          "url": "ombCategory",
          "valueCoding": {
            "system": "urn:oid:2.16.840.1.113883.6.238",
            "code": "1002-5",
            "display": "American Indian or Alaska Native",
            "userSelected": true
          }
        }, {
          "url": "text",
          "valueString": "American Indian or Alaska Native"
        } ]
      }, {
        "url": "http://hl7.org/fhir/us/core/StructureDefinition/us-core-ethnicity",
        "extension": [ {
          "url": "ombCategory",
          "valueCoding": {
            "system": "urn:oid:2.16.840.1.113883.6.238",
            "code": "2135-2",
            "display": "Hispanic or Latino",
            "userSelected": true
          }
        }, {
          "url": "text",
          "valueString": "Hispanic or Latino"
        } ]
      } ],
      "identifier": [ {
        "system": "http://hospital.smarthealthit.org",
        "value": "999999999"
      } ],
      "name": [ {
        "family": "DENEXFail",
        "given": [ "MOUDAfterMATPeriod" ]
      } ],
      "gender": "male",
      "birthDate": "2001-12-31"
    },
    "request": {
      "method": "PUT",
      "url": "Patient/8749b972-7e53-4f5b-9047-7b7eaf31bc1d"
    }
  }, {
    "fullUrl": "https://madie.cms.gov/Encounter/646ebb7a-ee4c-46f8-a863-aafae6962ad3",
    "resource": {
      "resourceType": "Encounter",
      "id": "646ebb7a-ee4c-46f8-a863-aafae6962ad3",
      "meta": {
        "profile": [ "http://hl7.org/fhir/us/qicore/StructureDefinition/qicore-encounter" ]
      },
      "status": "finished",
      "class": {
        "system": "http://terminology.hl7.org/CodeSystem/v3-ActCode",
        "code": "IMP",
        "display": "inpatient encounter"
      },
      "type": [ {
        "coding": [ {
          "system": "http://snomed.info/sct",
          "code": "183452005",
          "display": "Emergency hospital admission (procedure)",
          "userSelected": true
        } ]
      } ],
      "subject": {
        "reference": "Patient/8749b972-7e53-4f5b-9047-7b7eaf31bc1d"
      },
      "period": {
        "start": "2026-01-01T00:00:00.000+00:00",
        "end": "2026-01-04T00:35:00.000+00:00"
      }
    },
    "request": {
      "method": "PUT",
      "url": "Encounter/646ebb7a-ee4c-46f8-a863-aafae6962ad3"
    }
  }, {
    "fullUrl": "https://madie.cms.gov/MedicationRequest/bceecda3-30e2-4cb2-a4ae-722e8eee4e6f",
    "resource": {
      "resourceType": "MedicationRequest",
      "id": "bceecda3-30e2-4cb2-a4ae-722e8eee4e6f",
      "meta": {
        "profile": [ "http://hl7.org/fhir/us/qicore/StructureDefinition/qicore-medicationrequest" ]
      },
      "status": "active",
      "intent": "original-order",
      "category": [ {
        "coding": [ {
          "system": "http://terminology.hl7.org/CodeSystem/medicationrequest-category",
          "code": "discharge",
          "display": "Discharge",
          "userSelected": true
        } ]
      } ],
      "doNotPerform": false,
      "medicationCodeableConcept": {
        "coding": [ {
          "system": "http://www.nlm.nih.gov/research/umls/rxnorm",
          "code": "1298088",
          "display": "flurazepam hydrochloride 15 MG Oral Capsule",
          "userSelected": true
        } ]
      },
      "subject": {
        "reference": "Patient/8749b972-7e53-4f5b-9047-7b7eaf31bc1d"
      },
      "authoredOn": "2026-01-04T00:35:00.000+00:00",
      "requester": {
        "reference": "Practitioner/4e39b4c2-019d-4f22-b2b3-850eda3e51c9"
      }
    },
    "request": {
      "method": "PUT",
      "url": "MedicationRequest/bceecda3-30e2-4cb2-a4ae-722e8eee4e6f"
    }
  }, {
    "fullUrl": "https://madie.cms.gov/Practitioner/4e39b4c2-019d-4f22-b2b3-850eda3e51c9",
    "resource": {
      "resourceType": "Practitioner",
      "id": "4e39b4c2-019d-4f22-b2b3-850eda3e51c9",
      "meta": {
        "profile": [ "http://hl7.org/fhir/us/qicore/StructureDefinition/qicore-practitioner" ]
      },
      "identifier": [ {
        "system": "http://hl7.org/fhir/sid/us-npi",
        "value": "9999999896"
      } ],
      "active": true,
      "name": [ {
        "family": "Ramires",
        "given": [ "Alma" ],
        "prefix": [ "Dr" ]
      } ],
      "address": [ {
        "use": "home",
        "line": [ "534 Erewhon St" ],
        "city": "Netherville",
        "state": "IN",
        "postalCode": "46131"
      } ],
      "qualification": [ {
        "identifier": [ {
          "system": "http://goodhealth.org/prIdentifier",
          "value": "12345"
        } ],
        "code": {
          "coding": [ {
            "system": "http://terminology.hl7.org/CodeSystem/v2-0360|2.7",
            "code": "BS",
            "display": "Bachelor of Science"
          } ],
          "text": "Bachelor of Science"
        },
        "period": {
          "start": "1995"
        },
        "issuer": {
          "display": "Example University"
        }
      } ]
    },
    "request": {
      "method": "PUT",
      "url": "Practitioner/4e39b4c2-019d-4f22-b2b3-850eda3e51c9"
    }
  }, {
    "fullUrl": "https://madie.cms.gov/MedicationRequest/601c62dd-50ff-45df-b456-77668b6f1cc6",
    "resource": {
      "resourceType": "MedicationRequest",
      "id": "601c62dd-50ff-45df-b456-77668b6f1cc6",
      "meta": {
        "profile": [ "http://hl7.org/fhir/us/qicore/StructureDefinition/qicore-medicationrequest" ]
      },
      "status": "active",
      "intent": "order",
      "category": [ {
        "coding": [ {
          "system": "http://terminology.hl7.org/CodeSystem/medicationrequest-category",
          "code": "discharge",
          "display": "Discharge",
          "userSelected": true
        } ]
      } ],
      "doNotPerform": false,
      "medicationCodeableConcept": {
        "coding": [ {
          "system": "http://www.nlm.nih.gov/research/umls/rxnorm",
          "code": "1010600",
          "display": "buprenorphine 2 MG / naloxone 0.5 MG Sublingual Film",
          "userSelected": true
        } ]
      },
      "subject": {
        "reference": "Patient/8749b972-7e53-4f5b-9047-7b7eaf31bc1d"
      },
      "authoredOn": "2026-01-03T00:00:00.000+00:00",
      "requester": {
        "reference": "Practitioner/4e39b4c2-019d-4f22-b2b3-850eda3e51c9"
      }
    },
    "request": {
      "method": "PUT",
      "url": "MedicationRequest/601c62dd-50ff-45df-b456-77668b6f1cc6"
    }
  }, {
    "fullUrl": "https://madie.cms.gov/Procedure/0baee835-e965-4bd8-b799-d8cd6ceaea08",
    "resource": {
      "resourceType": "Procedure",
      "id": "0baee835-e965-4bd8-b799-d8cd6ceaea08",
      "meta": {
        "profile": [ "http://hl7.org/fhir/us/qicore/StructureDefinition/qicore-procedure" ]
      },
      "extension": [ {
        "url": "http://hl7.org/fhir/us/qicore/StructureDefinition/qicore-recorded",
        "valueDateTime": "2026-01-02T00:10:00.000+00:00"
      } ],
      "status": "completed",
      "code": {
        "coding": [ {
          "system": "http://snomed.info/sct",
          "code": "792902005",
          "display": "Drug addiction therapy using buprenorphine and naloxone (regime/therapy)",
          "userSelected": true
        } ]
      },
      "subject": {
        "reference": "Patient/8749b972-7e53-4f5b-9047-7b7eaf31bc1d"
      },
      "performedDateTime": "2026-01-02T00:10:00.000+00:00"
    },
    "request": {
      "method": "PUT",
      "url": "Procedure/0baee835-e965-4bd8-b799-d8cd6ceaea08"
    }
  }, {
    "fullUrl": "https://madie.cms.gov/Coverage/e951d12a-e754-4a46-be45-c9fe39d1d22b",
    "resource": {
      "resourceType": "Coverage",
      "id": "e951d12a-e754-4a46-be45-c9fe39d1d22b",
      "meta": {
        "profile": [ "http://hl7.org/fhir/us/qicore/StructureDefinition/qicore-coverage" ]
      },
      "status": "active",
      "subscriberId": "523435",
      "beneficiary": {
        "reference": "Patient/8749b972-7e53-4f5b-9047-7b7eaf31bc1d"
      },
      "relationship": {
        "coding": [ {
          "system": "http://terminology.hl7.org/CodeSystem/subscriber-relationship",
          "code": "self"
        } ]
      },
      "payor": [ {
        "reference": "Organization/e5ee9905-1a27-4c9f-b5e3-eeab06712714"
      } ]
    },
    "request": {
      "method": "PUT",
      "url": "Coverage/e951d12a-e754-4a46-be45-c9fe39d1d22b"
    }
  }, {
    "fullUrl": "https://madie.cms.gov/Organization/e5ee9905-1a27-4c9f-b5e3-eeab06712714",
    "resource": {
      "resourceType": "Organization",
      "id": "e5ee9905-1a27-4c9f-b5e3-eeab06712714",
      "meta": {
        "profile": [ "http://hl7.org/fhir/us/qicore/StructureDefinition/qicore-organization" ]
      },
      "identifier": [ {
        "use": "temp",
        "system": "urn:oid:2.16.840.1.113883.4.4",
        "value": "21-3259825"
      } ],
      "active": true,
      "type": [ {
        "coding": [ {
          "system": "http://terminology.hl7.org/CodeSystem/organization-type",
          "code": "pay",
          "display": "Payer"
        } ]
      } ],
      "name": "Blue Cross Blue Shield of Texas",
      "telecom": [ {
        "system": "phone",
        "value": "(+1) 972-766-6900"
      } ],
      "address": [ {
        "use": "billing",
        "type": "postal",
        "line": [ "P.O. Box 660044" ],
        "city": "Dallas",
        "state": "TX",
        "postalCode": "75266-0044",
        "country": "USA"
      } ]
    },
    "request": {
      "method": "PUT",
      "url": "Organization/e5ee9905-1a27-4c9f-b5e3-eeab06712714"
    }
  }, {
    "fullUrl": "https://madie.cms.gov/MeasureReport/d374ca05-b7f2-4635-a50d-0bc053b1904f",
    "resource": {
      "resourceType": "MeasureReport",
      "id": "d374ca05-b7f2-4635-a50d-0bc053b1904f",
      "meta": {
        "profile": [ "http://hl7.org/fhir/us/cqfmeasures/StructureDefinition/test-case-cqfm" ]
      },
      "contained": [ {
        "resourceType": "Parameters",
        "id": "df35c749-4b8c-4258-81bd-1bad024a9fe1-parameters",
        "parameter": [ {
          "name": "subject",
          "valueString": "8749b972-7e53-4f5b-9047-7b7eaf31bc1d"
        } ]
      } ],
      "extension": [ {
        "url": "http://hl7.org/fhir/StructureDefinition/cqf-inputParameters",
        "valueReference": {
          "reference": "#df35c749-4b8c-4258-81bd-1bad024a9fe1-parameters"
        }
      }, {
        "url": "http://hl7.org/fhir/us/cqfmeasures/StructureDefinition/cqfm-testCaseDescription",
        "valueMarkdown": "Encounter 1/1 - 1/4 of MP, pt in MAT program for opioids, tx plan includes buprenorhine tx\n\nMOUD (MedicationRequest-2) authored on 1/3, day after MAT (1/2)"
      } ],
      "modifierExtension": [ {
        "url": "http://hl7.org/fhir/us/cqfmeasures/StructureDefinition/cqfm-isTestCase",
        "valueBoolean": true
      } ],
      "status": "complete",
      "type": "individual",
      "measure": "https://madie.cms.gov/Measure/CMS506FHIRSafeUseofOpioids",
      "period": {
        "start": "2026-01-01",
        "end": "2026-12-31"
      },
      "group": [ {
        "id": "Group_1",
        "population": [ {
          "id": "InitialPopulation_1",
          "code": {
            "coding": [ {
              "system": "http://terminology.hl7.org/CodeSystem/measure-population",
              "code": "initial-population",
              "display": "Initial Population"
            } ]
          },
          "count": 1
        }, {
          "id": "Denominator_1",
          "code": {
            "coding": [ {
              "system": "http://terminology.hl7.org/CodeSystem/measure-population",
              "code": "denominator",
              "display": "Denominator"
            } ]
          },
          "count": 1
        }, {
          "id": "DenominatorExclusion_1",
          "code": {
            "coding": [ {
              "system": "http://terminology.hl7.org/CodeSystem/measure-population",
              "code": "denominator-exclusion",
              "display": "Denominator Exclusion"
            } ]
          },
          "count": 0
        }, {
          "id": "Numerator_1",
          "code": {
            "coding": [ {
              "system": "http://terminology.hl7.org/CodeSystem/measure-population",
              "code": "numerator",
              "display": "Numerator"
            } ]
          },
          "count": 0
        } ],
        "measureScore": {
          "value": 0.0
        }
      } ],
      "evaluatedResource": [ {
        "reference": "Patient/8749b972-7e53-4f5b-9047-7b7eaf31bc1d"
      }, {
        "reference": "Encounter/646ebb7a-ee4c-46f8-a863-aafae6962ad3"
      }, {
        "reference": "MedicationRequest/bceecda3-30e2-4cb2-a4ae-722e8eee4e6f"
      }, {
        "reference": "Practitioner/4e39b4c2-019d-4f22-b2b3-850eda3e51c9"
      }, {
        "reference": "MedicationRequest/601c62dd-50ff-45df-b456-77668b6f1cc6"
      }, {
        "reference": "Procedure/0baee835-e965-4bd8-b799-d8cd6ceaea08"
      }, {
        "reference": "Coverage/e951d12a-e754-4a46-be45-c9fe39d1d22b"
      }, {
        "reference": "Organization/e5ee9905-1a27-4c9f-b5e3-eeab06712714"
      } ]
    },
    "request": {
      "method": "PUT",
      "url": "MeasureReport/d374ca05-b7f2-4635-a50d-0bc053b1904f"
    }
  } ]
}