{
  "resourceType": "Bundle",
  "id": "64d120d51252352a0771c3c0",
  "type": "transaction",
  "entry": [ {
    "fullUrl": "https://madie.cms.gov/Patient/60ac93c0-8278-40b0-b1c0-0f01f3166741",
    "resource": {
      "resourceType": "Patient",
      "id": "60ac93c0-8278-40b0-b1c0-0f01f3166741",
      "meta": {
        "profile": [ "http://hl7.org/fhir/us/qicore/StructureDefinition/qicore-patient" ]
      },
      "extension": [ {
        "url": "http://hl7.org/fhir/us/core/StructureDefinition/us-core-race",
        "extension": [ {
          "url": "ombCategory",
          "valueCoding": {
            "system": "urn:oid:2.16.840.1.113883.6.238",
            "code": "1002-5",
            "display": "American Indian or Alaska Native",
            "userSelected": true
          }
        }, {
          "url": "text",
          "valueString": "American Indian or Alaska Native"
        } ]
      }, {
        "url": "http://hl7.org/fhir/us/core/StructureDefinition/us-core-ethnicity",
        "extension": [ {
          "url": "ombCategory",
          "valueCoding": {
            "system": "urn:oid:2.16.840.1.113883.6.238",
            "code": "2186-5",
            "display": "Not Hispanic or Latino",
            "userSelected": true
          }
        }, {
          "url": "text",
          "valueString": "Not Hispanic or Latino"
        } ]
      } ],
      "identifier": [ {
        "type": {
          "coding": [ {
            "system": "http://terminology.hl7.org/CodeSystem/v2-0203",
            "code": "MR"
          } ]
        },
        "system": "https://bonnie-fhir.healthit.gov/",
        "value": "64d120d51252352a0771c3c0"
      } ],
      "name": [ {
        "family": "IPFail",
        "given": [ "Age17Yr1DayOnDec31Edge" ]
      } ],
      "gender": "female",
      "birthDate": "2009-12-31"
    },
    "request": {
      "method": "PUT",
      "url": "Patient/60ac93c0-8278-40b0-b1c0-0f01f3166741"
    }
  }, {
    "fullUrl": "https://madie.cms.gov/Encounter/dcc8b36d-c815-4186-aa96-206b7406495d",
    "resource": {
      "resourceType": "Encounter",
      "id": "dcc8b36d-c815-4186-aa96-206b7406495d",
      "status": "finished",
      "class": {
        "system": "http://terminology.hl7.org/CodeSystem/v3-ActCode",
        "code": "AMB",
        "display": "ambulatory",
        "userSelected": true
      },
      "type": [ {
        "coding": [ {
          "system": "http://snomed.info/sct",
          "code": "27591006",
          "userSelected": true
        } ]
      } ],
      "subject": {
        "reference": "Patient/60ac93c0-8278-40b0-b1c0-0f01f3166741"
      },
      "period": {
        "start": "2027-11-15T10:02:00.000+00:00",
        "end": "2027-11-15T10:29:00.000+00:00"
      },
      "diagnosis": [ {
        "condition": {
          "reference": "Condition/adbdb947-1b41-49b1-940f-ace25c4f4f34"
        },
        "use": {
          "coding": [ {
            "system": "http://snomed.info/sct",
            "version": "2022-09",
            "code": "832007",
            "display": "Moderate major depression (disorder)",
            "userSelected": true
          } ]
        }
      } ]
    },
    "request": {
      "method": "PUT",
      "url": "Encounter/dcc8b36d-c815-4186-aa96-206b7406495d"
    }
  }, {
    "fullUrl": "https://madie.cms.gov/Condition/adbdb947-1b41-49b1-940f-ace25c4f4f34",
    "resource": {
      "resourceType": "Condition",
      "id": "adbdb947-1b41-49b1-940f-ace25c4f4f34",
      "category": [ {
        "coding": [ {
          "system": "http://terminology.hl7.org/CodeSystem/condition-category",
          "code": "encounter-diagnosis",
          "display": "encounter-diagnosis",
          "userSelected": true
        } ]
      } ],
      "code": {
        "coding": [ {
          "system": "http://snomed.info/sct",
          "version": "2022-09",
          "code": "10811121000119102",
          "display": "Major depressive disorder in mother complicating childbirth (disorder)",
          "userSelected": true
        } ]
      },
      "subject": {
        "reference": "Patient/60ac93c0-8278-40b0-b1c0-0f01f3166741"
      },
      "recordedDate": "2025-11-15T10:02:00.000+00:00"
    },
    "request": {
      "method": "PUT",
      "url": "Condition/adbdb947-1b41-49b1-940f-ace25c4f4f34"
    }
  }, {
    "fullUrl": "https://madie.cms.gov/Coverage/b40c5cb0-1990-485a-ae42-5ffd97f2fee9",
    "resource": {
      "resourceType": "Coverage",
      "id": "b40c5cb0-1990-485a-ae42-5ffd97f2fee9",
      "status": "active",
      "type": {
        "coding": [ {
          "system": "http://www.nlm.nih.gov/research/umls/sop",
          "version": "9.2",
          "code": "1",
          "display": "MEDICARE",
          "userSelected": true
        } ]
      },
      "beneficiary": {
        "reference": "Patient/60ac93c0-8278-40b0-b1c0-0f01f3166741"
      },
      "period": {
        "start": "2027-01-01T08:00:00.000+00:00",
        "end": "2027-12-31T08:15:00.000+00:00"
      },
      "payor": [ {
        "reference": "Organization/9ac57c49-f796-42a6-aad3-be4cf353f311"
      } ]
    },
    "request": {
      "method": "PUT",
      "url": "Coverage/b40c5cb0-1990-485a-ae42-5ffd97f2fee9"
    }
  }, {
    "fullUrl": "https://madie.cms.gov/Organization/9ac57c49-f796-42a6-aad3-be4cf353f311",
    "resource": {
      "resourceType": "Organization",
      "id": "9ac57c49-f796-42a6-aad3-be4cf353f311",
      "meta": {
        "profile": [ "http://hl7.org/fhir/us/qicore/StructureDefinition/qicore-organization" ]
      },
      "identifier": [ {
        "use": "temp",
        "system": "urn:oid:2.16.840.1.113883.4.4",
        "value": "21-3259825"
      } ],
      "active": true,
      "type": [ {
        "coding": [ {
          "system": "http://terminology.hl7.org/CodeSystem/organization-type",
          "code": "pay",
          "display": "Payer"
        } ]
      } ],
      "name": "Blue Cross Blue Shield of Texas",
      "telecom": [ {
        "system": "phone",
        "value": "(+1) 972-766-6900"
      } ],
      "address": [ {
        "use": "billing",
        "type": "postal",
        "line": [ "P.O. Box 660044" ],
        "city": "Dallas",
        "state": "TX",
        "postalCode": "75266-0044",
        "country": "USA"
      } ]
    },
    "request": {
      "method": "PUT",
      "url": "Organization/9ac57c49-f796-42a6-aad3-be4cf353f311"
    }
  }, {
    "fullUrl": "https://madie.cms.gov/Practitioner/d38f40ee-c51f-4936-9b2e-e31216b61c99",
    "resource": {
      "resourceType": "Practitioner",
      "id": "d38f40ee-c51f-4936-9b2e-e31216b61c99",
      "identifier": [ {
        "system": "http://hl7.org/fhir/sid/us-npi",
        "value": "123456"
      } ],
      "name": [ {
        "family": "Evil",
        "prefix": [ "Dr" ]
      } ]
    },
    "request": {
      "method": "PUT",
      "url": "Practitioner/d38f40ee-c51f-4936-9b2e-e31216b61c99"
    }
  }, {
    "fullUrl": "https://madie.cms.gov/MeasureReport/4de4b83f-ff27-4f84-b89f-9a9e1e91d2cd",
    "resource": {
      "resourceType": "MeasureReport",
      "id": "4de4b83f-ff27-4f84-b89f-9a9e1e91d2cd",
      "meta": {
        "profile": [ "http://hl7.org/fhir/us/cqfmeasures/StructureDefinition/test-case-cqfm" ]
      },
      "contained": [ {
        "resourceType": "Parameters",
        "id": "95452052-5fef-4cba-8bf9-cbad29d466ba-parameters",
        "parameter": [ {
          "name": "subject",
          "valueString": "60ac93c0-8278-40b0-b1c0-0f01f3166741"
        } ]
      } ],
      "extension": [ {
        "url": "http://hl7.org/fhir/StructureDefinition/cqf-inputParameters",
        "valueReference": {
          "reference": "#95452052-5fef-4cba-8bf9-cbad29d466ba-parameters"
        }
      }, {
        "url": "http://hl7.org/fhir/us/cqfmeasures/StructureDefinition/cqfm-testCaseDescription",
        "valueMarkdown": "Patient is 17 years 0 months 1 day on start of MP"
      } ],
      "modifierExtension": [ {
        "url": "http://hl7.org/fhir/us/cqfmeasures/StructureDefinition/cqfm-isTestCase",
        "valueBoolean": true
      } ],
      "status": "complete",
      "type": "individual",
      "measure": "https://madie.cms.gov/Measure/CMS177FHIRChildMDDSuicideAssmt",
      "period": {
        "start": "2026-01-01",
        "end": "2026-12-31"
      },
      "group": [ {
        "id": "Group_1",
        "population": [ {
          "id": "InitialPopulation_1",
          "code": {
            "coding": [ {
              "system": "http://terminology.hl7.org/CodeSystem/measure-population",
              "code": "initial-population",
              "display": "Initial Population"
            } ]
          },
          "count": 0
        }, {
          "id": "Denominator_1",
          "code": {
            "coding": [ {
              "system": "http://terminology.hl7.org/CodeSystem/measure-population",
              "code": "denominator",
              "display": "Denominator"
            } ]
          },
          "count": 0
        }, {
          "id": "Numerator_1",
          "code": {
            "coding": [ {
              "system": "http://terminology.hl7.org/CodeSystem/measure-population",
              "code": "numerator",
              "display": "Numerator"
            } ]
          },
          "count": 0
        } ],
        "measureScore": {
          "value": 0.0
        }
      } ],
      "evaluatedResource": [ {
        "reference": "Patient/60ac93c0-8278-40b0-b1c0-0f01f3166741"
      }, {
        "reference": "Encounter/dcc8b36d-c815-4186-aa96-206b7406495d"
      }, {
        "reference": "Condition/adbdb947-1b41-49b1-940f-ace25c4f4f34"
      }, {
        "reference": "Coverage/b40c5cb0-1990-485a-ae42-5ffd97f2fee9"
      }, {
        "reference": "Organization/9ac57c49-f796-42a6-aad3-be4cf353f311"
      }, {
        "reference": "Practitioner/d38f40ee-c51f-4936-9b2e-e31216b61c99"
      } ]
    },
    "request": {
      "method": "PUT",
      "url": "MeasureReport/4de4b83f-ff27-4f84-b89f-9a9e1e91d2cd"
    }
  } ]
}