{
  "resourceType": "Bundle",
  "id": "612e6e7802c62a011f2ee7c5",
  "type": "transaction",
  "entry": [ {
    "fullUrl": "https://madie.cms.gov/Patient/24068f4d-3179-4f2f-872e-02e3b362cac0",
    "resource": {
      "resourceType": "Patient",
      "id": "24068f4d-3179-4f2f-872e-02e3b362cac0",
      "meta": {
        "profile": [ "http://hl7.org/fhir/us/qicore/StructureDefinition/qicore-patient" ]
      },
      "text": {
        "status": "generated",
        "div": "<div xmlns=\"http://www.w3.org/1999/xhtml\"><div class=\"hapiHeaderText\">CMOPerf1minB4EncEd2DayB4Enc <b>DENEXPASS </b></div><table class=\"hapiPropertyTable\"><tbody><tr><td>Identifier</td><td>c418ae51a353c7bea9882dfcbe25293a0248f676c9c3a21849ac6b06ce037aaa</td></tr><tr><td>Date of birth</td><td><span>03 March 1974</span></td></tr></tbody></table></div>"
      },
      "extension": [ {
        "url": "http://hl7.org/fhir/us/core/StructureDefinition/us-core-race",
        "extension": [ {
          "url": "ombCategory",
          "valueCoding": {
            "system": "urn:oid:2.16.840.1.113883.6.238",
            "code": "1002-5",
            "display": "American Indian or Alaska Native",
            "userSelected": true
          }
        }, {
          "url": "text",
          "valueString": "American Indian or Alaska Native"
        } ]
      }, {
        "url": "http://hl7.org/fhir/us/core/StructureDefinition/us-core-ethnicity",
        "extension": [ {
          "url": "ombCategory",
          "valueCoding": {
            "system": "urn:oid:2.16.840.1.113883.6.238",
            "code": "2135-2",
            "display": "Hispanic or Latino",
            "userSelected": true
          }
        }, {
          "url": "text",
          "valueString": "Hispanic or Latino"
        } ]
      } ],
      "identifier": [ {
        "type": {
          "coding": [ {
            "system": "http://terminology.hl7.org/CodeSystem/v2-0203",
            "code": "MR"
          } ]
        },
        "system": "https://bonnie-fhir.healthit.gov/",
        "value": "612e6e7802c62a011f2ee7c5"
      } ],
      "active": true,
      "name": [ {
        "use": "usual",
        "family": "DENEXPass",
        "given": [ "CMOPerf1minB4EncEd2DayB4Enc" ]
      } ],
      "gender": "female",
      "birthDate": "1975-03-03"
    },
    "request": {
      "method": "PUT",
      "url": "Patient/24068f4d-3179-4f2f-872e-02e3b362cac0"
    }
  }, {
    "fullUrl": "https://madie.cms.gov/Encounter/714023bd-84a2-441b-978b-6aa0984d2b77",
    "resource": {
      "resourceType": "Encounter",
      "id": "714023bd-84a2-441b-978b-6aa0984d2b77",
      "meta": {
        "profile": [ "http://hl7.org/fhir/us/qicore/StructureDefinition/qicore-encounter" ]
      },
      "status": "finished",
      "class": {
        "system": "http://terminology.hl7.org/CodeSystem/v3-ActCode",
        "code": "EMER",
        "display": "emergency"
      },
      "type": [ {
        "coding": [ {
          "system": "http://snomed.info/sct",
          "code": "4525004"
        } ]
      } ],
      "subject": {
        "reference": "Patient/24068f4d-3179-4f2f-872e-02e3b362cac0"
      },
      "period": {
        "start": "2026-12-02T06:00:00.000+00:00",
        "end": "2026-12-02T18:30:00.000+00:00"
      },
      "length": {
        "value": 0.0,
        "unit": "days"
      }
    },
    "request": {
      "method": "PUT",
      "url": "Encounter/714023bd-84a2-441b-978b-6aa0984d2b77"
    }
  }, {
    "fullUrl": "https://madie.cms.gov/Encounter/d4de6417-0bea-455a-8515-5cc8a3f365de",
    "resource": {
      "resourceType": "Encounter",
      "id": "d4de6417-0bea-455a-8515-5cc8a3f365de",
      "meta": {
        "profile": [ "http://hl7.org/fhir/us/qicore/StructureDefinition/qicore-encounter" ]
      },
      "status": "finished",
      "class": {
        "system": "http://terminology.hl7.org/CodeSystem/v3-ActCode",
        "code": "IMP",
        "display": "inpatient encounter"
      },
      "type": [ {
        "coding": [ {
          "system": "http://snomed.info/sct",
          "code": "8715000"
        } ]
      } ],
      "subject": {
        "reference": "Patient/24068f4d-3179-4f2f-872e-02e3b362cac0"
      },
      "period": {
        "start": "2026-12-04T08:00:00.000+00:00",
        "end": "2026-12-30T08:15:00.000+00:00"
      },
      "length": {
        "value": 26.0,
        "unit": "days"
      },
      "location": [ {
        "location": {
          "reference": "Location/b8cd7135-ab30-4a44-8eb7-fd869f22bec7"
        },
        "period": {
          "start": "2026-12-26T08:00:00.000+00:00",
          "end": "2026-12-28T08:15:00.000+00:00"
        }
      } ]
    },
    "request": {
      "method": "PUT",
      "url": "Encounter/d4de6417-0bea-455a-8515-5cc8a3f365de"
    }
  }, {
    "fullUrl": "https://madie.cms.gov/Procedure/2063401c-74e0-4c45-a158-5db9645ed8bf",
    "resource": {
      "resourceType": "Procedure",
      "id": "2063401c-74e0-4c45-a158-5db9645ed8bf",
      "meta": {
        "profile": [ "http://hl7.org/fhir/us/qicore/StructureDefinition/qicore-procedure" ]
      },
      "extension": [ {
        "url": "http://hl7.org/fhir/us/qicore/StructureDefinition/qicore-recorded",
        "valueDateTime": "2013-12-05T13:35:00.000+00:00"
      } ],
      "status": "completed",
      "code": {
        "coding": [ {
          "system": "http://snomed.info/sct",
          "code": "133918004"
        } ]
      },
      "subject": {
        "reference": "Patient/24068f4d-3179-4f2f-872e-02e3b362cac0"
      },
      "performedPeriod": {
        "start": "2026-12-04T07:59:00.000+00:00"
      }
    },
    "request": {
      "method": "PUT",
      "url": "Procedure/2063401c-74e0-4c45-a158-5db9645ed8bf"
    }
  }, {
    "fullUrl": "https://madie.cms.gov/Coverage/4dfa0f87-4b0b-4c78-b14a-4c928e47e03c",
    "resource": {
      "resourceType": "Coverage",
      "id": "4dfa0f87-4b0b-4c78-b14a-4c928e47e03c",
      "status": "active",
      "beneficiary": {
        "reference": "Patient/24068f4d-3179-4f2f-872e-02e3b362cac0"
      },
      "period": {
        "start": "1975-03-03T08:00:00.000+00:00"
      },
      "payor": [ {
        "reference": "Organization/42b12538-fdd7-47cf-b554-6ca7ad90dce6"
      } ]
    },
    "request": {
      "method": "PUT",
      "url": "Coverage/4dfa0f87-4b0b-4c78-b14a-4c928e47e03c"
    }
  }, {
    "fullUrl": "https://madie.cms.gov/Location/b8cd7135-ab30-4a44-8eb7-fd869f22bec7",
    "resource": {
      "resourceType": "Location",
      "id": "b8cd7135-ab30-4a44-8eb7-fd869f22bec7",
      "meta": {
        "profile": [ "http://hl7.org/fhir/us/qicore/StructureDefinition/qicore-location" ]
      },
      "identifier": [ {
        "use": "usual",
        "system": "http://exampleoflocation.com",
        "value": "B1-S.F2"
      } ],
      "name": "Medical Surgical East, first floor",
      "type": [ {
        "coding": [ {
          "system": "https://www.cdc.gov/nhsn/cdaportal/terminology/codesystem/hsloc.html",
          "code": "1025-6",
          "display": "Trauma Critical Care",
          "userSelected": true
        } ]
      } ]
    },
    "request": {
      "method": "PUT",
      "url": "Location/b8cd7135-ab30-4a44-8eb7-fd869f22bec7"
    }
  }, {
    "fullUrl": "https://madie.cms.gov/Organization/42b12538-fdd7-47cf-b554-6ca7ad90dce6",
    "resource": {
      "resourceType": "Organization",
      "id": "42b12538-fdd7-47cf-b554-6ca7ad90dce6",
      "meta": {
        "profile": [ "http://hl7.org/fhir/us/qicore/StructureDefinition/qicore-organization" ]
      },
      "identifier": [ {
        "use": "temp",
        "system": "urn:oid:2.16.840.1.113883.4.4",
        "value": "21-3259825"
      } ],
      "active": true,
      "type": [ {
        "coding": [ {
          "system": "http://terminology.hl7.org/CodeSystem/organization-type",
          "code": "pay",
          "display": "Payer"
        } ]
      } ],
      "name": "Blue Cross Blue Shield of Texas",
      "telecom": [ {
        "system": "phone",
        "value": "(+1) 972-766-6900"
      } ],
      "address": [ {
        "use": "billing",
        "type": "postal",
        "line": [ "P.O. Box 660044" ],
        "city": "Dallas",
        "state": "TX",
        "postalCode": "75266-0044",
        "country": "USA"
      } ]
    },
    "request": {
      "method": "PUT",
      "url": "Organization/42b12538-fdd7-47cf-b554-6ca7ad90dce6"
    }
  }, {
    "fullUrl": "https://madie.cms.gov/Practitioner/d4ed8251-f02b-4ed3-a15c-e7d8da19ffca",
    "resource": {
      "resourceType": "Practitioner",
      "id": "d4ed8251-f02b-4ed3-a15c-e7d8da19ffca",
      "identifier": [ {
        "system": "http://hl7.org/fhir/sid/us-npi",
        "value": "123456"
      } ],
      "name": [ {
        "family": "Evil",
        "prefix": [ "Dr" ]
      } ]
    },
    "request": {
      "method": "PUT",
      "url": "Practitioner/d4ed8251-f02b-4ed3-a15c-e7d8da19ffca"
    }
  }, {
    "fullUrl": "https://madie.cms.gov/MeasureReport/677be8a3-c5cc-430c-8fa3-e7820c939edd",
    "resource": {
      "resourceType": "MeasureReport",
      "id": "677be8a3-c5cc-430c-8fa3-e7820c939edd",
      "meta": {
        "profile": [ "http://hl7.org/fhir/us/cqfmeasures/StructureDefinition/test-case-cqfm" ]
      },
      "contained": [ {
        "resourceType": "Parameters",
        "id": "c184aec2-849e-4328-87f1-f5001389fba8-parameters",
        "parameter": [ {
          "name": "subject",
          "valueString": "24068f4d-3179-4f2f-872e-02e3b362cac0"
        } ]
      } ],
      "extension": [ {
        "url": "http://hl7.org/fhir/StructureDefinition/cqf-inputParameters",
        "valueReference": {
          "reference": "#c184aec2-849e-4328-87f1-f5001389fba8-parameters"
        }
      }, {
        "url": "http://hl7.org/fhir/us/cqfmeasures/StructureDefinition/cqfm-testCaseDescription",
        "valueMarkdown": "meets IPP and Denominator, inpatient visit starts >1 day after the end of ED visit(Global Hosp without Ed) AND Comfort Measures are performed 1 min before EncIP,. This case passes DENEXCL because CMO is on the same day as Adm\n"
      } ],
      "modifierExtension": [ {
        "url": "http://hl7.org/fhir/us/cqfmeasures/StructureDefinition/cqfm-isTestCase",
        "valueBoolean": true
      } ],
      "status": "complete",
      "type": "individual",
      "measure": "https://madie.cms.gov/Measure/CMS190FHIRVTEProphylaxisICU",
      "period": {
        "start": "2026-01-01",
        "end": "2026-12-31"
      },
      "group": [ {
        "id": "Group_1",
        "population": [ {
          "id": "InitialPopulation_1",
          "code": {
            "coding": [ {
              "system": "http://terminology.hl7.org/CodeSystem/measure-population",
              "code": "initial-population",
              "display": "Initial Population"
            } ]
          },
          "count": 1
        }, {
          "id": "Denominator_1",
          "code": {
            "coding": [ {
              "system": "http://terminology.hl7.org/CodeSystem/measure-population",
              "code": "denominator",
              "display": "Denominator"
            } ]
          },
          "count": 1
        }, {
          "id": "DenominatorExclusion_1",
          "code": {
            "coding": [ {
              "system": "http://terminology.hl7.org/CodeSystem/measure-population",
              "code": "denominator-exclusion",
              "display": "Denominator Exclusion"
            } ]
          },
          "count": 1
        }, {
          "id": "Numerator_1",
          "code": {
            "coding": [ {
              "system": "http://terminology.hl7.org/CodeSystem/measure-population",
              "code": "numerator",
              "display": "Numerator"
            } ]
          },
          "count": 0
        }, {
          "id": "DenominatorException_1",
          "code": {
            "coding": [ {
              "system": "http://terminology.hl7.org/CodeSystem/measure-population",
              "code": "denominator-exception",
              "display": "Denominator Exception"
            } ]
          },
          "count": 0
        } ],
        "measureScore": {
          "value": 0.0
        }
      } ],
      "evaluatedResource": [ {
        "reference": "Patient/24068f4d-3179-4f2f-872e-02e3b362cac0"
      }, {
        "reference": "Encounter/714023bd-84a2-441b-978b-6aa0984d2b77"
      }, {
        "reference": "Encounter/d4de6417-0bea-455a-8515-5cc8a3f365de"
      }, {
        "reference": "Procedure/2063401c-74e0-4c45-a158-5db9645ed8bf"
      }, {
        "reference": "Coverage/4dfa0f87-4b0b-4c78-b14a-4c928e47e03c"
      }, {
        "reference": "Location/b8cd7135-ab30-4a44-8eb7-fd869f22bec7"
      }, {
        "reference": "Organization/42b12538-fdd7-47cf-b554-6ca7ad90dce6"
      }, {
        "reference": "Practitioner/d4ed8251-f02b-4ed3-a15c-e7d8da19ffca"
      } ]
    },
    "request": {
      "method": "PUT",
      "url": "MeasureReport/677be8a3-c5cc-430c-8fa3-e7820c939edd"
    }
  } ]
}