{
  "resourceType": "Bundle",
  "id": "63594c7a6aee9629c82981df",
  "type": "transaction",
  "entry": [ {
    "fullUrl": "https://madie.cms.gov/Patient/5a0bfd0b-983c-4dd4-bc07-d2512d722987",
    "resource": {
      "resourceType": "Patient",
      "id": "5a0bfd0b-983c-4dd4-bc07-d2512d722987",
      "meta": {
        "profile": [ "http://hl7.org/fhir/us/qicore/StructureDefinition/qicore-patient" ]
      },
      "text": {
        "status": "generated",
        "div": "<div xmlns=\"http://www.w3.org/1999/xhtml\"><div class=\"hapiHeaderText\">Risk_LongTermAnticoagulantUse<b>RISKPass </b></div><table class=\"hapiPropertyTable\"><tbody><tr><td>Date of birth</td><td><span>01 February 2004</span></td></tr></tbody></table></div>"
      },
      "extension": [ {
        "url": "http://hl7.org/fhir/us/core/StructureDefinition/us-core-race",
        "extension": [ {
          "url": "ombCategory",
          "valueCoding": {
            "system": "urn:oid:2.16.840.1.113883.6.238",
            "code": "1002-5",
            "display": "American Indian or Alaska Native",
            "userSelected": true
          }
        }, {
          "url": "text",
          "valueString": "American Indian or Alaska Native"
        } ]
      }, {
        "url": "http://hl7.org/fhir/us/core/StructureDefinition/us-core-ethnicity",
        "extension": [ {
          "url": "ombCategory",
          "valueCoding": {
            "system": "urn:oid:2.16.840.1.113883.6.238",
            "code": "2135-2",
            "display": "Hispanic or Latino",
            "userSelected": true
          }
        }, {
          "url": "text",
          "valueString": "Hispanic or Latino"
        } ]
      } ],
      "identifier": [ {
        "type": {
          "coding": [ {
            "system": "http://terminology.hl7.org/CodeSystem/v2-0203",
            "code": "MR"
          } ]
        },
        "system": "https://bonnie-fhir.healthit.gov/",
        "value": "63594c7a6aee9629c82981df"
      } ],
      "active": true,
      "name": [ {
        "use": "usual",
        "family": "RiskPass",
        "given": [ "RiskLongTermAnticoagulantUse" ]
      } ],
      "gender": "female",
      "birthDate": "2005-02-01"
    },
    "request": {
      "method": "PUT",
      "url": "Patient/5a0bfd0b-983c-4dd4-bc07-d2512d722987"
    }
  }, {
    "fullUrl": "https://madie.cms.gov/Observation/a9499069-a4d9-422b-b49c-77a6dbf34768",
    "resource": {
      "resourceType": "Observation",
      "id": "a9499069-a4d9-422b-b49c-77a6dbf34768",
      "meta": {
        "profile": [ "http://hl7.org/fhir/us/qicore/StructureDefinition/qicore-simple-observation" ]
      },
      "status": "final",
      "category": [ {
        "coding": [ {
          "system": "http://terminology.hl7.org/CodeSystem/observation-category",
          "code": "exam",
          "display": "exam",
          "userSelected": true
        } ]
      } ],
      "code": {
        "coding": [ {
          "system": "http://loinc.org",
          "code": "93857-1"
        } ]
      },
      "subject": {
        "reference": "Patient/5a0bfd0b-983c-4dd4-bc07-d2512d722987"
      },
      "effectiveDateTime": "2026-02-01T08:00:00.000+00:00",
      "performer": [ {
        "reference": "Organization/example1",
        "display": "Hendricks Country Hospital"
      } ],
      "valueDateTime": "2026-02-01T08:00:00.000+00:00"
    },
    "request": {
      "method": "PUT",
      "url": "Observation/a9499069-a4d9-422b-b49c-77a6dbf34768"
    }
  }, {
    "fullUrl": "https://madie.cms.gov/Observation/d9aec653-2744-4e36-ae0b-7216526d6641",
    "resource": {
      "resourceType": "Observation",
      "id": "d9aec653-2744-4e36-ae0b-7216526d6641",
      "meta": {
        "profile": [ "http://hl7.org/fhir/us/qicore/StructureDefinition/qicore-simple-observation" ]
      },
      "status": "final",
      "category": [ {
        "coding": [ {
          "system": "http://terminology.hl7.org/CodeSystem/observation-category",
          "code": "exam",
          "display": "exam",
          "userSelected": true
        } ]
      } ],
      "code": {
        "coding": [ {
          "system": "http://loinc.org",
          "code": "11778-8"
        } ]
      },
      "subject": {
        "reference": "Patient/5a0bfd0b-983c-4dd4-bc07-d2512d722987"
      },
      "effectiveDateTime": "2026-02-01T08:00:00.000+00:00",
      "performer": [ {
        "reference": "Organization/example1",
        "display": "Hendricks Country Hospital"
      } ],
      "valueDateTime": "2026-02-01T00:00:00.000+00:00"
    },
    "request": {
      "method": "PUT",
      "url": "Observation/d9aec653-2744-4e36-ae0b-7216526d6641"
    }
  }, {
    "fullUrl": "https://madie.cms.gov/Encounter/67293575-2887-4258-990d-0d057e5bc0fc",
    "resource": {
      "resourceType": "Encounter",
      "id": "67293575-2887-4258-990d-0d057e5bc0fc",
      "meta": {
        "profile": [ "http://hl7.org/fhir/us/qicore/StructureDefinition/qicore-encounter" ]
      },
      "status": "finished",
      "class": {
        "system": "http://terminology.hl7.org/CodeSystem/v3-ActCode",
        "code": "IMP",
        "display": "inpatient encounter"
      },
      "type": [ {
        "coding": [ {
          "system": "http://snomed.info/sct",
          "code": "183452005"
        } ]
      } ],
      "subject": {
        "reference": "Patient/5a0bfd0b-983c-4dd4-bc07-d2512d722987"
      },
      "period": {
        "start": "2026-02-01T08:00:00.000+00:00",
        "end": "2026-02-05T08:15:00.000+00:00"
      },
      "diagnosis": [ {
        "extension": [ {
          "url": "http://hl7.org/fhir/us/qicore/StructureDefinition/qicore-encounter-diagnosisPresentOnAdmission",
          "valueCodeableConcept": {
            "coding": [ {
              "system": "https://www.cms.gov/Medicare/Medicare-Fee-for-Service-Payment/HospitalAcqCond/Coding",
              "code": "Y"
            } ]
          }
        } ],
        "condition": {
          "reference": "Condition/431e0dc4-2351-4f1f-8f12-e0da2c217f6f"
        }
      }, {
        "extension": [ {
          "url": "http://hl7.org/fhir/us/qicore/StructureDefinition/qicore-encounter-diagnosisPresentOnAdmission",
          "valueCodeableConcept": {
            "coding": [ {
              "system": "https://www.cms.gov/Medicare/Medicare-Fee-for-Service-Payment/HospitalAcqCond/Coding",
              "code": "N"
            } ]
          }
        } ],
        "condition": {
          "reference": "Condition/3196c1e8-2124-4c37-a706-e63cb78b4a18"
        }
      } ]
    },
    "request": {
      "method": "PUT",
      "url": "Encounter/67293575-2887-4258-990d-0d057e5bc0fc"
    }
  }, {
    "fullUrl": "https://madie.cms.gov/Procedure/364b83c3-1d1d-446b-b4ab-c61523a4c5cd",
    "resource": {
      "resourceType": "Procedure",
      "id": "364b83c3-1d1d-446b-b4ab-c61523a4c5cd",
      "meta": {
        "profile": [ "http://hl7.org/fhir/us/qicore/StructureDefinition/qicore-procedure" ]
      },
      "extension": [ {
        "url": "http://hl7.org/fhir/us/qicore/StructureDefinition/qicore-recorded",
        "valueDateTime": "2014-04-05T13:35:00.000+00:00"
      } ],
      "status": "completed",
      "code": {
        "coding": [ {
          "system": "http://snomed.info/sct",
          "code": "10745001"
        } ]
      },
      "subject": {
        "reference": "Patient/5a0bfd0b-983c-4dd4-bc07-d2512d722987"
      },
      "performedDateTime": "2026-02-01T08:00:00.000+00:00"
    },
    "request": {
      "method": "PUT",
      "url": "Procedure/364b83c3-1d1d-446b-b4ab-c61523a4c5cd"
    }
  }, {
    "fullUrl": "https://madie.cms.gov/Claim/28a118b8-1311-4408-b5a6-ffea55464145",
    "resource": {
      "resourceType": "Claim",
      "id": "28a118b8-1311-4408-b5a6-ffea55464145",
      "meta": {
        "profile": [ "http://hl7.org/fhir/us/qicore/StructureDefinition/qicore-claim" ]
      },
      "status": "active",
      "type": {
        "coding": [ {
          "system": "http://terminology.hl7.org/CodeSystem/claim-type",
          "code": "institutional",
          "display": "Institutional"
        } ]
      },
      "use": "claim",
      "patient": {
        "reference": "Patient/5a0bfd0b-983c-4dd4-bc07-d2512d722987"
      },
      "created": "2026-11-08",
      "provider": {
        "reference": "Practitioner/practitioner-123456"
      },
      "priority": {
        "coding": [ {
          "system": "http://terminology.hl7.org/CodeSystem/processpriority",
          "code": "normal"
        } ]
      },
      "diagnosis": [ {
        "sequence": 1,
        "diagnosisCodeableConcept": {
          "coding": [ {
            "system": "http://hl7.org/fhir/sid/icd-10-cm",
            "code": "Z79.01",
            "display": "Long Term Anticoagulant Use"
          } ]
        },
        "type": [ {
          "coding": [ {
            "system": "http://terminology.hl7.org/CodeSystem/ex-diagnosistype",
            "code": "discharge",
            "display": "Discharge Diagnosis"
          } ]
        } ],
        "onAdmission": {
          "coding": [ {
            "system": "https://www.cms.gov/Medicare/Medicare-Fee-for-Service-Payment/HospitalAcqCond/Coding",
            "code": "Y"
          } ]
        }
      }, {
        "sequence": 2,
        "diagnosisCodeableConcept": {
          "coding": [ {
            "system": "http://hl7.org/fhir/sid/icd-10-cm",
            "code": "A32.7",
            "display": "Listerial sepsis"
          } ]
        },
        "type": [ {
          "coding": [ {
            "system": "http://terminology.hl7.org/CodeSystem/ex-diagnosistype",
            "code": "discharge",
            "display": "Discharge Diagnosis"
          } ]
        } ],
        "onAdmission": {
          "coding": [ {
            "system": "https://www.cms.gov/Medicare/Medicare-Fee-for-Service-Payment/HospitalAcqCond/Coding",
            "code": "N"
          } ]
        }
      } ],
      "insurance": [ {
        "sequence": 1,
        "focal": true,
        "coverage": {
          "reference": "Coverage/Coverage-1"
        }
      } ],
      "item": [ {
        "sequence": 1,
        "careTeamSequence": [ 1 ],
        "diagnosisSequence": [ 1 ],
        "productOrService": {
          "coding": [ {
            "system": "http://www.ama-assn.org/go/cpt",
            "code": "99232"
          } ]
        },
        "encounter": [ {
          "reference": "Encounter/67293575-2887-4258-990d-0d057e5bc0fc"
        } ]
      }, {
        "sequence": 2,
        "careTeamSequence": [ 1 ],
        "diagnosisSequence": [ 2 ],
        "productOrService": {
          "coding": [ {
            "system": "http://www.ama-assn.org/go/cpt",
            "code": "99233"
          } ]
        },
        "encounter": [ {
          "reference": "Encounter/67293575-2887-4258-990d-0d057e5bc0fc"
        } ]
      } ],
      "total": {
        "value": 3800,
        "currency": "USD"
      }
    },
    "request": {
      "method": "PUT",
      "url": "Claim/28a118b8-1311-4408-b5a6-ffea55464145"
    }
  }, {
    "fullUrl": "https://madie.cms.gov/Condition/3196c1e8-2124-4c37-a706-e63cb78b4a18",
    "resource": {
      "resourceType": "Condition",
      "id": "3196c1e8-2124-4c37-a706-e63cb78b4a18",
      "meta": {
        "profile": [ "http://hl7.org/fhir/us/qicore/StructureDefinition/qicore-condition-encounter-diagnosis" ]
      },
      "category": [ {
        "coding": [ {
          "system": "http://terminology.hl7.org/CodeSystem/condition-category",
          "code": "encounter-diagnosis",
          "display": "Encounter Diagnosis"
        } ]
      } ],
      "code": {
        "coding": [ {
          "system": "http://hl7.org/fhir/sid/icd-10-cm",
          "version": "2023",
          "code": "A32.7",
          "display": "Listerial sepsis",
          "userSelected": true
        } ]
      },
      "subject": {
        "reference": "Patient/5a0bfd0b-983c-4dd4-bc07-d2512d722987"
      },
      "recordedDate": "2026-10-26T08:00:00.000+00:00"
    },
    "request": {
      "method": "PUT",
      "url": "Condition/3196c1e8-2124-4c37-a706-e63cb78b4a18"
    }
  }, {
    "fullUrl": "https://madie.cms.gov/Condition/431e0dc4-2351-4f1f-8f12-e0da2c217f6f",
    "resource": {
      "resourceType": "Condition",
      "id": "431e0dc4-2351-4f1f-8f12-e0da2c217f6f",
      "meta": {
        "profile": [ "http://hl7.org/fhir/us/qicore/StructureDefinition/qicore-condition-encounter-diagnosis" ]
      },
      "category": [ {
        "coding": [ {
          "system": "http://terminology.hl7.org/CodeSystem/condition-category",
          "code": "encounter-diagnosis",
          "display": "Encounter Diagnosis"
        } ]
      } ],
      "code": {
        "coding": [ {
          "system": "http://hl7.org/fhir/sid/icd-10-cm",
          "version": "2023",
          "code": "Z79.01",
          "display": "Long Term Anticoagulant Use",
          "userSelected": true
        } ]
      },
      "subject": {
        "reference": "Patient/5a0bfd0b-983c-4dd4-bc07-d2512d722987"
      },
      "recordedDate": "2026-10-26T08:00:00.000+00:00"
    },
    "request": {
      "method": "PUT",
      "url": "Condition/431e0dc4-2351-4f1f-8f12-e0da2c217f6f"
    }
  }, {
    "fullUrl": "https://madie.cms.gov/MeasureReport/37d2d2ab-dec0-43af-961f-957959071e8c",
    "resource": {
      "resourceType": "MeasureReport",
      "id": "37d2d2ab-dec0-43af-961f-957959071e8c",
      "meta": {
        "profile": [ "http://hl7.org/fhir/us/cqfmeasures/StructureDefinition/test-case-cqfm" ]
      },
      "contained": [ {
        "resourceType": "Parameters",
        "id": "b45193f4-8aaa-475d-af61-53dbc23239e3-parameters",
        "parameter": [ {
          "name": "subject",
          "valueString": "5a0bfd0b-983c-4dd4-bc07-d2512d722987"
        } ]
      } ],
      "extension": [ {
        "url": "http://hl7.org/fhir/StructureDefinition/cqf-inputParameters",
        "valueReference": {
          "reference": "#b45193f4-8aaa-475d-af61-53dbc23239e3-parameters"
        }
      }, {
        "url": "http://hl7.org/fhir/us/cqfmeasures/StructureDefinition/cqfm-testCaseDescription",
        "valueMarkdown": "Risk variable of long term anticoagulant use"
      } ],
      "modifierExtension": [ {
        "url": "http://hl7.org/fhir/us/cqfmeasures/StructureDefinition/cqfm-isTestCase",
        "valueBoolean": true
      } ],
      "status": "complete",
      "type": "individual",
      "measure": "https://madie.cms.gov/Measure/CMS1028FHIRPCSevereOBComps",
      "period": {
        "start": "2026-01-01",
        "end": "2026-12-31"
      },
      "group": [ {
        "id": "Group_1",
        "population": [ {
          "id": "InitialPopulation_1",
          "code": {
            "coding": [ {
              "system": "http://terminology.hl7.org/CodeSystem/measure-population",
              "code": "initial-population",
              "display": "Initial Population"
            } ]
          },
          "count": 1
        }, {
          "id": "Denominator_1",
          "code": {
            "coding": [ {
              "system": "http://terminology.hl7.org/CodeSystem/measure-population",
              "code": "denominator",
              "display": "Denominator"
            } ]
          },
          "count": 1
        }, {
          "id": "Numerator_1",
          "code": {
            "coding": [ {
              "system": "http://terminology.hl7.org/CodeSystem/measure-population",
              "code": "numerator",
              "display": "Numerator"
            } ]
          },
          "count": 1
        }, {
          "id": "NumeratorExclusion_1",
          "code": {
            "coding": [ {
              "system": "http://terminology.hl7.org/CodeSystem/measure-population",
              "code": "numerator-exclusion",
              "display": "Numerator Exclusion"
            } ]
          },
          "count": 0
        } ],
        "measureScore": {
          "value": 0.0
        }
      }, {
        "id": "Group_2",
        "population": [ {
          "id": "InitialPopulation_2",
          "code": {
            "coding": [ {
              "system": "http://terminology.hl7.org/CodeSystem/measure-population",
              "code": "initial-population",
              "display": "Initial Population"
            } ]
          },
          "count": 1
        }, {
          "id": "Denominator_2",
          "code": {
            "coding": [ {
              "system": "http://terminology.hl7.org/CodeSystem/measure-population",
              "code": "denominator",
              "display": "Denominator"
            } ]
          },
          "count": 1
        }, {
          "id": "Numerator_2",
          "code": {
            "coding": [ {
              "system": "http://terminology.hl7.org/CodeSystem/measure-population",
              "code": "numerator",
              "display": "Numerator"
            } ]
          },
          "count": 1
        }, {
          "id": "NumeratorExclusion_2",
          "code": {
            "coding": [ {
              "system": "http://terminology.hl7.org/CodeSystem/measure-population",
              "code": "numerator-exclusion",
              "display": "Numerator Exclusion"
            } ]
          },
          "count": 0
        } ],
        "measureScore": {
          "value": 0.0
        }
      } ],
      "evaluatedResource": [ {
        "reference": "Patient/5a0bfd0b-983c-4dd4-bc07-d2512d722987"
      }, {
        "reference": "Observation/a9499069-a4d9-422b-b49c-77a6dbf34768"
      }, {
        "reference": "Observation/d9aec653-2744-4e36-ae0b-7216526d6641"
      }, {
        "reference": "Encounter/67293575-2887-4258-990d-0d057e5bc0fc"
      }, {
        "reference": "Procedure/364b83c3-1d1d-446b-b4ab-c61523a4c5cd"
      }, {
        "reference": "Claim/28a118b8-1311-4408-b5a6-ffea55464145"
      }, {
        "reference": "Condition/3196c1e8-2124-4c37-a706-e63cb78b4a18"
      }, {
        "reference": "Condition/431e0dc4-2351-4f1f-8f12-e0da2c217f6f"
      } ]
    },
    "request": {
      "method": "PUT",
      "url": "MeasureReport/37d2d2ab-dec0-43af-961f-957959071e8c"
    }
  } ]
}