{
  "resourceType": "Bundle",
  "id": "60f82c3098086b570510e2d4",
  "type": "transaction",
  "entry": [ {
    "fullUrl": "https://madie.cms.gov/Patient/075dc91f-0aef-4a59-aee5-a95ec22fe2b5",
    "resource": {
      "resourceType": "Patient",
      "id": "075dc91f-0aef-4a59-aee5-a95ec22fe2b5",
      "meta": {
        "profile": [ "http://hl7.org/fhir/us/qicore/StructureDefinition/qicore-patient" ]
      },
      "text": {
        "status": "generated",
        "div": "<div xmlns=\"http://www.w3.org/1999/xhtml\"><div class=\"hapiHeaderText\">CMP_DayOf_RelvDat_1minB4EDStart_EDEndLT1hrB4Obs_ObsEndLT1hrB4IP <b>DENEXPASS </b></div><table class=\"hapiPropertyTable\"><tbody><tr><td>Date of birth</td><td><span>01 January 1980</span></td></tr></tbody></table></div>"
      },
      "extension": [ {
        "url": "http://hl7.org/fhir/us/core/StructureDefinition/us-core-race",
        "extension": [ {
          "url": "ombCategory",
          "valueCoding": {
            "system": "urn:oid:2.16.840.1.113883.6.238",
            "code": "2106-3",
            "display": "White",
            "userSelected": true
          }
        }, {
          "url": "text",
          "valueString": "White"
        } ]
      }, {
        "url": "http://hl7.org/fhir/us/core/StructureDefinition/us-core-ethnicity",
        "extension": [ {
          "url": "ombCategory",
          "valueCoding": {
            "system": "urn:oid:2.16.840.1.113883.6.238",
            "code": "2186-5",
            "display": "Not Hispanic or Latino",
            "userSelected": true
          }
        }, {
          "url": "text",
          "valueString": "Not Hispanic or Latino"
        } ]
      } ],
      "identifier": [ {
        "type": {
          "coding": [ {
            "system": "http://terminology.hl7.org/CodeSystem/v2-0203",
            "code": "MR"
          } ]
        },
        "system": "https://bonnie-fhir.healthit.gov/",
        "value": "60f82c3098086b570510e2d4"
      } ],
      "active": true,
      "name": [ {
        "use": "usual",
        "family": "DENEXPass",
        "given": [ "CMPDayOfRelvDat1minB4EDStartEDEndLT1hrB4ObsObsEndLT1hrB4IP" ]
      } ],
      "gender": "female",
      "birthDate": "1981-01-01"
    },
    "request": {
      "method": "PUT",
      "url": "Patient/075dc91f-0aef-4a59-aee5-a95ec22fe2b5"
    }
  }, {
    "fullUrl": "https://madie.cms.gov/Encounter/6b16ec07-2b10-4e6d-8f3e-b4a19651269e",
    "resource": {
      "resourceType": "Encounter",
      "id": "6b16ec07-2b10-4e6d-8f3e-b4a19651269e",
      "meta": {
        "profile": [ "http://hl7.org/fhir/us/qicore/StructureDefinition/qicore-encounter" ]
      },
      "status": "finished",
      "class": {
        "system": "http://terminology.hl7.org/CodeSystem/v3-ActCode",
        "code": "EMER",
        "display": "emergency"
      },
      "type": [ {
        "coding": [ {
          "system": "http://snomed.info/sct",
          "code": "4525004"
        } ]
      } ],
      "subject": {
        "reference": "Patient/075dc91f-0aef-4a59-aee5-a95ec22fe2b5"
      },
      "period": {
        "start": "2026-11-18T07:00:00.000+00:00",
        "end": "2026-11-18T08:01:00.000+00:00"
      }
    },
    "request": {
      "method": "PUT",
      "url": "Encounter/6b16ec07-2b10-4e6d-8f3e-b4a19651269e"
    }
  }, {
    "fullUrl": "https://madie.cms.gov/Encounter/30a9f3b9-29c4-415e-b844-f7ca7a07818f",
    "resource": {
      "resourceType": "Encounter",
      "id": "30a9f3b9-29c4-415e-b844-f7ca7a07818f",
      "meta": {
        "profile": [ "http://hl7.org/fhir/us/qicore/StructureDefinition/qicore-encounter" ]
      },
      "status": "finished",
      "class": {
        "system": "http://terminology.hl7.org/CodeSystem/v3-ActCode",
        "code": "OBSENC",
        "display": "observation encounter"
      },
      "type": [ {
        "coding": [ {
          "system": "http://snomed.info/sct",
          "code": "448951000124107"
        } ]
      } ],
      "subject": {
        "reference": "Patient/075dc91f-0aef-4a59-aee5-a95ec22fe2b5"
      },
      "period": {
        "start": "2026-11-18T09:00:00.000+00:00",
        "end": "2026-11-18T10:01:00.000+00:00"
      }
    },
    "request": {
      "method": "PUT",
      "url": "Encounter/30a9f3b9-29c4-415e-b844-f7ca7a07818f"
    }
  }, {
    "fullUrl": "https://madie.cms.gov/Encounter/9e4642f6-12b9-42a0-9ed7-dba55b9c4f95",
    "resource": {
      "resourceType": "Encounter",
      "id": "9e4642f6-12b9-42a0-9ed7-dba55b9c4f95",
      "meta": {
        "profile": [ "http://hl7.org/fhir/us/qicore/StructureDefinition/qicore-encounter" ]
      },
      "status": "finished",
      "class": {
        "system": "http://terminology.hl7.org/CodeSystem/v3-ActCode",
        "code": "IMP",
        "display": "inpatient encounter"
      },
      "type": [ {
        "coding": [ {
          "system": "http://snomed.info/sct",
          "code": "183452005"
        } ]
      } ],
      "subject": {
        "reference": "Patient/075dc91f-0aef-4a59-aee5-a95ec22fe2b5"
      },
      "period": {
        "start": "2026-11-18T11:00:00.000+00:00",
        "end": "2026-11-20T08:15:00.000+00:00"
      },
      "reasonReference": [ {
        "reference": "Condition/b4c4510d-680d-4041-9354-8872f88e9863"
      } ]
    },
    "request": {
      "method": "PUT",
      "url": "Encounter/9e4642f6-12b9-42a0-9ed7-dba55b9c4f95"
    }
  }, {
    "fullUrl": "https://madie.cms.gov/claim/5ca62962b8484628b8de1ec5",
    "resource": {
      "resourceType": "Claim",
      "id": "5ca62962b8484628b8de1ec5",
      "meta": {
        "profile": [ "http://hl7.org/fhir/us/qicore/StructureDefinition/qicore-claim" ]
      },
      "status": "active",
      "type": {
        "coding": [ {
          "system": "http://terminology.hl7.org/CodeSystem/claim-type",
          "code": "institutional"
        } ]
      },
      "use": "claim",
      "patient": {
        "reference": "Patient/075dc91f-0aef-4a59-aee5-a95ec22fe2b5"
      },
      "created": "2026-12-01",
      "provider": {
        "reference": "Practitioner/practitioner-123456"
      },
      "priority": {
        "coding": [ {
          "system": "http://terminology.hl7.org/CodeSystem/processpriority",
          "code": "normal"
        } ]
      },
      "diagnosis": [ {
        "sequence": 1,
        "diagnosisCodeableConcept": {
          "coding": [ {
            "system": "http://hl7.org/fhir/sid/icd-10-cm",
            "code": "I63.00"
          } ]
        },
        "type": [ {
          "coding": [ {
            "system": "http://terminology.hl7.org/CodeSystem/ex-diagnosistype",
            "code": "principal"
          } ]
        } ]
      } ],
      "insurance": [ {
        "sequence": 1,
        "focal": true,
        "coverage": {
          "reference": "Coverage/f8f40bf0-f32e-4753-b94e-764a19d68e37"
        }
      } ],
      "item": [ {
        "sequence": 1,
        "diagnosisSequence": [ 1 ],
        "productOrService": {
          "coding": [ {
            "system": "http://terminology.hl7.org/CodeSystem/ex-USCLS",
            "code": "99555"
          } ]
        },
        "encounter": [ {
          "reference": "Encounter/9e4642f6-12b9-42a0-9ed7-dba55b9c4f95"
        } ]
      } ]
    },
    "request": {
      "method": "PUT",
      "url": "Claim/5ca62962b8484628b8de1ec5"
    }
  }, {
    "fullUrl": "https://madie.cms.gov/Procedure/5b4335e1-b81e-4903-a7f1-288a1ed0593c",
    "resource": {
      "resourceType": "Procedure",
      "id": "5b4335e1-b81e-4903-a7f1-288a1ed0593c",
      "meta": {
        "profile": [ "http://hl7.org/fhir/us/qicore/StructureDefinition/qicore-procedure" ]
      },
      "extension": [ {
        "url": "http://hl7.org/fhir/us/qicore/StructureDefinition/qicore-recorded",
        "valueDateTime": "2026-11-18T06:59:00.000+00:00"
      } ],
      "status": "completed",
      "code": {
        "coding": [ {
          "system": "http://snomed.info/sct",
          "code": "133918004"
        } ]
      },
      "subject": {
        "reference": "Patient/075dc91f-0aef-4a59-aee5-a95ec22fe2b5"
      },
      "performedDateTime": "2026-11-18T06:59:00.000+00:00"
    },
    "request": {
      "method": "PUT",
      "url": "Procedure/5b4335e1-b81e-4903-a7f1-288a1ed0593c"
    }
  }, {
    "fullUrl": "https://madie.cms.gov/Condition/b4c4510d-680d-4041-9354-8872f88e9863",
    "resource": {
      "resourceType": "Condition",
      "id": "b4c4510d-680d-4041-9354-8872f88e9863",
      "meta": {
        "profile": [ "http://hl7.org/fhir/us/qicore/StructureDefinition/qicore-condition-encounter-diagnosis" ]
      },
      "clinicalStatus": {
        "coding": [ {
          "system": "http://terminology.hl7.org/CodeSystem/condition-clinical",
          "code": "active"
        } ]
      },
      "verificationStatus": {
        "coding": [ {
          "system": "http://terminology.hl7.org/CodeSystem/condition-ver-status",
          "code": "confirmed"
        } ]
      },
      "category": [ {
        "coding": [ {
          "system": "http://terminology.hl7.org/CodeSystem/condition-category",
          "code": "encounter-diagnosis",
          "display": "Encounter Diagnosis"
        } ]
      } ],
      "code": {
        "coding": [ {
          "system": "http://snomed.info/sct",
          "version": "2020-09",
          "code": "111297002",
          "display": "Nonparalytic stroke (disorder)",
          "userSelected": true
        } ]
      },
      "subject": {
        "reference": "Patient/075dc91f-0aef-4a59-aee5-a95ec22fe2b5"
      },
      "recordedDate": "2026-08-13T08:00:00.000+00:00"
    },
    "request": {
      "method": "PUT",
      "url": "Condition/b4c4510d-680d-4041-9354-8872f88e9863"
    }
  }, {
    "fullUrl": "https://madie.cms.gov/Coverage/f8f40bf0-f32e-4753-b94e-764a19d68e37",
    "resource": {
      "resourceType": "Coverage",
      "id": "f8f40bf0-f32e-4753-b94e-764a19d68e37",
      "meta": {
        "profile": [ "http://hl7.org/fhir/us/qicore/StructureDefinition/qicore-coverage" ]
      },
      "status": "active",
      "beneficiary": {
        "reference": "Patient/075dc91f-0aef-4a59-aee5-a95ec22fe2b5"
      },
      "payor": [ {
        "reference": "Organization/bbc9710c-5be8-490e-8d59-999138413e4a"
      } ]
    },
    "request": {
      "method": "PUT",
      "url": "Coverage/f8f40bf0-f32e-4753-b94e-764a19d68e37"
    }
  }, {
    "fullUrl": "https://madie.cms.gov/Organization/bbc9710c-5be8-490e-8d59-999138413e4a",
    "resource": {
      "resourceType": "Organization",
      "id": "bbc9710c-5be8-490e-8d59-999138413e4a",
      "meta": {
        "profile": [ "http://hl7.org/fhir/us/qicore/StructureDefinition/qicore-organization" ]
      },
      "identifier": [ {
        "use": "temp",
        "system": "urn:oid:2.16.840.1.113883.4.4",
        "value": "21-3259825"
      } ],
      "active": true,
      "type": [ {
        "coding": [ {
          "system": "http://terminology.hl7.org/CodeSystem/organization-type",
          "code": "pay",
          "display": "Payer"
        } ]
      } ],
      "name": "Blue Cross Blue Shield of Texas",
      "telecom": [ {
        "system": "phone",
        "value": "(+1) 972-766-6900"
      } ],
      "address": [ {
        "use": "billing",
        "type": "postal",
        "line": [ "P.O. Box 660044" ],
        "city": "Dallas",
        "state": "TX",
        "postalCode": "75266-0044",
        "country": "USA"
      } ]
    },
    "request": {
      "method": "PUT",
      "url": "Organization/bbc9710c-5be8-490e-8d59-999138413e4a"
    }
  }, {
    "fullUrl": "https://madie.cms.gov/MeasureReport/3195811e-fa10-47fb-ac17-e9b7cdc34a57",
    "resource": {
      "resourceType": "MeasureReport",
      "id": "3195811e-fa10-47fb-ac17-e9b7cdc34a57",
      "meta": {
        "profile": [ "http://hl7.org/fhir/us/cqfmeasures/StructureDefinition/test-case-cqfm" ]
      },
      "contained": [ {
        "resourceType": "Parameters",
        "id": "248b62fc-6c92-46b7-8ab8-1c85c6ecc1d8-parameters",
        "parameter": [ {
          "name": "subject",
          "valueString": "075dc91f-0aef-4a59-aee5-a95ec22fe2b5"
        } ]
      } ],
      "extension": [ {
        "url": "http://hl7.org/fhir/StructureDefinition/cqf-inputParameters",
        "valueReference": {
          "reference": "#248b62fc-6c92-46b7-8ab8-1c85c6ecc1d8-parameters"
        }
      }, {
        "url": "http://hl7.org/fhir/us/cqfmeasures/StructureDefinition/cqfm-testCaseDescription",
        "valueMarkdown": "Patient receives comfort measures performed on the day of hospital arrival, 1 minute before the start of the ED start. ED ends less than 1 hour before Obs Start, Obs ends less than 1 hour before IP start.\n"
      } ],
      "modifierExtension": [ {
        "url": "http://hl7.org/fhir/us/cqfmeasures/StructureDefinition/cqfm-isTestCase",
        "valueBoolean": true
      } ],
      "status": "complete",
      "type": "individual",
      "measure": "https://madie.cms.gov/Measure/CMS72FHIRSTKAntithromboticDay2",
      "period": {
        "start": "2026-01-01",
        "end": "2026-12-31"
      },
      "group": [ {
        "id": "Group_1",
        "population": [ {
          "id": "InitialPopulation_1",
          "code": {
            "coding": [ {
              "system": "http://terminology.hl7.org/CodeSystem/measure-population",
              "code": "initial-population",
              "display": "Initial Population"
            } ]
          },
          "count": 1
        }, {
          "id": "Denominator_1",
          "code": {
            "coding": [ {
              "system": "http://terminology.hl7.org/CodeSystem/measure-population",
              "code": "denominator",
              "display": "Denominator"
            } ]
          },
          "count": 1
        }, {
          "id": "DenominatorExclusion_1",
          "code": {
            "coding": [ {
              "system": "http://terminology.hl7.org/CodeSystem/measure-population",
              "code": "denominator-exclusion",
              "display": "Denominator Exclusion"
            } ]
          },
          "count": 1
        }, {
          "id": "Numerator_1",
          "code": {
            "coding": [ {
              "system": "http://terminology.hl7.org/CodeSystem/measure-population",
              "code": "numerator",
              "display": "Numerator"
            } ]
          },
          "count": 0
        }, {
          "id": "DenominatorException_1",
          "code": {
            "coding": [ {
              "system": "http://terminology.hl7.org/CodeSystem/measure-population",
              "code": "denominator-exception",
              "display": "Denominator Exception"
            } ]
          },
          "count": 0
        } ],
        "measureScore": {
          "value": 0.0
        }
      } ],
      "evaluatedResource": [ {
        "reference": "Patient/075dc91f-0aef-4a59-aee5-a95ec22fe2b5"
      }, {
        "reference": "Encounter/6b16ec07-2b10-4e6d-8f3e-b4a19651269e"
      }, {
        "reference": "Encounter/30a9f3b9-29c4-415e-b844-f7ca7a07818f"
      }, {
        "reference": "Encounter/9e4642f6-12b9-42a0-9ed7-dba55b9c4f95"
      }, {
        "reference": "Claim/5ca62962b8484628b8de1ec5"
      }, {
        "reference": "Procedure/5b4335e1-b81e-4903-a7f1-288a1ed0593c"
      }, {
        "reference": "Condition/b4c4510d-680d-4041-9354-8872f88e9863"
      }, {
        "reference": "Coverage/f8f40bf0-f32e-4753-b94e-764a19d68e37"
      }, {
        "reference": "Organization/bbc9710c-5be8-490e-8d59-999138413e4a"
      } ]
    },
    "request": {
      "method": "PUT",
      "url": "MeasureReport/3195811e-fa10-47fb-ac17-e9b7cdc34a57"
    }
  } ]
}