{
  "resourceType": "Bundle",
  "id": "612e6ee202c62a011f2eff14",
  "type": "transaction",
  "entry": [ {
    "fullUrl": "https://madie.cms.gov/Patient/ec88b695-15b1-4ba3-b032-b04e191b97a4",
    "resource": {
      "resourceType": "Patient",
      "id": "ec88b695-15b1-4ba3-b032-b04e191b97a4",
      "meta": {
        "profile": [ "http://hl7.org/fhir/us/qicore/StructureDefinition/qicore-patient" ]
      },
      "text": {
        "status": "generated",
        "div": "<div xmlns=\"http://www.w3.org/1999/xhtml\"><div class=\"hapiHeaderText\">PtRefMARixDAIPC2DayAfterAnes <b>NUMERFAIL </b></div><table class=\"hapiPropertyTable\"><tbody><tr><td>Identifier</td><td>39c81b9bc72445874f3c2841a7094a3f</td></tr><tr><td>Date of birth</td><td><span>03 March 1974</span></td></tr></tbody></table></div>"
      },
      "extension": [ {
        "url": "http://hl7.org/fhir/us/core/StructureDefinition/us-core-race",
        "extension": [ {
          "url": "ombCategory",
          "valueCoding": {
            "system": "urn:oid:2.16.840.1.113883.6.238",
            "code": "1002-5",
            "display": "American Indian or Alaska Native",
            "userSelected": true
          }
        }, {
          "url": "text",
          "valueString": "American Indian or Alaska Native"
        } ]
      }, {
        "url": "http://hl7.org/fhir/us/core/StructureDefinition/us-core-ethnicity",
        "extension": [ {
          "url": "ombCategory",
          "valueCoding": {
            "system": "urn:oid:2.16.840.1.113883.6.238",
            "code": "2135-2",
            "display": "Hispanic or Latino",
            "userSelected": true
          }
        }, {
          "url": "text",
          "valueString": "Hispanic or Latino"
        } ]
      } ],
      "identifier": [ {
        "type": {
          "coding": [ {
            "system": "http://terminology.hl7.org/CodeSystem/v2-0203",
            "code": "MR"
          } ]
        },
        "system": "https://bonnie-fhir.healthit.gov/",
        "value": "612e6ee202c62a011f2eff14"
      } ],
      "active": true,
      "name": [ {
        "use": "usual",
        "family": "NUMERFail",
        "given": [ "PtRefMARixDAIPC2DayAfterAnes" ]
      } ],
      "gender": "female",
      "birthDate": "1975-03-03"
    },
    "request": {
      "method": "PUT",
      "url": "Patient/ec88b695-15b1-4ba3-b032-b04e191b97a4"
    }
  }, {
    "fullUrl": "https://madie.cms.gov/Encounter/f4d50949-9960-48a9-b2b9-bbd02d8dcd48",
    "resource": {
      "resourceType": "Encounter",
      "id": "f4d50949-9960-48a9-b2b9-bbd02d8dcd48",
      "meta": {
        "profile": [ "http://hl7.org/fhir/us/qicore/StructureDefinition/qicore-encounter" ]
      },
      "status": "finished",
      "class": {
        "system": "http://terminology.hl7.org/CodeSystem/v3-ActCode",
        "code": "IMP",
        "display": "inpatient encounter"
      },
      "type": [ {
        "coding": [ {
          "system": "http://snomed.info/sct",
          "code": "8715000"
        } ]
      } ],
      "subject": {
        "reference": "Patient/ec88b695-15b1-4ba3-b032-b04e191b97a4"
      },
      "period": {
        "start": "2026-12-04T08:00:00.000+00:00",
        "end": "2026-12-30T08:15:00.000+00:00"
      },
      "length": {
        "value": 26,
        "unit": "days"
      },
      "location": [ {
        "location": {
          "reference": "Location/d9b204e5-bc68-4010-9646-7f94f857e041"
        },
        "period": {
          "start": "2026-12-06T08:00:00.000+00:00",
          "end": "2026-12-12T08:15:00.000+00:00"
        }
      } ]
    },
    "request": {
      "method": "PUT",
      "url": "Encounter/f4d50949-9960-48a9-b2b9-bbd02d8dcd48"
    }
  }, {
    "fullUrl": "https://madie.cms.gov/Coverage/2f2ea19c-510f-4e1e-b335-9dc3763c20ec",
    "resource": {
      "resourceType": "Coverage",
      "id": "2f2ea19c-510f-4e1e-b335-9dc3763c20ec",
      "status": "active",
      "beneficiary": {
        "reference": "Patient/ec88b695-15b1-4ba3-b032-b04e191b97a4"
      },
      "period": {
        "start": "1975-03-03T08:00:00.000+00:00"
      },
      "payor": [ {
        "reference": "Organization/8a681820-5ff9-47c0-993f-a53feec6b863"
      } ]
    },
    "request": {
      "method": "PUT",
      "url": "Coverage/2f2ea19c-510f-4e1e-b335-9dc3763c20ec"
    }
  }, {
    "fullUrl": "https://madie.cms.gov/Procedure/7ba5328c-6a6c-49b9-8104-5b1174257281",
    "resource": {
      "resourceType": "Procedure",
      "id": "7ba5328c-6a6c-49b9-8104-5b1174257281",
      "meta": {
        "profile": [ "http://hl7.org/fhir/us/qicore/StructureDefinition/qicore-procedurenotdone" ]
      },
      "extension": [ {
        "url": "http://hl7.org/fhir/us/qicore/StructureDefinition/qicore-recorded",
        "valueDateTime": "2026-11-01T07:00:00.000+00:00"
      } ],
      "status": "not-done",
      "statusReason": {
        "coding": [ {
          "system": "http://snomed.info/sct",
          "code": "443390004",
          "display": "Procedure contraindicated (situation)",
          "userSelected": true
        } ]
      },
      "code": {
        "coding": [ {
          "system": "http://snomed.info/sct",
          "code": "443448006",
          "display": "Application of intermittent pneumatic compression device (procedure)",
          "userSelected": true
        } ]
      },
      "subject": {
        "reference": "Patient/ec88b695-15b1-4ba3-b032-b04e191b97a4"
      },
      "_performedDateTime": {
        "extension": [ {
          "url": "http://hl7.org/fhir/StructureDefinition/data-absent-reason",
          "valueCode": "not-performed"
        } ]
      }
    },
    "request": {
      "method": "PUT",
      "url": "Procedure/7ba5328c-6a6c-49b9-8104-5b1174257281"
    }
  }, {
    "fullUrl": "https://madie.cms.gov/MedicationAdministration/7d5b9bf4-8709-4600-913e-5b87295bdabe",
    "resource": {
      "resourceType": "MedicationAdministration",
      "id": "7d5b9bf4-8709-4600-913e-5b87295bdabe",
      "meta": {
        "profile": [ "http://hl7.org/fhir/us/qicore/StructureDefinition/qicore-medicationadministrationnotdone" ]
      },
      "extension": [ {
        "url": "http://hl7.org/fhir/us/qicore/StructureDefinition/qicore-recorded",
        "valueDateTime": "2026-12-08T07:00:00.000+00:00"
      } ],
      "status": "not-done",
      "statusReason": [ {
        "coding": [ {
          "system": "http://snomed.info/sct",
          "code": "183932001"
        } ]
      } ],
      "medicationCodeableConcept": {
        "coding": [ {
          "system": "http://www.nlm.nih.gov/research/umls/rxnorm",
          "code": "2588062",
          "display": "rivaroxaban 1 MG/ML Oral Suspension"
        } ]
      },
      "subject": {
        "reference": "Patient/ec88b695-15b1-4ba3-b032-b04e191b97a4"
      },
      "effectivePeriod": {
        "start": "2026-12-08T11:30:00.000+00:00"
      }
    },
    "request": {
      "method": "PUT",
      "url": "MedicationAdministration/7d5b9bf4-8709-4600-913e-5b87295bdabe"
    }
  }, {
    "fullUrl": "https://madie.cms.gov/Procedure/345374a3-9711-412c-80b8-cae8f900e573",
    "resource": {
      "resourceType": "Procedure",
      "id": "345374a3-9711-412c-80b8-cae8f900e573",
      "status": "completed",
      "code": {
        "coding": [ {
          "system": "http://www.icd10data.com/icd10pcs",
          "code": "3E030FZ"
        }, {
          "system": "http://snomed.info/sct",
          "code": "18946005"
        } ]
      },
      "subject": {
        "reference": "Patient/ec88b695-15b1-4ba3-b032-b04e191b97a4"
      },
      "performedPeriod": {
        "start": "2026-12-04T11:00:00.000+00:00",
        "end": "2026-12-06T11:15:00.000+00:00"
      }
    },
    "request": {
      "method": "PUT",
      "url": "Procedure/345374a3-9711-412c-80b8-cae8f900e573"
    }
  }, {
    "fullUrl": "https://madie.cms.gov/Location/d9b204e5-bc68-4010-9646-7f94f857e041",
    "resource": {
      "resourceType": "Location",
      "id": "d9b204e5-bc68-4010-9646-7f94f857e041",
      "meta": {
        "profile": [ "http://hl7.org/fhir/us/qicore/StructureDefinition/qicore-location" ]
      },
      "identifier": [ {
        "use": "usual",
        "system": "http://exampleoflocation.com",
        "value": "B1-S.F2"
      } ],
      "name": "Medical Surgical East, first floor",
      "type": [ {
        "coding": [ {
          "system": "https://www.cdc.gov/nhsn/cdaportal/terminology/codesystem/hsloc.html",
          "code": "1025-6",
          "display": "Trauma Critical Care",
          "userSelected": true
        } ]
      } ]
    },
    "request": {
      "method": "PUT",
      "url": "Location/d9b204e5-bc68-4010-9646-7f94f857e041"
    }
  }, {
    "fullUrl": "https://madie.cms.gov/Organization/8a681820-5ff9-47c0-993f-a53feec6b863",
    "resource": {
      "resourceType": "Organization",
      "id": "8a681820-5ff9-47c0-993f-a53feec6b863",
      "meta": {
        "profile": [ "http://hl7.org/fhir/us/qicore/StructureDefinition/qicore-organization" ]
      },
      "identifier": [ {
        "use": "temp",
        "system": "urn:oid:2.16.840.1.113883.4.4",
        "value": "21-3259825"
      } ],
      "active": true,
      "type": [ {
        "coding": [ {
          "system": "http://terminology.hl7.org/CodeSystem/organization-type",
          "code": "pay",
          "display": "Payer"
        } ]
      } ],
      "name": "Blue Cross Blue Shield of Texas",
      "telecom": [ {
        "system": "phone",
        "value": "(+1) 972-766-6900"
      } ],
      "address": [ {
        "use": "billing",
        "type": "postal",
        "line": [ "P.O. Box 660044" ],
        "city": "Dallas",
        "state": "TX",
        "postalCode": "75266-0044",
        "country": "USA"
      } ]
    },
    "request": {
      "method": "PUT",
      "url": "Organization/8a681820-5ff9-47c0-993f-a53feec6b863"
    }
  }, {
    "fullUrl": "https://madie.cms.gov/Practitioner/7cf2f05a-6fb4-4a1f-889d-03e2993a4b44",
    "resource": {
      "resourceType": "Practitioner",
      "id": "7cf2f05a-6fb4-4a1f-889d-03e2993a4b44",
      "identifier": [ {
        "system": "http://hl7.org/fhir/sid/us-npi",
        "value": "123456"
      } ],
      "name": [ {
        "family": "Evil",
        "prefix": [ "Dr" ]
      } ]
    },
    "request": {
      "method": "PUT",
      "url": "Practitioner/7cf2f05a-6fb4-4a1f-889d-03e2993a4b44"
    }
  }, {
    "fullUrl": "https://madie.cms.gov/MeasureReport/7f5d6f50-9e89-4b65-bd9d-7c30c679f9a1",
    "resource": {
      "resourceType": "MeasureReport",
      "id": "7f5d6f50-9e89-4b65-bd9d-7c30c679f9a1",
      "meta": {
        "profile": [ "http://hl7.org/fhir/us/cqfmeasures/StructureDefinition/test-case-cqfm" ]
      },
      "contained": [ {
        "resourceType": "Parameters",
        "id": "ebb7aabb-6f4c-4a1f-9766-51765c90a3ee-parameters",
        "parameter": [ {
          "name": "subject",
          "valueString": "ec88b695-15b1-4ba3-b032-b04e191b97a4"
        } ]
      } ],
      "extension": [ {
        "url": "http://hl7.org/fhir/StructureDefinition/cqf-inputParameters",
        "valueReference": {
          "reference": "#ebb7aabb-6f4c-4a1f-9766-51765c90a3ee-parameters"
        }
      }, {
        "url": "http://hl7.org/fhir/us/cqfmeasures/StructureDefinition/cqfm-testCaseDescription",
        "valueMarkdown": "NoIPCNoRixBexPtRefusal both administered 2 Day After Anes\n"
      } ],
      "modifierExtension": [ {
        "url": "http://hl7.org/fhir/us/cqfmeasures/StructureDefinition/cqfm-isTestCase",
        "valueBoolean": true
      } ],
      "status": "complete",
      "type": "individual",
      "measure": "https://madie.cms.gov/Measure/CMS190FHIRVTEProphylaxisICU",
      "period": {
        "start": "2026-01-01",
        "end": "2026-12-31"
      },
      "group": [ {
        "id": "Group_1",
        "population": [ {
          "id": "InitialPopulation_1",
          "code": {
            "coding": [ {
              "system": "http://terminology.hl7.org/CodeSystem/measure-population",
              "code": "initial-population",
              "display": "Initial Population"
            } ]
          },
          "count": 1
        }, {
          "id": "Denominator_1",
          "code": {
            "coding": [ {
              "system": "http://terminology.hl7.org/CodeSystem/measure-population",
              "code": "denominator",
              "display": "Denominator"
            } ]
          },
          "count": 1
        }, {
          "id": "DenominatorExclusion_1",
          "code": {
            "coding": [ {
              "system": "http://terminology.hl7.org/CodeSystem/measure-population",
              "code": "denominator-exclusion",
              "display": "Denominator Exclusion"
            } ]
          },
          "count": 0
        }, {
          "id": "Numerator_1",
          "code": {
            "coding": [ {
              "system": "http://terminology.hl7.org/CodeSystem/measure-population",
              "code": "numerator",
              "display": "Numerator"
            } ]
          },
          "count": 0
        }, {
          "id": "DenominatorException_1",
          "code": {
            "coding": [ {
              "system": "http://terminology.hl7.org/CodeSystem/measure-population",
              "code": "denominator-exception",
              "display": "Denominator Exception"
            } ]
          },
          "count": 0
        } ],
        "measureScore": {
          "value": 0.0
        }
      } ],
      "evaluatedResource": [ {
        "reference": "Patient/ec88b695-15b1-4ba3-b032-b04e191b97a4"
      }, {
        "reference": "Encounter/f4d50949-9960-48a9-b2b9-bbd02d8dcd48"
      }, {
        "reference": "Coverage/2f2ea19c-510f-4e1e-b335-9dc3763c20ec"
      }, {
        "reference": "Procedure/7ba5328c-6a6c-49b9-8104-5b1174257281"
      }, {
        "reference": "MedicationAdministration/7d5b9bf4-8709-4600-913e-5b87295bdabe"
      }, {
        "reference": "Procedure/345374a3-9711-412c-80b8-cae8f900e573"
      }, {
        "reference": "Location/d9b204e5-bc68-4010-9646-7f94f857e041"
      }, {
        "reference": "Organization/8a681820-5ff9-47c0-993f-a53feec6b863"
      }, {
        "reference": "Practitioner/7cf2f05a-6fb4-4a1f-889d-03e2993a4b44"
      } ]
    },
    "request": {
      "method": "PUT",
      "url": "MeasureReport/7f5d6f50-9e89-4b65-bd9d-7c30c679f9a1"
    }
  } ]
}