{
  "resourceType": "Bundle",
  "id": "660dc344ea96f2084262f8e7",
  "type": "transaction",
  "entry": [ {
    "fullUrl": "https://madie.cms.gov/Patient/daf80212-b06f-4f0c-8e23-9a005a9e9bcb",
    "resource": {
      "resourceType": "Patient",
      "id": "daf80212-b06f-4f0c-8e23-9a005a9e9bcb",
      "meta": {
        "profile": [ "http://hl7.org/fhir/us/qicore/StructureDefinition/qicore-patient" ]
      },
      "extension": [ {
        "url": "http://hl7.org/fhir/us/core/StructureDefinition/us-core-race",
        "extension": [ {
          "url": "ombCategory",
          "valueCoding": {
            "system": "urn:oid:2.16.840.1.113883.6.238",
            "code": "1002-5",
            "display": "American Indian or Alaska Native",
            "userSelected": true
          }
        }, {
          "url": "text",
          "valueString": "American Indian or Alaska Native"
        } ]
      }, {
        "url": "http://hl7.org/fhir/us/core/StructureDefinition/us-core-ethnicity",
        "extension": [ {
          "url": "ombCategory",
          "valueCoding": {
            "system": "urn:oid:2.16.840.1.113883.6.238",
            "code": "2135-2",
            "display": "Hispanic or Latino",
            "userSelected": true
          }
        }, {
          "url": "text",
          "valueString": "Hispanic or Latino"
        } ]
      }, {
        "url": "http://hl7.org/fhir/us/core/StructureDefinition/us-core-sex",
        "valueCode": "248153007"
      } ],
      "identifier": [ {
        "type": {
          "coding": [ {
            "system": "http://terminology.hl7.org/CodeSystem/v2-0203",
            "code": "MR"
          } ]
        },
        "system": "https://bonnie-fhir.healthit.gov/",
        "value": "660dc344ea96f2084262f8e7"
      } ],
      "name": [ {
        "family": "DxExclPassStartsBeforeEndsAfterMP",
        "given": [ "DENEXCEPPASS" ]
      } ],
      "gender": "male",
      "birthDate": "1992-10-21"
    },
    "request": {
      "method": "PUT",
      "url": "Patient/daf80212-b06f-4f0c-8e23-9a005a9e9bcb"
    }
  }, {
    "fullUrl": "https://madie.cms.gov/Encounter/2cf96c82-8400-42bd-9a8e-7a41378299fc",
    "resource": {
      "resourceType": "Encounter",
      "id": "2cf96c82-8400-42bd-9a8e-7a41378299fc",
      "meta": {
        "profile": [ "http://hl7.org/fhir/us/qicore/StructureDefinition/qicore-encounter" ]
      },
      "status": "finished",
      "class": {
        "system": "http://terminology.hl7.org/CodeSystem/v3-ActCode",
        "code": "EMER",
        "display": "emergency",
        "userSelected": true
      },
      "type": [ {
        "coding": [ {
          "system": "http://snomed.info/sct",
          "version": "2020-09",
          "code": "4525004",
          "display": "Emergency department patient visit (procedure)",
          "userSelected": true
        } ]
      } ],
      "subject": {
        "reference": "Patient/daf80212-b06f-4f0c-8e23-9a005a9e9bcb"
      },
      "period": {
        "start": "2026-11-10T08:05:00.000+00:00",
        "end": "2026-11-11T07:15:00.000+00:00"
      },
      "reasonReference": [ {
        "reference": "Condition/502a4b4c-67d7-4e55-bad7-c12878477875"
      } ]
    },
    "request": {
      "method": "PUT",
      "url": "Encounter/2cf96c82-8400-42bd-9a8e-7a41378299fc"
    }
  }, {
    "fullUrl": "https://madie.cms.gov/Condition/82a24795-65e2-447a-bd4c-3c63a3831713",
    "resource": {
      "resourceType": "Condition",
      "id": "82a24795-65e2-447a-bd4c-3c63a3831713",
      "meta": {
        "profile": [ "http://hl7.org/fhir/us/qicore/StructureDefinition/qicore-condition-problems-health-concerns" ]
      },
      "clinicalStatus": {
        "coding": [ {
          "system": "http://terminology.hl7.org/CodeSystem/condition-clinical",
          "code": "active"
        } ]
      },
      "verificationStatus": {
        "coding": [ {
          "system": "http://terminology.hl7.org/CodeSystem/condition-ver-status",
          "code": "confirmed"
        } ]
      },
      "category": [ {
        "coding": [ {
          "system": "http://terminology.hl7.org/CodeSystem/condition-category",
          "code": "problem-list-item",
          "display": "Problem List Item"
        } ]
      } ],
      "severity": {
        "coding": [ {
          "system": "http://snomed.info/sct",
          "code": "24484000",
          "display": "Severe (severity modifier)"
        } ]
      },
      "code": {
        "coding": [ {
          "system": "http://hl7.org/fhir/sid/icd-10-cm",
          "code": "Z92.82",
          "display": "Status post administration of tPA (rtPA) in a different facility within the last 24 hours prior to admission to current facility"
        } ]
      },
      "subject": {
        "reference": "Patient/daf80212-b06f-4f0c-8e23-9a005a9e9bcb"
      },
      "onsetDateTime": "2026-11-10T08:30:00.000+00:00"
    },
    "request": {
      "method": "PUT",
      "url": "Condition/82a24795-65e2-447a-bd4c-3c63a3831713"
    }
  }, {
    "fullUrl": "https://madie.cms.gov/Condition/502a4b4c-67d7-4e55-bad7-c12878477875",
    "resource": {
      "resourceType": "Condition",
      "id": "502a4b4c-67d7-4e55-bad7-c12878477875",
      "meta": {
        "profile": [ "http://hl7.org/fhir/us/qicore/StructureDefinition/qicore-condition-problems-health-concerns" ]
      },
      "clinicalStatus": {
        "coding": [ {
          "system": "http://terminology.hl7.org/CodeSystem/condition-clinical",
          "code": "active",
          "display": "active",
          "userSelected": true
        } ]
      },
      "verificationStatus": {
        "coding": [ {
          "system": "http://terminology.hl7.org/CodeSystem/condition-ver-status",
          "code": "confirmed"
        } ]
      },
      "category": [ {
        "coding": [ {
          "system": "http://terminology.hl7.org/CodeSystem/condition-category",
          "code": "problem-list-item",
          "display": "Problem List Item",
          "userSelected": true
        } ]
      } ],
      "code": {
        "coding": [ {
          "system": "http://snomed.info/sct",
          "version": "2020-09",
          "code": "401303003",
          "display": "Acute ST segment elevation myocardial infarction (disorder)",
          "userSelected": true
        } ]
      },
      "subject": {
        "reference": "Patient/daf80212-b06f-4f0c-8e23-9a005a9e9bcb"
      },
      "onsetDateTime": "2026-11-10T08:30:00.000+00:00"
    },
    "request": {
      "method": "PUT",
      "url": "Condition/502a4b4c-67d7-4e55-bad7-c12878477875"
    }
  }, {
    "fullUrl": "https://madie.cms.gov/Condition/c58ea901-ee8e-4e53-92ad-bafe601ad463",
    "resource": {
      "resourceType": "Condition",
      "id": "c58ea901-ee8e-4e53-92ad-bafe601ad463",
      "meta": {
        "profile": [ "http://hl7.org/fhir/us/qicore/StructureDefinition/qicore-condition-problems-health-concerns" ]
      },
      "clinicalStatus": {
        "coding": [ {
          "system": "http://terminology.hl7.org/CodeSystem/condition-clinical",
          "version": "4.0.1",
          "code": "inactive",
          "display": "Inactive",
          "userSelected": true
        } ]
      },
      "category": [ {
        "coding": [ {
          "system": "http://terminology.hl7.org/CodeSystem/condition-category",
          "code": "problem-list-item",
          "display": "Problem List Item",
          "userSelected": true
        } ]
      } ],
      "code": {
        "coding": [ {
          "system": "http://snomed.info/sct",
          "version": "2020-09",
          "code": "162710004",
          "display": "On examination - collapse -cardiac arrest (disorder)",
          "userSelected": true
        } ]
      },
      "subject": {
        "reference": "Patient/daf80212-b06f-4f0c-8e23-9a005a9e9bcb"
      },
      "onsetDateTime": "2026-11-10T09:00:00.000+00:00"
    },
    "request": {
      "method": "PUT",
      "url": "Condition/c58ea901-ee8e-4e53-92ad-bafe601ad463"
    }
  }, {
    "fullUrl": "https://madie.cms.gov/Coverage/1e8dba87-5970-4d4a-b4b7-121781dcff69",
    "resource": {
      "resourceType": "Coverage",
      "id": "1e8dba87-5970-4d4a-b4b7-121781dcff69",
      "meta": {
        "profile": [ "http://hl7.org/fhir/us/qicore/StructureDefinition/qicore-coverage" ]
      },
      "identifier": [ {
        "type": {
          "coding": [ {
            "system": "http://terminology.hl7.org/CodeSystem/v2-0203",
            "code": "MB"
          } ]
        }
      } ],
      "status": "active",
      "beneficiary": {
        "reference": "Patient/daf80212-b06f-4f0c-8e23-9a005a9e9bcb"
      },
      "relationship": {
        "coding": [ {
          "system": "http://terminology.hl7.org/CodeSystem/subscriber-relationship",
          "code": "self"
        } ]
      },
      "payor": [ {
        "reference": "Organization/9f879827-f312-45c4-bf3c-fea1afbda7eb"
      } ]
    },
    "request": {
      "method": "PUT",
      "url": "Coverage/1e8dba87-5970-4d4a-b4b7-121781dcff69"
    }
  }, {
    "fullUrl": "https://madie.cms.gov/Organization/9f879827-f312-45c4-bf3c-fea1afbda7eb",
    "resource": {
      "resourceType": "Organization",
      "id": "9f879827-f312-45c4-bf3c-fea1afbda7eb",
      "meta": {
        "profile": [ "http://hl7.org/fhir/us/qicore/StructureDefinition/qicore-organization" ]
      },
      "identifier": [ {
        "use": "temp",
        "system": "urn:oid:2.16.840.1.113883.4.4",
        "value": "21-3259825"
      } ],
      "active": true,
      "type": [ {
        "coding": [ {
          "system": "http://terminology.hl7.org/CodeSystem/organization-type",
          "code": "pay",
          "display": "Payer"
        } ]
      } ],
      "name": "Blue Cross Blue Shield of Texas",
      "telecom": [ {
        "system": "phone",
        "value": "(+1) 972-766-6900"
      } ],
      "address": [ {
        "use": "billing",
        "type": "postal",
        "line": [ "P.O. Box 660044" ],
        "city": "Dallas",
        "state": "TX",
        "postalCode": "75266-0044",
        "country": "USA"
      } ]
    },
    "request": {
      "method": "PUT",
      "url": "Organization/9f879827-f312-45c4-bf3c-fea1afbda7eb"
    }
  }, {
    "fullUrl": "https://madie.cms.gov/Practitioner/8e13924d-6ff6-433c-921c-088394da1c08",
    "resource": {
      "resourceType": "Practitioner",
      "id": "8e13924d-6ff6-433c-921c-088394da1c08",
      "meta": {
        "profile": [ "http://hl7.org/fhir/us/qicore/StructureDefinition/qicore-practitioner" ]
      },
      "identifier": [ {
        "system": "http://hl7.org/fhir/sid/us-npi",
        "value": "9999999896"
      } ],
      "name": [ {
        "family": "Evil",
        "prefix": [ "Dr" ]
      } ]
    },
    "request": {
      "method": "PUT",
      "url": "Practitioner/8e13924d-6ff6-433c-921c-088394da1c08"
    }
  }, {
    "fullUrl": "https://madie.cms.gov/MeasureReport/5c80f68f-3ef1-4c7a-a98b-eb6bc58f4c33",
    "resource": {
      "resourceType": "MeasureReport",
      "id": "5c80f68f-3ef1-4c7a-a98b-eb6bc58f4c33",
      "meta": {
        "profile": [ "http://hl7.org/fhir/us/cqfmeasures/StructureDefinition/test-case-cqfm" ]
      },
      "contained": [ {
        "resourceType": "Parameters",
        "id": "9a06a57d-8657-43bb-a5fc-a64d83c0968f-parameters",
        "parameter": [ {
          "name": "subject",
          "valueString": "daf80212-b06f-4f0c-8e23-9a005a9e9bcb"
        } ]
      } ],
      "extension": [ {
        "url": "http://hl7.org/fhir/StructureDefinition/cqf-inputParameters",
        "valueReference": {
          "reference": "#9a06a57d-8657-43bb-a5fc-a64d83c0968f-parameters"
        }
      }, {
        "url": "http://hl7.org/fhir/us/cqfmeasures/StructureDefinition/cqfm-testCaseDescription",
        "valueMarkdown": "Patient has diagnosis exception of tPA at another facility within 24 hours of emergency department visit."
      } ],
      "modifierExtension": [ {
        "url": "http://hl7.org/fhir/us/cqfmeasures/StructureDefinition/cqfm-isTestCase",
        "valueBoolean": true
      } ],
      "status": "complete",
      "type": "individual",
      "measure": "https://madie.cms.gov/Measure/CMS996FHIRAptTxforSTEMI",
      "period": {
        "start": "2026-01-01",
        "end": "2026-12-31"
      },
      "group": [ {
        "id": "Group_1",
        "population": [ {
          "id": "InitialPopulation_1",
          "code": {
            "coding": [ {
              "system": "http://terminology.hl7.org/CodeSystem/measure-population",
              "code": "initial-population",
              "display": "Initial Population"
            } ]
          },
          "count": 1
        }, {
          "id": "Denominator_1",
          "code": {
            "coding": [ {
              "system": "http://terminology.hl7.org/CodeSystem/measure-population",
              "code": "denominator",
              "display": "Denominator"
            } ]
          },
          "count": 1
        }, {
          "id": "DenominatorExclusion_1",
          "code": {
            "coding": [ {
              "system": "http://terminology.hl7.org/CodeSystem/measure-population",
              "code": "denominator-exclusion",
              "display": "Denominator Exclusion"
            } ]
          },
          "count": 0
        }, {
          "id": "Numerator_1",
          "code": {
            "coding": [ {
              "system": "http://terminology.hl7.org/CodeSystem/measure-population",
              "code": "numerator",
              "display": "Numerator"
            } ]
          },
          "count": 0
        }, {
          "id": "DenominatorException_1",
          "code": {
            "coding": [ {
              "system": "http://terminology.hl7.org/CodeSystem/measure-population",
              "code": "denominator-exception",
              "display": "Denominator Exception"
            } ]
          },
          "count": 1
        } ],
        "measureScore": {
          "value": 0.0
        }
      } ],
      "evaluatedResource": [ {
        "reference": "Patient/daf80212-b06f-4f0c-8e23-9a005a9e9bcb"
      }, {
        "reference": "Encounter/2cf96c82-8400-42bd-9a8e-7a41378299fc"
      }, {
        "reference": "Condition/82a24795-65e2-447a-bd4c-3c63a3831713"
      }, {
        "reference": "Condition/502a4b4c-67d7-4e55-bad7-c12878477875"
      }, {
        "reference": "Condition/c58ea901-ee8e-4e53-92ad-bafe601ad463"
      }, {
        "reference": "Coverage/1e8dba87-5970-4d4a-b4b7-121781dcff69"
      }, {
        "reference": "Organization/9f879827-f312-45c4-bf3c-fea1afbda7eb"
      }, {
        "reference": "Practitioner/8e13924d-6ff6-433c-921c-088394da1c08"
      } ]
    },
    "request": {
      "method": "PUT",
      "url": "MeasureReport/5c80f68f-3ef1-4c7a-a98b-eb6bc58f4c33"
    }
  } ]
}