{
  "resourceType": "Bundle",
  "id": "661579e3db207d74c03b8a59",
  "type": "transaction",
  "entry": [ {
    "fullUrl": "https://madie.cms.gov/Patient/a8c8b95f-b734-4a56-8a62-2cba1e9ffc77",
    "resource": {
      "resourceType": "Patient",
      "id": "a8c8b95f-b734-4a56-8a62-2cba1e9ffc77",
      "meta": {
        "profile": [ "http://hl7.org/fhir/us/qicore/StructureDefinition/qicore-patient" ]
      },
      "extension": [ {
        "url": "http://hl7.org/fhir/us/core/StructureDefinition/us-core-race",
        "extension": [ {
          "url": "ombCategory",
          "valueCoding": {
            "system": "urn:oid:2.16.840.1.113883.6.238",
            "code": "2076-8",
            "display": "Native Hawaiian or Other Pacific Islander",
            "userSelected": true
          }
        }, {
          "url": "text",
          "valueString": "Native Hawaiian or Other Pacific Islander"
        } ]
      }, {
        "url": "http://hl7.org/fhir/us/core/StructureDefinition/us-core-ethnicity",
        "extension": [ {
          "url": "ombCategory",
          "valueCoding": {
            "system": "urn:oid:2.16.840.1.113883.6.238",
            "code": "2186-5",
            "display": "Not Hispanic or Latino",
            "userSelected": true
          }
        }, {
          "url": "text",
          "valueString": "Not Hispanic or Latino"
        } ]
      }, {
        "url": "http://hl7.org/fhir/us/core/StructureDefinition/us-core-sex",
        "valueCode": "248152002"
      } ],
      "identifier": [ {
        "type": {
          "coding": [ {
            "system": "http://terminology.hl7.org/CodeSystem/v2-0203",
            "code": "MR"
          } ]
        },
        "system": "https://bonnie-fhir.healthit.gov/",
        "value": "661579e3db207d74c03b8a59"
      } ],
      "name": [ {
        "family": "NUMERStrat4Pass",
        "given": [ "TimeToTx61Min" ]
      } ],
      "gender": "female",
      "birthDate": "2008-12-31"
    },
    "request": {
      "method": "PUT",
      "url": "Patient/a8c8b95f-b734-4a56-8a62-2cba1e9ffc77"
    }
  }, {
    "fullUrl": "https://madie.cms.gov/Encounter/0cb1842d-e87b-403c-a9f9-38ca727ef81d",
    "resource": {
      "resourceType": "Encounter",
      "id": "0cb1842d-e87b-403c-a9f9-38ca727ef81d",
      "meta": {
        "profile": [ "http://hl7.org/fhir/us/qicore/StructureDefinition/qicore-encounter" ]
      },
      "status": "finished",
      "class": {
        "system": "http://terminology.hl7.org/CodeSystem/v3-ActCode",
        "code": "EMER",
        "display": "emergency"
      },
      "type": [ {
        "coding": [ {
          "system": "http://snomed.info/sct",
          "version": "2023-09",
          "code": "225390008",
          "display": "Triage (procedure)",
          "userSelected": true
        } ]
      } ],
      "subject": {
        "reference": "Patient/a8c8b95f-b734-4a56-8a62-2cba1e9ffc77"
      },
      "period": {
        "start": "2027-05-01T06:00:00.000+00:00",
        "end": "2027-05-01T06:15:00.000+00:00"
      }
    },
    "request": {
      "method": "PUT",
      "url": "Encounter/0cb1842d-e87b-403c-a9f9-38ca727ef81d"
    }
  }, {
    "fullUrl": "https://madie.cms.gov/Encounter/02ba58dd-b695-4a3d-a595-a3eb89a5a74a",
    "resource": {
      "resourceType": "Encounter",
      "id": "02ba58dd-b695-4a3d-a595-a3eb89a5a74a",
      "meta": {
        "profile": [ "http://hl7.org/fhir/us/qicore/StructureDefinition/qicore-encounter" ]
      },
      "status": "finished",
      "class": {
        "system": "http://terminology.hl7.org/CodeSystem/v3-ActCode",
        "code": "EMER",
        "display": "emergency"
      },
      "type": [ {
        "coding": [ {
          "system": "http://snomed.info/sct",
          "version": "2023-09",
          "code": "4525004",
          "display": "Emergency department patient visit (procedure)",
          "userSelected": true
        } ]
      } ],
      "subject": {
        "reference": "Patient/a8c8b95f-b734-4a56-8a62-2cba1e9ffc77"
      },
      "period": {
        "start": "2027-05-01T08:00:00.000+00:00",
        "end": "2027-05-01T12:15:00.000+00:00"
      },
      "diagnosis": [ {
        "condition": {
          "reference": "Condition/217a4113-83b2-4c63-a533-5d1da206419a"
        },
        "use": {
          "coding": [ {
            "system": "http://terminology.hl7.org/CodeSystem/diagnosis-role",
            "code": "billing"
          } ]
        },
        "rank": 1
      } ],
      "location": [ {
        "location": {
          "reference": "Location/2e8fb1ce-aa41-4c98-88c4-3deed8065a1f"
        },
        "period": {
          "start": "2027-05-01T07:45:00.000+00:00",
          "end": "2027-05-01T16:31:00.000+00:00"
        }
      }, {
        "location": {
          "reference": "Location/2c492f73-d0ba-4b30-be5b-554664a7e832"
        },
        "period": {
          "start": "2027-05-01T09:31:00.000+00:00",
          "end": "2027-05-01T12:15:00.000+00:00"
        }
      }, {
        "location": {
          "reference": "Location/2829b2b8-2513-4cdd-8ac4-be295263fb23"
        },
        "period": {
          "start": "2027-05-01T08:40:00.000+00:00",
          "end": "2027-05-01T12:15:00.000+00:00"
        }
      }, {
        "location": {
          "reference": "Location/c08b7d1c-1a7c-45c9-9df8-ac041d70bcf8"
        },
        "period": {
          "start": "2027-05-01T08:30:00.000+00:00",
          "end": "2027-05-01T15:46:00.000+00:00"
        }
      } ]
    },
    "request": {
      "method": "PUT",
      "url": "Encounter/02ba58dd-b695-4a3d-a595-a3eb89a5a74a"
    }
  }, {
    "fullUrl": "https://madie.cms.gov/Location/2e8fb1ce-aa41-4c98-88c4-3deed8065a1f",
    "resource": {
      "resourceType": "Location",
      "id": "2e8fb1ce-aa41-4c98-88c4-3deed8065a1f",
      "meta": {
        "profile": [ "http://hl7.org/fhir/us/qicore/StructureDefinition/qicore-location" ]
      },
      "identifier": [ {
        "use": "usual",
        "system": "http://exampleoflocation.com",
        "value": "B1-S.F1"
      } ],
      "name": "Medical Surgical East, first floor",
      "type": [ {
        "coding": [ {
          "system": "https://www.cdc.gov/nhsn/cdaportal/terminology/codesystem/hsloc.html",
          "version": "2022",
          "code": "1108-0",
          "display": "Emergency Department",
          "userSelected": true
        } ]
      } ]
    },
    "request": {
      "method": "PUT",
      "url": "Location/2e8fb1ce-aa41-4c98-88c4-3deed8065a1f"
    }
  }, {
    "fullUrl": "https://madie.cms.gov/Location/2c492f73-d0ba-4b30-be5b-554664a7e832",
    "resource": {
      "resourceType": "Location",
      "id": "2c492f73-d0ba-4b30-be5b-554664a7e832",
      "meta": {
        "profile": [ "http://hl7.org/fhir/us/qicore/StructureDefinition/qicore-location" ]
      },
      "identifier": [ {
        "use": "usual",
        "system": "http://exampleoflocation.com",
        "value": "B1-S.F2"
      } ],
      "name": "Medical Surgical East, first floor",
      "type": [ {
        "coding": [ {
          "system": "https://www.cdc.gov/nhsn/cdaportal/terminology/codesystem/hsloc.html",
          "version": "2022",
          "code": "1209-6",
          "display": "Treatment Room",
          "userSelected": true
        } ]
      } ]
    },
    "request": {
      "method": "PUT",
      "url": "Location/2c492f73-d0ba-4b30-be5b-554664a7e832"
    }
  }, {
    "fullUrl": "https://madie.cms.gov/Condition/217a4113-83b2-4c63-a533-5d1da206419a",
    "resource": {
      "resourceType": "Condition",
      "id": "217a4113-83b2-4c63-a533-5d1da206419a",
      "meta": {
        "profile": [ "http://hl7.org/fhir/us/qicore/StructureDefinition/qicore-condition-encounter-diagnosis" ]
      },
      "category": [ {
        "coding": [ {
          "system": "http://terminology.hl7.org/CodeSystem/condition-category",
          "code": "encounter-diagnosis",
          "display": "Encounter Diagnosis"
        } ]
      } ],
      "code": {
        "coding": [ {
          "system": "http://snomed.info/sct",
          "version": "2023-09",
          "code": "10349009",
          "display": "Multi-infarct dementia with delirium (disorder)",
          "userSelected": true
        } ]
      },
      "subject": {
        "reference": "Patient/a8c8b95f-b734-4a56-8a62-2cba1e9ffc77"
      },
      "recordedDate": "2027-04-09T08:00:00.000+00:00"
    },
    "request": {
      "method": "PUT",
      "url": "Condition/217a4113-83b2-4c63-a533-5d1da206419a"
    }
  }, {
    "fullUrl": "https://madie.cms.gov/Location/c08b7d1c-1a7c-45c9-9df8-ac041d70bcf8",
    "resource": {
      "resourceType": "Location",
      "id": "c08b7d1c-1a7c-45c9-9df8-ac041d70bcf8",
      "meta": {
        "profile": [ "http://hl7.org/fhir/us/qicore/StructureDefinition/qicore-location" ]
      },
      "identifier": [ {
        "use": "usual",
        "system": "http://exampleoflocation.com",
        "value": "B1-S.F2"
      } ],
      "name": "Medical Surgical East, first floor",
      "type": [ {
        "coding": [ {
          "system": "https://www.cdc.gov/nhsn/cdaportal/terminology/codesystem/hsloc.html",
          "version": "2022",
          "code": "1108-0",
          "display": "Emergency Department",
          "userSelected": true
        } ]
      } ]
    },
    "request": {
      "method": "PUT",
      "url": "Location/c08b7d1c-1a7c-45c9-9df8-ac041d70bcf8"
    }
  }, {
    "fullUrl": "https://madie.cms.gov/Location/2829b2b8-2513-4cdd-8ac4-be295263fb23",
    "resource": {
      "resourceType": "Location",
      "id": "2829b2b8-2513-4cdd-8ac4-be295263fb23",
      "meta": {
        "profile": [ "http://hl7.org/fhir/us/qicore/StructureDefinition/qicore-location" ]
      },
      "identifier": [ {
        "use": "usual",
        "system": "http://exampleoflocation.com",
        "value": "B1-S.F2"
      } ],
      "name": "Medical Surgical East, first floor",
      "type": [ {
        "coding": [ {
          "system": "https://www.cdc.gov/nhsn/cdaportal/terminology/codesystem/hsloc.html",
          "version": "2022",
          "code": "1209-6",
          "display": "Treatment Room"
        } ]
      } ]
    },
    "request": {
      "method": "PUT",
      "url": "Location/2829b2b8-2513-4cdd-8ac4-be295263fb23"
    }
  }, {
    "fullUrl": "https://madie.cms.gov/claim/ClaimBehavior-NotSubsAbuse",
    "resource": {
      "resourceType": "Claim",
      "id": "ClaimBehavior-NotSubsAbuse",
      "meta": {
        "profile": [ "http://hl7.org/fhir/us/qicore/StructureDefinition/qicore-claim" ]
      },
      "status": "active",
      "type": {
        "coding": [ {
          "system": "http://terminology.hl7.org/CodeSystem/claim-type",
          "code": "institutional"
        } ]
      },
      "use": "claim",
      "patient": {
        "reference": "Patient/a8c8b95f-b734-4a56-8a62-2cba1e9ffc77"
      },
      "created": "2027-05-01",
      "provider": {
        "reference": "Practitioner/de96fa06-70f3-4096-819e-87e71b5b1973"
      },
      "priority": {
        "coding": [ {
          "system": "http://terminology.hl7.org/CodeSystem/processpriority",
          "code": "normal"
        } ]
      },
      "diagnosis": [ {
        "sequence": 1,
        "diagnosisReference": {
          "reference": "Condition/217a4113-83b2-4c63-a533-5d1da206419a"
        },
        "type": [ {
          "coding": [ {
            "system": "http://terminology.hl7.org/CodeSystem/ex-diagnosistype",
            "code": "principal"
          } ]
        } ]
      } ],
      "insurance": [ {
        "sequence": 1,
        "focal": true,
        "coverage": {
          "reference": "Coverage/c3a593d7-44ce-4d65-b83f-2a5d741b6502"
        }
      } ],
      "item": [ {
        "sequence": 1,
        "diagnosisSequence": [ 1 ],
        "productOrService": {
          "coding": [ {
            "system": "http://terminology.hl7.org/CodeSystem/ex-USCLS",
            "code": "99555"
          } ]
        },
        "encounter": [ {
          "reference": "Encounter/02ba58dd-b695-4a3d-a595-a3eb89a5a74a"
        } ]
      } ]
    },
    "request": {
      "method": "PUT",
      "url": "Claim/ClaimBehavior-NotSubsAbuse"
    }
  }, {
    "fullUrl": "https://madie.cms.gov/Coverage/c3a593d7-44ce-4d65-b83f-2a5d741b6502",
    "resource": {
      "resourceType": "Coverage",
      "id": "c3a593d7-44ce-4d65-b83f-2a5d741b6502",
      "meta": {
        "profile": [ "http://hl7.org/fhir/us/qicore/StructureDefinition/qicore-coverage" ]
      },
      "identifier": [ {
        "type": {
          "coding": [ {
            "system": "http://terminology.hl7.org/CodeSystem/v2-0203",
            "code": "MB"
          } ]
        }
      } ],
      "status": "active",
      "beneficiary": {
        "reference": "Patient/a8c8b95f-b734-4a56-8a62-2cba1e9ffc77"
      },
      "relationship": {
        "coding": [ {
          "system": "http://terminology.hl7.org/CodeSystem/subscriber-relationship",
          "code": "self"
        } ]
      },
      "payor": [ {
        "reference": "Organization/049b0f80-4588-4f93-8fcf-867d5ed409a8"
      } ]
    },
    "request": {
      "method": "PUT",
      "url": "Coverage/c3a593d7-44ce-4d65-b83f-2a5d741b6502"
    }
  }, {
    "fullUrl": "https://madie.cms.gov/Organization/049b0f80-4588-4f93-8fcf-867d5ed409a8",
    "resource": {
      "resourceType": "Organization",
      "id": "049b0f80-4588-4f93-8fcf-867d5ed409a8",
      "meta": {
        "profile": [ "http://hl7.org/fhir/us/qicore/StructureDefinition/qicore-organization" ]
      },
      "identifier": [ {
        "use": "temp",
        "system": "urn:oid:2.16.840.1.113883.4.4",
        "value": "21-3259825"
      } ],
      "active": true,
      "type": [ {
        "coding": [ {
          "system": "http://terminology.hl7.org/CodeSystem/organization-type",
          "code": "pay",
          "display": "Payer"
        } ]
      } ],
      "name": "Blue Cross Blue Shield of Texas",
      "telecom": [ {
        "system": "phone",
        "value": "(+1) 972-766-6900"
      } ],
      "address": [ {
        "use": "billing",
        "type": "postal",
        "line": [ "P.O. Box 660044" ],
        "city": "Dallas",
        "state": "TX",
        "postalCode": "75266-0044",
        "country": "USA"
      } ]
    },
    "request": {
      "method": "PUT",
      "url": "Organization/049b0f80-4588-4f93-8fcf-867d5ed409a8"
    }
  }, {
    "fullUrl": "https://madie.cms.gov/Practitioner/de96fa06-70f3-4096-819e-87e71b5b1973",
    "resource": {
      "resourceType": "Practitioner",
      "id": "de96fa06-70f3-4096-819e-87e71b5b1973",
      "meta": {
        "profile": [ "http://hl7.org/fhir/us/qicore/StructureDefinition/qicore-practitioner" ]
      },
      "identifier": [ {
        "system": "http://hl7.org/fhir/sid/us-npi",
        "value": "9999999896"
      } ],
      "name": [ {
        "family": "Evil",
        "prefix": [ "Dr" ]
      } ]
    },
    "request": {
      "method": "PUT",
      "url": "Practitioner/de96fa06-70f3-4096-819e-87e71b5b1973"
    }
  }, {
    "fullUrl": "https://madie.cms.gov/MeasureReport/d90054b8-e1bb-4bed-99e1-df8e5f138a8f",
    "resource": {
      "resourceType": "MeasureReport",
      "id": "d90054b8-e1bb-4bed-99e1-df8e5f138a8f",
      "meta": {
        "profile": [ "http://hl7.org/fhir/us/cqfmeasures/StructureDefinition/test-case-cqfm" ]
      },
      "contained": [ {
        "resourceType": "Parameters",
        "id": "08ecc427-0328-4172-8ee7-8bb46f8293c6-parameters",
        "parameter": [ {
          "name": "subject",
          "valueString": "a8c8b95f-b734-4a56-8a62-2cba1e9ffc77"
        } ]
      } ],
      "extension": [ {
        "url": "http://hl7.org/fhir/StructureDefinition/cqf-inputParameters",
        "valueReference": {
          "reference": "#08ecc427-0328-4172-8ee7-8bb46f8293c6-parameters"
        }
      }, {
        "url": "http://hl7.org/fhir/us/cqfmeasures/StructureDefinition/cqfm-testCaseDescription",
        "valueMarkdown": "Adult, mental diagnosis, LOS 8+ hours. Triage before EM start"
      } ],
      "modifierExtension": [ {
        "url": "http://hl7.org/fhir/us/cqfmeasures/StructureDefinition/cqfm-isTestCase",
        "valueBoolean": true
      } ],
      "status": "complete",
      "type": "individual",
      "measure": "https://madie.cms.gov/Measure/CMS1244FHIRECATHOQR",
      "period": {
        "start": "2027-01-01",
        "end": "2027-12-31"
      },
      "group": [ {
        "id": "Group_1",
        "population": [ {
          "id": "InitialPopulation_1",
          "code": {
            "coding": [ {
              "system": "http://terminology.hl7.org/CodeSystem/measure-population",
              "code": "initial-population",
              "display": "Initial Population"
            } ]
          },
          "count": 1
        }, {
          "id": "Denominator_1",
          "code": {
            "coding": [ {
              "system": "http://terminology.hl7.org/CodeSystem/measure-population",
              "code": "denominator",
              "display": "Denominator"
            } ]
          },
          "count": 1
        }, {
          "id": "Numerator_1",
          "code": {
            "coding": [ {
              "system": "http://terminology.hl7.org/CodeSystem/measure-population",
              "code": "numerator",
              "display": "Numerator"
            } ]
          },
          "count": 1
        } ],
        "measureScore": {
          "value": 0.0
        },
        "stratifier": [ {
          "id": "Stratification_1_1",
          "code": [ {
            "text": "Strata-1"
          } ],
          "stratum": [ {
            "value": {
              "text": "Strata-1"
            },
            "population": [ {
              "id": "InitialPopulation_1",
              "code": {
                "coding": [ {
                  "system": "http://terminology.hl7.org/CodeSystem/measure-population",
                  "code": "initial-population",
                  "display": "Initial Population"
                } ]
              },
              "count": 0
            }, {
              "id": "Denominator_1",
              "code": {
                "coding": [ {
                  "system": "http://terminology.hl7.org/CodeSystem/measure-population",
                  "code": "denominator",
                  "display": "Denominator"
                } ]
              },
              "count": 0
            }, {
              "id": "Numerator_1",
              "code": {
                "coding": [ {
                  "system": "http://terminology.hl7.org/CodeSystem/measure-population",
                  "code": "numerator",
                  "display": "Numerator"
                } ]
              },
              "count": 0
            } ]
          } ]
        }, {
          "id": "Stratification_1_2",
          "code": [ {
            "text": "Strata-2"
          } ],
          "stratum": [ {
            "value": {
              "text": "Strata-2"
            },
            "population": [ {
              "id": "InitialPopulation_1",
              "code": {
                "coding": [ {
                  "system": "http://terminology.hl7.org/CodeSystem/measure-population",
                  "code": "initial-population",
                  "display": "Initial Population"
                } ]
              },
              "count": 0
            }, {
              "id": "Denominator_1",
              "code": {
                "coding": [ {
                  "system": "http://terminology.hl7.org/CodeSystem/measure-population",
                  "code": "denominator",
                  "display": "Denominator"
                } ]
              },
              "count": 0
            }, {
              "id": "Numerator_1",
              "code": {
                "coding": [ {
                  "system": "http://terminology.hl7.org/CodeSystem/measure-population",
                  "code": "numerator",
                  "display": "Numerator"
                } ]
              },
              "count": 0
            } ]
          } ]
        }, {
          "id": "Stratification_1_3",
          "code": [ {
            "text": "Strata-3"
          } ],
          "stratum": [ {
            "value": {
              "text": "Strata-3"
            },
            "population": [ {
              "id": "InitialPopulation_1",
              "code": {
                "coding": [ {
                  "system": "http://terminology.hl7.org/CodeSystem/measure-population",
                  "code": "initial-population",
                  "display": "Initial Population"
                } ]
              },
              "count": 0
            }, {
              "id": "Denominator_1",
              "code": {
                "coding": [ {
                  "system": "http://terminology.hl7.org/CodeSystem/measure-population",
                  "code": "denominator",
                  "display": "Denominator"
                } ]
              },
              "count": 0
            }, {
              "id": "Numerator_1",
              "code": {
                "coding": [ {
                  "system": "http://terminology.hl7.org/CodeSystem/measure-population",
                  "code": "numerator",
                  "display": "Numerator"
                } ]
              },
              "count": 0
            } ]
          } ]
        }, {
          "id": "Stratification_1_4",
          "code": [ {
            "text": "Strata-4"
          } ],
          "stratum": [ {
            "value": {
              "text": "Strata-4"
            },
            "population": [ {
              "id": "InitialPopulation_1",
              "code": {
                "coding": [ {
                  "system": "http://terminology.hl7.org/CodeSystem/measure-population",
                  "code": "initial-population",
                  "display": "Initial Population"
                } ]
              },
              "count": 1
            }, {
              "id": "Denominator_1",
              "code": {
                "coding": [ {
                  "system": "http://terminology.hl7.org/CodeSystem/measure-population",
                  "code": "denominator",
                  "display": "Denominator"
                } ]
              },
              "count": 1
            }, {
              "id": "Numerator_1",
              "code": {
                "coding": [ {
                  "system": "http://terminology.hl7.org/CodeSystem/measure-population",
                  "code": "numerator",
                  "display": "Numerator"
                } ]
              },
              "count": 1
            } ]
          } ]
        } ]
      } ],
      "evaluatedResource": [ {
        "reference": "Patient/a8c8b95f-b734-4a56-8a62-2cba1e9ffc77"
      }, {
        "reference": "Encounter/0cb1842d-e87b-403c-a9f9-38ca727ef81d"
      }, {
        "reference": "Encounter/02ba58dd-b695-4a3d-a595-a3eb89a5a74a"
      }, {
        "reference": "Location/2e8fb1ce-aa41-4c98-88c4-3deed8065a1f"
      }, {
        "reference": "Location/2c492f73-d0ba-4b30-be5b-554664a7e832"
      }, {
        "reference": "Condition/217a4113-83b2-4c63-a533-5d1da206419a"
      }, {
        "reference": "Location/c08b7d1c-1a7c-45c9-9df8-ac041d70bcf8"
      }, {
        "reference": "Location/2829b2b8-2513-4cdd-8ac4-be295263fb23"
      }, {
        "reference": "Claim/ClaimBehavior-NotSubsAbuse"
      }, {
        "reference": "Coverage/c3a593d7-44ce-4d65-b83f-2a5d741b6502"
      }, {
        "reference": "Organization/049b0f80-4588-4f93-8fcf-867d5ed409a8"
      }, {
        "reference": "Practitioner/de96fa06-70f3-4096-819e-87e71b5b1973"
      } ]
    },
    "request": {
      "method": "PUT",
      "url": "MeasureReport/d90054b8-e1bb-4bed-99e1-df8e5f138a8f"
    }
  } ]
}