{
  "resourceType": "Bundle",
  "id": "612e6b5702c62a011f2ed65c",
  "type": "transaction",
  "entry": [ {
    "fullUrl": "https://madie.cms.gov/Patient/dd5a1e46-1b99-45a3-b4d3-1fde205d8a11",
    "resource": {
      "resourceType": "Patient",
      "id": "dd5a1e46-1b99-45a3-b4d3-1fde205d8a11",
      "meta": {
        "profile": [ "http://hl7.org/fhir/us/qicore/StructureDefinition/qicore-patient" ]
      },
      "text": {
        "status": "generated",
        "div": "<div xmlns=\"http://www.w3.org/1999/xhtml\"><div class=\"hapiHeaderText\">DxVTEClinicalStatusRemission <b>NUMERPASS </b></div><table class=\"hapiPropertyTable\"><tbody><tr><td>Identifier</td><td>53ba7bfa81859444ffcb221a690f5daf</td></tr><tr><td>Date of birth</td><td><span>02 January 1974</span></td></tr></tbody></table></div>"
      },
      "extension": [ {
        "url": "http://hl7.org/fhir/us/core/StructureDefinition/us-core-race",
        "extension": [ {
          "url": "ombCategory",
          "valueCoding": {
            "system": "urn:oid:2.16.840.1.113883.6.238",
            "code": "1002-5",
            "display": "American Indian or Alaska Native",
            "userSelected": true
          }
        }, {
          "url": "text",
          "valueString": "American Indian or Alaska Native"
        } ]
      }, {
        "url": "http://hl7.org/fhir/us/core/StructureDefinition/us-core-ethnicity",
        "extension": [ {
          "url": "ombCategory",
          "valueCoding": {
            "system": "urn:oid:2.16.840.1.113883.6.238",
            "code": "2135-2",
            "display": "Hispanic or Latino",
            "userSelected": true
          }
        }, {
          "url": "text",
          "valueString": "Hispanic or Latino"
        } ]
      } ],
      "identifier": [ {
        "type": {
          "coding": [ {
            "system": "http://terminology.hl7.org/CodeSystem/v2-0203",
            "code": "MR"
          } ]
        },
        "system": "https://bonnie-fhir.healthit.gov/",
        "value": "612e6b5702c62a011f2ed65c"
      } ],
      "active": true,
      "name": [ {
        "use": "usual",
        "family": "NUMERPass",
        "given": [ "DxVTEClinicalStatusRemission" ]
      } ],
      "gender": "male",
      "birthDate": "1975-01-02"
    },
    "request": {
      "method": "PUT",
      "url": "Patient/dd5a1e46-1b99-45a3-b4d3-1fde205d8a11"
    }
  }, {
    "fullUrl": "https://madie.cms.gov/Encounter/b9b427f0-7ff4-4564-966f-b0c0033e4813",
    "resource": {
      "resourceType": "Encounter",
      "id": "b9b427f0-7ff4-4564-966f-b0c0033e4813",
      "meta": {
        "profile": [ "http://hl7.org/fhir/us/qicore/StructureDefinition/qicore-encounter" ]
      },
      "status": "finished",
      "class": {
        "system": "http://terminology.hl7.org/CodeSystem/v3-ActCode",
        "code": "IMP",
        "display": "inpatient encounter"
      },
      "type": [ {
        "coding": [ {
          "system": "http://snomed.info/sct",
          "code": "8715000"
        } ]
      } ],
      "subject": {
        "reference": "Patient/dd5a1e46-1b99-45a3-b4d3-1fde205d8a11"
      },
      "period": {
        "start": "2026-11-01T08:00:00.000+00:00",
        "end": "2026-11-26T08:15:00.000+00:00"
      },
      "length": {
        "value": 25,
        "unit": "days"
      }
    },
    "request": {
      "method": "PUT",
      "url": "Encounter/b9b427f0-7ff4-4564-966f-b0c0033e4813"
    }
  }, {
    "fullUrl": "https://madie.cms.gov/Coverage/b656194f-8a45-4fe7-adbf-bf5e583c1723",
    "resource": {
      "resourceType": "Coverage",
      "id": "b656194f-8a45-4fe7-adbf-bf5e583c1723",
      "status": "active",
      "beneficiary": {
        "reference": "Patient/dd5a1e46-1b99-45a3-b4d3-1fde205d8a11"
      },
      "period": {
        "start": "1975-01-02T08:00:00.000+00:00"
      },
      "payor": [ {
        "reference": "Organization/b93b6050-3c6b-4bb0-b34d-fdd2cac3a11a"
      } ]
    },
    "request": {
      "method": "PUT",
      "url": "Coverage/b656194f-8a45-4fe7-adbf-bf5e583c1723"
    }
  }, {
    "fullUrl": "https://madie.cms.gov/Condition/6fab4771-db0d-48c8-b68b-11a2add22ba0",
    "resource": {
      "resourceType": "Condition",
      "id": "6fab4771-db0d-48c8-b68b-11a2add22ba0",
      "meta": {
        "profile": [ "http://hl7.org/fhir/us/qicore/StructureDefinition/qicore-condition-problems-health-concerns" ]
      },
      "clinicalStatus": {
        "coding": [ {
          "system": "http://terminology.hl7.org/CodeSystem/condition-clinical",
          "code": "remission",
          "display": "remission",
          "userSelected": true
        } ]
      },
      "verificationStatus": {
        "coding": [ {
          "system": "http://terminology.hl7.org/CodeSystem/condition-ver-status",
          "code": "confirmed",
          "display": "confirmed",
          "userSelected": true
        } ]
      },
      "category": [ {
        "coding": [ {
          "system": "http://terminology.hl7.org/CodeSystem/condition-category",
          "code": "problem-list-item",
          "display": "Problem List Item"
        } ]
      } ],
      "code": {
        "coding": [ {
          "system": "http://snomed.info/sct",
          "code": "1001000119102",
          "display": "Pulmonary embolism with pulmonary"
        } ]
      },
      "subject": {
        "reference": "Patient/dd5a1e46-1b99-45a3-b4d3-1fde205d8a11"
      },
      "onsetPeriod": {
        "start": "2026-10-09T08:00:00.000+00:00",
        "end": "2026-10-09T08:15:00.000+00:00"
      }
    },
    "request": {
      "method": "PUT",
      "url": "Condition/6fab4771-db0d-48c8-b68b-11a2add22ba0"
    }
  }, {
    "fullUrl": "https://madie.cms.gov/MedicationAdministration/83064408-86d0-44e0-8158-a09bcd74c7d6",
    "resource": {
      "resourceType": "MedicationAdministration",
      "id": "83064408-86d0-44e0-8158-a09bcd74c7d6",
      "meta": {
        "profile": [ "http://hl7.org/fhir/us/qicore/StructureDefinition/qicore-medicationadministration" ]
      },
      "status": "completed",
      "medicationCodeableConcept": {
        "coding": [ {
          "system": "http://www.nlm.nih.gov/research/umls/rxnorm",
          "code": "1599543",
          "display": "edoxaban 15 MG Oral Tablet"
        } ]
      },
      "subject": {
        "reference": "Patient/dd5a1e46-1b99-45a3-b4d3-1fde205d8a11"
      },
      "effectivePeriod": {
        "start": "2026-11-01T11:00:00.000+00:00",
        "end": "2026-11-01T11:05:00.000+00:00"
      }
    },
    "request": {
      "method": "PUT",
      "url": "MedicationAdministration/83064408-86d0-44e0-8158-a09bcd74c7d6"
    }
  }, {
    "fullUrl": "https://madie.cms.gov/Organization/b93b6050-3c6b-4bb0-b34d-fdd2cac3a11a",
    "resource": {
      "resourceType": "Organization",
      "id": "b93b6050-3c6b-4bb0-b34d-fdd2cac3a11a",
      "meta": {
        "profile": [ "http://hl7.org/fhir/us/qicore/StructureDefinition/qicore-organization" ]
      },
      "identifier": [ {
        "use": "temp",
        "system": "urn:oid:2.16.840.1.113883.4.4",
        "value": "21-3259825"
      } ],
      "active": true,
      "type": [ {
        "coding": [ {
          "system": "http://terminology.hl7.org/CodeSystem/organization-type",
          "code": "pay",
          "display": "Payer"
        } ]
      } ],
      "name": "Blue Cross Blue Shield of Texas",
      "telecom": [ {
        "system": "phone",
        "value": "(+1) 972-766-6900"
      } ],
      "address": [ {
        "use": "billing",
        "type": "postal",
        "line": [ "P.O. Box 660044" ],
        "city": "Dallas",
        "state": "TX",
        "postalCode": "75266-0044",
        "country": "USA"
      } ]
    },
    "request": {
      "method": "PUT",
      "url": "Organization/b93b6050-3c6b-4bb0-b34d-fdd2cac3a11a"
    }
  }, {
    "fullUrl": "https://madie.cms.gov/MeasureReport/bc945d90-f897-463b-bbc2-f9b922117784",
    "resource": {
      "resourceType": "MeasureReport",
      "id": "bc945d90-f897-463b-bbc2-f9b922117784",
      "meta": {
        "profile": [ "http://hl7.org/fhir/us/cqfmeasures/StructureDefinition/test-case-cqfm" ]
      },
      "contained": [ {
        "resourceType": "Parameters",
        "id": "bafaeab8-d8f0-4893-9fdf-29a95d53106d-parameters",
        "parameter": [ {
          "name": "subject",
          "valueString": "dd5a1e46-1b99-45a3-b4d3-1fde205d8a11"
        } ]
      } ],
      "extension": [ {
        "url": "http://hl7.org/fhir/StructureDefinition/cqf-inputParameters",
        "valueReference": {
          "reference": "#bafaeab8-d8f0-4893-9fdf-29a95d53106d-parameters"
        }
      }, {
        "url": "http://hl7.org/fhir/us/cqfmeasures/StructureDefinition/cqfm-testCaseDescription",
        "valueMarkdown": "To test and cover Condition. clinicalStatus  in remission. >18, LOS<120 day. Medication, Administered: Oral Factor Xa Inhibitor for VTE Prophylaxis with diagnosis of  VTE starts before the encounter."
      } ],
      "modifierExtension": [ {
        "url": "http://hl7.org/fhir/us/cqfmeasures/StructureDefinition/cqfm-isTestCase",
        "valueBoolean": true
      } ],
      "status": "complete",
      "type": "individual",
      "measure": "https://madie.cms.gov/Measure/CMS108FHIRVTEProphylaxis",
      "period": {
        "start": "2026-01-01",
        "end": "2026-12-31"
      },
      "group": [ {
        "id": "Group_1",
        "population": [ {
          "id": "InitialPopulation_1",
          "code": {
            "coding": [ {
              "system": "http://terminology.hl7.org/CodeSystem/measure-population",
              "code": "initial-population",
              "display": "Initial Population"
            } ]
          },
          "count": 1
        }, {
          "id": "Denominator_1",
          "code": {
            "coding": [ {
              "system": "http://terminology.hl7.org/CodeSystem/measure-population",
              "code": "denominator",
              "display": "Denominator"
            } ]
          },
          "count": 1
        }, {
          "id": "DenominatorExclusion_1",
          "code": {
            "coding": [ {
              "system": "http://terminology.hl7.org/CodeSystem/measure-population",
              "code": "denominator-exclusion",
              "display": "Denominator Exclusion"
            } ]
          },
          "count": 0
        }, {
          "id": "Numerator_1",
          "code": {
            "coding": [ {
              "system": "http://terminology.hl7.org/CodeSystem/measure-population",
              "code": "numerator",
              "display": "Numerator"
            } ]
          },
          "count": 1
        } ],
        "measureScore": {
          "value": 0.0
        }
      } ],
      "evaluatedResource": [ {
        "reference": "Patient/dd5a1e46-1b99-45a3-b4d3-1fde205d8a11"
      }, {
        "reference": "Encounter/b9b427f0-7ff4-4564-966f-b0c0033e4813"
      }, {
        "reference": "Coverage/b656194f-8a45-4fe7-adbf-bf5e583c1723"
      }, {
        "reference": "Condition/6fab4771-db0d-48c8-b68b-11a2add22ba0"
      }, {
        "reference": "MedicationAdministration/83064408-86d0-44e0-8158-a09bcd74c7d6"
      }, {
        "reference": "Organization/b93b6050-3c6b-4bb0-b34d-fdd2cac3a11a"
      } ]
    },
    "request": {
      "method": "PUT",
      "url": "MeasureReport/bc945d90-f897-463b-bbc2-f9b922117784"
    }
  } ]
}