{
  "resourceType": "Bundle",
  "id": "16496849846513511313",
  "type": "collection",
  "entry": [ {
    "fullUrl": "https://madie.cms.gov/Patient/40b4796d-dba8-4232-8cb4-8daf5d13a554",
    "resource": {
      "resourceType": "Patient",
      "id": "40b4796d-dba8-4232-8cb4-8daf5d13a554",
      "meta": {
        "profile": [ "http://hl7.org/fhir/us/qicore/StructureDefinition/qicore-patient" ]
      },
      "extension": [ {
        "url": "http://hl7.org/fhir/us/core/StructureDefinition/us-core-race",
        "extension": [ {
          "url": "ombCategory",
          "valueCoding": {
            "system": "urn:oid:2.16.840.1.113883.6.238",
            "code": "1002-5",
            "display": "American Indian or Alaska Native"
          }
        }, {
          "url": "text",
          "valueString": "American Indian or Alaska Native"
        } ]
      }, {
        "url": "http://hl7.org/fhir/us/core/StructureDefinition/us-core-ethnicity",
        "extension": [ {
          "url": "ombCategory",
          "valueCoding": {
            "system": "urn:oid:2.16.840.1.113883.6.238",
            "code": "2186-5",
            "display": "Not Hispanic or Latino"
          }
        }, {
          "url": "text",
          "valueString": "Not Hispanic or Latino"
        } ]
      } ],
      "identifier": [ {
        "type": {
          "coding": [ {
            "system": "http://terminology.hl7.org/CodeSystem/v2-0203",
            "code": "MR"
          } ]
        },
        "system": "https://bonnie-fhir.healthit.gov/",
        "value": "654613165163513"
      } ],
      "active": true,
      "name": [ {
        "use": "usual",
        "family": "NUMERPop1Fail",
        "given": [ "OverlapsAfterSameDay" ]
      } ],
      "gender": "male",
      "birthDate": "1968-12-14"
    }
  }, {
    "fullUrl": "https://madie.cms.gov/Encounter/c05b9baf-1190-4faa-a6ff-fe8308e26c1b",
    "resource": {
      "resourceType": "Encounter",
      "id": "c05b9baf-1190-4faa-a6ff-fe8308e26c1b",
      "meta": {
        "profile": [ "http://hl7.org/fhir/us/qicore/StructureDefinition/qicore-encounter" ]
      },
      "status": "finished",
      "class": {
        "system": "http://terminology.hl7.org/CodeSystem/v3-ActCode",
        "code": "AMB",
        "display": "ambulatory"
      },
      "type": [ {
        "coding": [ {
          "system": "http://snomed.info/sct",
          "version": "http://snomed.info/sct/731000124108/version/20250301",
          "code": "185463005"
        } ]
      } ],
      "subject": {
        "reference": "Patient/40b4796d-dba8-4232-8cb4-8daf5d13a554"
      },
      "period": {
        "start": "2026-03-04T20:00:00.000+00:00",
        "end": "2026-03-04T20:00:00.000+00:00"
      },
      "length": {
        "value": 0,
        "unit": "days"
      }
    }
  }, {
    "fullUrl": "https://madie.cms.gov/Encounter/268032db-2e60-4f87-9bd3-58b1815b548e",
    "resource": {
      "resourceType": "Encounter",
      "id": "268032db-2e60-4f87-9bd3-58b1815b548e",
      "meta": {
        "profile": [ "http://hl7.org/fhir/us/qicore/StructureDefinition/qicore-encounter" ]
      },
      "status": "finished",
      "class": {
        "system": "http://terminology.hl7.org/CodeSystem/v3-ActCode",
        "code": "AMB",
        "display": "ambulatory"
      },
      "type": [ {
        "coding": [ {
          "system": "http://www.ama-assn.org/go/cpt",
          "version": "2024",
          "code": "99205"
        } ]
      } ],
      "subject": {
        "reference": "Patient/40b4796d-dba8-4232-8cb4-8daf5d13a554"
      },
      "period": {
        "start": "2026-08-23T06:00:00.000+00:00",
        "end": "2026-08-23T06:00:00.000+00:00"
      },
      "length": {
        "value": 0,
        "unit": "days"
      }
    }
  }, {
    "fullUrl": "https://madie.cms.gov/Observation/c3dd6b36-490c-4ece-9fad-1539567ee917",
    "resource": {
      "resourceType": "Observation",
      "id": "c3dd6b36-490c-4ece-9fad-1539567ee917",
      "meta": {
        "profile": [ "http://hl7.org/fhir/us/qicore/StructureDefinition/qicore-observation-clinical-result" ]
      },
      "status": "final",
      "category": [ {
        "coding": [ {
          "system": "http://terminology.hl7.org/CodeSystem/observation-category",
          "code": "imaging",
          "display": "Imaging"
        } ]
      }, {
        "coding": [ {
          "system": "http://terminology.hl7.org/CodeSystem/observation-category",
          "code": "survey"
        } ]
      } ],
      "code": {
        "coding": [ {
          "system": "http://loinc.org",
          "code": "18049-7"
        } ]
      },
      "subject": {
        "reference": "Patient/40b4796d-dba8-4232-8cb4-8daf5d13a554"
      },
      "effectiveDateTime": "2026-03-04T08:00:00.000+00:00",
      "valueQuantity": {
        "value": 30,
        "unit": "%",
        "system": "http://unitsofmeasure.org",
        "code": "%"
      }
    }
  }, {
    "fullUrl": "https://madie.cms.gov/MedicationRequest/06e123ae-642b-457a-8a5b-8ea12469fe1e",
    "resource": {
      "resourceType": "MedicationRequest",
      "id": "06e123ae-642b-457a-8a5b-8ea12469fe1e",
      "meta": {
        "profile": [ "http://hl7.org/fhir/us/qicore/StructureDefinition/qicore-medicationrequest" ]
      },
      "status": "active",
      "intent": "order",
      "doNotPerform": false,
      "medicationCodeableConcept": {
        "coding": [ {
          "system": "http://www.nlm.nih.gov/research/umls/rxnorm",
          "version": "06052023",
          "code": "1999031",
          "display": "24 HR metoprolol succinate 100 MG Extended Release Oral Capsule"
        } ]
      },
      "subject": {
        "reference": "Patient/40b4796d-dba8-4232-8cb4-8daf5d13a554"
      },
      "authoredOn": "2025-03-04T10:45:00.000+00:00",
      "requester": {
        "reference": "Practitioner/2822c359-db89-4805-b984-6c6e0c17059e"
      },
      "dosageInstruction": [ {
        "timing": {
          "repeat": {
            "boundsPeriod": {
              "start": "2025-03-04T10:45:00.000+00:00",
              "end": "2026-08-23T10:00:00.000+00:00"
            }
          }
        }
      } ]
    }
  }, {
    "fullUrl": "https://madie.cms.gov/Practitioner/2822c359-db89-4805-b984-6c6e0c17059e",
    "resource": {
      "resourceType": "Practitioner",
      "id": "2822c359-db89-4805-b984-6c6e0c17059e",
      "meta": {
        "profile": [ "http://hl7.org/fhir/us/qicore/StructureDefinition/qicore-practitioner" ]
      },
      "identifier": [ {
        "use": "temp",
        "system": "urn:oid:2.16.840.1.113883.4.336",
        "value": "Practitioner-23"
      } ],
      "active": true,
      "name": [ {
        "family": "Careful",
        "given": [ "Adam" ],
        "prefix": [ "Dr" ]
      } ],
      "address": [ {
        "use": "home",
        "line": [ "534 Erewhon St" ],
        "city": "PleasantVille",
        "state": "UT",
        "postalCode": "84414"
      } ],
      "qualification": [ {
        "identifier": [ {
          "system": "http://example.org/UniversityIdentifier",
          "value": "12345"
        } ],
        "code": {
          "coding": [ {
            "system": "http://terminology.hl7.org/CodeSystem/v2-0360|2.7",
            "code": "BS",
            "display": "Bachelor of Science"
          } ],
          "text": "Bachelor of Science"
        },
        "period": {
          "start": "1996"
        },
        "issuer": {
          "display": "Example University"
        }
      } ]
    }
  }, {
    "fullUrl": "https://madie.cms.gov/Condition/306e58dc-0ba2-4e1e-9b5a-a7e544c192f4",
    "resource": {
      "resourceType": "Condition",
      "id": "306e58dc-0ba2-4e1e-9b5a-a7e544c192f4",
      "meta": {
        "profile": [ "http://hl7.org/fhir/us/qicore/StructureDefinition/qicore-condition-problems-health-concerns" ]
      },
      "clinicalStatus": {
        "coding": [ {
          "system": "http://terminology.hl7.org/CodeSystem/condition-clinical",
          "code": "active",
          "display": "Active"
        } ]
      },
      "verificationStatus": {
        "coding": [ {
          "system": "http://terminology.hl7.org/CodeSystem/condition-ver-status",
          "code": "confirmed",
          "display": "Confirmed"
        } ]
      },
      "category": [ {
        "coding": [ {
          "system": "http://terminology.hl7.org/CodeSystem/condition-category",
          "code": "problem-list-item",
          "display": "Problem List Item"
        } ]
      } ],
      "code": {
        "coding": [ {
          "system": "http://snomed.info/sct",
          "version": "http://snomed.info/sct/731000124108/version/20250301",
          "code": "10365005",
          "display": "Right main coronary artery thrombosis (disorder)",
          "userSelected": true
        } ]
      },
      "subject": {
        "reference": "Patient/40b4796d-dba8-4232-8cb4-8daf5d13a554"
      },
      "onsetPeriod": {
        "start": "2026-08-23T05:00:00.000+00:00"
      }
    }
  }, {
    "fullUrl": "https://madie.cms.gov/MeasureReport/42dea6f3-5c5a-4db0-bd0b-591bb34e8a11",
    "resource": {
      "resourceType": "MeasureReport",
      "id": "42dea6f3-5c5a-4db0-bd0b-591bb34e8a11",
      "meta": {
        "profile": [ "http://hl7.org/fhir/us/cqfmeasures/StructureDefinition/test-case-cqfm" ]
      },
      "contained": [ {
        "resourceType": "Parameters",
        "id": "2257eff2-62b6-401d-a4fa-ec142f148b89-parameters",
        "parameter": [ {
          "name": "subject",
          "valueString": "40b4796d-dba8-4232-8cb4-8daf5d13a554"
        } ]
      } ],
      "extension": [ {
        "url": "http://hl7.org/fhir/StructureDefinition/cqf-inputParameters",
        "valueReference": {
          "reference": "#2257eff2-62b6-401d-a4fa-ec142f148b89-parameters"
        }
      }, {
        "url": "http://hl7.org/fhir/us/cqfmeasures/StructureDefinition/cqfm-testCaseDescription",
        "valueMarkdown": "Pt > 18, 2 visits in MP, a CAD Encounter, a LVEF of 30%, but a medication order b4 1st visit"
      } ],
      "modifierExtension": [ {
        "url": "http://hl7.org/fhir/us/cqfmeasures/StructureDefinition/cqfm-isTestCase",
        "valueBoolean": true
      } ],
      "status": "complete",
      "type": "individual",
      "measure": "https://madie.cms.gov/Measure/CMS145FHIRCADBBlockerTPMIorLVSD",
      "period": {
        "start": "2026-01-01",
        "end": "2026-12-31"
      },
      "group": [ {
        "id": "Group_1",
        "population": [ {
          "id": "InitialPopulation_1",
          "code": {
            "coding": [ {
              "system": "http://terminology.hl7.org/CodeSystem/measure-population",
              "code": "initial-population",
              "display": "Initial Population"
            } ]
          },
          "count": 1
        }, {
          "id": "Denominator_1",
          "code": {
            "coding": [ {
              "system": "http://terminology.hl7.org/CodeSystem/measure-population",
              "code": "denominator",
              "display": "Denominator"
            } ]
          },
          "count": 1
        }, {
          "id": "Numerator_1",
          "code": {
            "coding": [ {
              "system": "http://terminology.hl7.org/CodeSystem/measure-population",
              "code": "numerator",
              "display": "Numerator"
            } ]
          },
          "count": 0
        }, {
          "id": "DenominatorException_1",
          "code": {
            "coding": [ {
              "system": "http://terminology.hl7.org/CodeSystem/measure-population",
              "code": "denominator-exception",
              "display": "Denominator Exception"
            } ]
          },
          "count": 0
        } ],
        "measureScore": {
          "value": 1.0
        }
      }, {
        "id": "Group_2",
        "population": [ {
          "id": "InitialPopulation_2",
          "code": {
            "coding": [ {
              "system": "http://terminology.hl7.org/CodeSystem/measure-population",
              "code": "initial-population",
              "display": "Initial Population"
            } ]
          },
          "count": 1
        }, {
          "id": "Denominator_2",
          "code": {
            "coding": [ {
              "system": "http://terminology.hl7.org/CodeSystem/measure-population",
              "code": "denominator",
              "display": "Denominator"
            } ]
          },
          "count": 0
        }, {
          "id": "Numerator_2",
          "code": {
            "coding": [ {
              "system": "http://terminology.hl7.org/CodeSystem/measure-population",
              "code": "numerator",
              "display": "Numerator"
            } ]
          },
          "count": 0
        }, {
          "id": "DenominatorException_2",
          "code": {
            "coding": [ {
              "system": "http://terminology.hl7.org/CodeSystem/measure-population",
              "code": "denominator-exception",
              "display": "Denominator Exception"
            } ]
          },
          "count": 0
        } ],
        "measureScore": {
          "value": 1.0
        }
      } ],
      "evaluatedResource": [ {
        "reference": "Patient/40b4796d-dba8-4232-8cb4-8daf5d13a554"
      }, {
        "reference": "Encounter/c05b9baf-1190-4faa-a6ff-fe8308e26c1b"
      }, {
        "reference": "Encounter/268032db-2e60-4f87-9bd3-58b1815b548e"
      }, {
        "reference": "Observation/c3dd6b36-490c-4ece-9fad-1539567ee917"
      }, {
        "reference": "MedicationRequest/06e123ae-642b-457a-8a5b-8ea12469fe1e"
      }, {
        "reference": "Practitioner/2822c359-db89-4805-b984-6c6e0c17059e"
      }, {
        "reference": "Condition/306e58dc-0ba2-4e1e-9b5a-a7e544c192f4"
      } ]
    }
  } ]
}