{
  "resourceType": "Bundle",
  "id": "IPPFail-DischargeAfterMeasurePeriod",
  "type": "transaction",
  "entry": [ {
    "fullUrl": "https://madie.cms.gov/Encounter/b420c933-6bf2-4639-ad32-d4a714a348b5",
    "resource": {
      "resourceType": "Encounter",
      "id": "b420c933-6bf2-4639-ad32-d4a714a348b5",
      "meta": {
        "profile": [ "http://hl7.org/fhir/us/qicore/StructureDefinition/qicore-encounter" ]
      },
      "status": "finished",
      "class": {
        "system": "http://terminology.hl7.org/CodeSystem/v3-ActCode",
        "code": "IMP",
        "display": "inpatient encounter"
      },
      "type": [ {
        "coding": [ {
          "system": "http://snomed.info/sct",
          "code": "183452005"
        } ]
      } ],
      "subject": {
        "reference": "Patient/814eb904-2889-4c31-9dfe-5b682eb473a4"
      },
      "period": {
        "start": "2026-11-09T11:00:00.000+00:00",
        "end": "2027-01-04T08:15:00.000+00:00"
      },
      "diagnosis": [ {
        "extension": [ {
          "url": "http://hl7.org/fhir/us/qicore/StructureDefinition/qicore-encounter-diagnosisPresentOnAdmission",
          "valueCodeableConcept": {
            "coding": [ {
              "system": "https://www.cms.gov/Medicare/Medicare-Fee-for-Service-Payment/HospitalAcqCond/Coding",
              "code": "N"
            } ]
          }
        } ],
        "condition": {
          "reference": "Condition/IPPFail-DischargeAfterMeasurePeriod-1"
        }
      }, {
        "extension": [ {
          "url": "http://hl7.org/fhir/us/qicore/StructureDefinition/qicore-encounter-diagnosisPresentOnAdmission",
          "valueCodeableConcept": {
            "coding": [ {
              "system": "https://www.cms.gov/Medicare/Medicare-Fee-for-Service-Payment/HospitalAcqCond/Coding",
              "code": "N"
            } ]
          }
        } ],
        "condition": {
          "reference": "Condition/IPPFail-DischargeAfterMeasurePeriod-2"
        }
      } ]
    },
    "request": {
      "method": "PUT",
      "url": "Encounter/b420c933-6bf2-4639-ad32-d4a714a348b5"
    }
  }, {
    "fullUrl": "https://madie.cms.gov/Encounter/2f58ad92-12a7-4dec-82de-cf5bd59aaacc",
    "resource": {
      "resourceType": "Encounter",
      "id": "2f58ad92-12a7-4dec-82de-cf5bd59aaacc",
      "meta": {
        "profile": [ "http://hl7.org/fhir/us/qicore/StructureDefinition/qicore-encounter" ]
      },
      "status": "finished",
      "class": {
        "system": "http://terminology.hl7.org/CodeSystem/v3-ActCode",
        "code": "IMP",
        "display": "inpatient encounter"
      },
      "type": [ {
        "coding": [ {
          "system": "http://snomed.info/sct",
          "code": "4525004"
        } ]
      } ],
      "subject": {
        "reference": "Patient/814eb904-2889-4c31-9dfe-5b682eb473a4"
      },
      "period": {
        "start": "2026-11-09T08:00:00.000+00:00",
        "end": "2026-11-09T10:15:00.000+00:00"
      }
    },
    "request": {
      "method": "PUT",
      "url": "Encounter/2f58ad92-12a7-4dec-82de-cf5bd59aaacc"
    }
  }, {
    "fullUrl": "https://madie.cms.gov/Condition/0d35e817-4a3b-478a-8910-ad3f3b69c6b2",
    "resource": {
      "resourceType": "Condition",
      "id": "0d35e817-4a3b-478a-8910-ad3f3b69c6b2",
      "meta": {
        "profile": [ "http://hl7.org/fhir/us/qicore/StructureDefinition/qicore-condition" ]
      },
      "clinicalStatus": {
        "coding": [ {
          "system": "http://terminology.hl7.org/CodeSystem/condition-clinical",
          "code": "active"
        } ]
      },
      "verificationStatus": {
        "coding": [ {
          "system": "http://terminology.hl7.org/CodeSystem/condition-ver-status",
          "code": "confirmed"
        } ]
      },
      "category": [ {
        "coding": [ {
          "system": "http://terminology.hl7.org/CodeSystem/condition-category",
          "code": "encounter-diagnosis",
          "display": "Encounter Diagnosis"
        } ]
      } ],
      "code": {
        "coding": [ {
          "system": "http://hl7.org/fhir/sid/icd-10-cm",
          "code": "S01.00XA"
        } ]
      },
      "subject": {
        "reference": "Patient/814eb904-2889-4c31-9dfe-5b682eb473a4"
      },
      "encounter": {
        "reference": "Encounter/b420c933-6bf2-4639-ad32-d4a714a348b5"
      }
    },
    "request": {
      "method": "PUT",
      "url": "Condition/0d35e817-4a3b-478a-8910-ad3f3b69c6b2"
    }
  }, {
    "fullUrl": "https://madie.cms.gov/Condition/111ff306-8934-48d1-95dc-a1e33dcbcf63",
    "resource": {
      "resourceType": "Condition",
      "id": "111ff306-8934-48d1-95dc-a1e33dcbcf63",
      "meta": {
        "profile": [ "http://hl7.org/fhir/us/qicore/StructureDefinition/qicore-condition" ]
      },
      "clinicalStatus": {
        "coding": [ {
          "system": "http://terminology.hl7.org/CodeSystem/condition-clinical",
          "code": "active"
        } ]
      },
      "verificationStatus": {
        "coding": [ {
          "system": "http://terminology.hl7.org/CodeSystem/condition-ver-status",
          "code": "confirmed"
        } ]
      },
      "category": [ {
        "coding": [ {
          "system": "http://terminology.hl7.org/CodeSystem/condition-category",
          "code": "encounter-diagnosis",
          "display": "Encounter Diagnosis"
        } ]
      } ],
      "code": {
        "coding": [ {
          "system": "http://snomed.info/sct",
          "code": "14047009"
        } ]
      },
      "subject": {
        "reference": "Patient/814eb904-2889-4c31-9dfe-5b682eb473a4"
      },
      "encounter": {
        "reference": "Encounter/b420c933-6bf2-4639-ad32-d4a714a348b5"
      }
    },
    "request": {
      "method": "PUT",
      "url": "Condition/111ff306-8934-48d1-95dc-a1e33dcbcf63"
    }
  }, {
    "fullUrl": "https://madie.cms.gov/Patient/814eb904-2889-4c31-9dfe-5b682eb473a4",
    "resource": {
      "resourceType": "Patient",
      "id": "814eb904-2889-4c31-9dfe-5b682eb473a4",
      "meta": {
        "profile": [ "http://hl7.org/fhir/us/qicore/StructureDefinition/qicore-patient" ]
      },
      "extension": [ {
        "url": "http://hl7.org/fhir/us/core/StructureDefinition/us-core-race",
        "extension": [ {
          "url": "ombCategory",
          "valueCoding": {
            "system": "urn:oid:2.16.840.1.113883.6.238",
            "code": "2054-5",
            "display": "Black or African American",
            "userSelected": true
          }
        }, {
          "url": "text",
          "valueString": "Black or African American"
        } ]
      }, {
        "url": "http://hl7.org/fhir/us/core/StructureDefinition/us-core-ethnicity",
        "extension": [ {
          "url": "ombCategory",
          "valueCoding": {
            "system": "urn:oid:2.16.840.1.113883.6.238",
            "code": "2186-5",
            "display": "Not Hispanic or Latino",
            "userSelected": true
          }
        }, {
          "url": "text",
          "valueString": "Not Hispanic or Latino"
        } ]
      } ],
      "identifier": [ {
        "type": {
          "coding": [ {
            "system": "http://terminology.hl7.org/CodeSystem/v2-0203",
            "code": "MR"
          } ]
        },
        "system": "https://bonnie-fhir.healthit.gov/",
        "value": "61152a3b98086b7a79cbd7c1"
      } ],
      "active": true,
      "name": [ {
        "use": "usual",
        "family": "IPPFail",
        "given": [ "Enc1FallPOAEnc2FallNPOAAndInjuryNPOA" ]
      } ],
      "gender": "male",
      "birthDate": "1994-11-30"
    },
    "request": {
      "method": "PUT",
      "url": "Patient/814eb904-2889-4c31-9dfe-5b682eb473a4"
    }
  }, {
    "fullUrl": "https://madie.cms.gov/MeasureReport/dd4aafcb-506c-447b-a253-2569d55e4aae",
    "resource": {
      "resourceType": "MeasureReport",
      "id": "dd4aafcb-506c-447b-a253-2569d55e4aae",
      "meta": {
        "profile": [ "http://hl7.org/fhir/us/cqfmeasures/StructureDefinition/test-case-cqfm" ]
      },
      "contained": [ {
        "resourceType": "Parameters",
        "id": "6a11067c-783d-4571-913d-8f3e6c1bcffd-parameters",
        "parameter": [ {
          "name": "subject",
          "valueString": "814eb904-2889-4c31-9dfe-5b682eb473a4"
        } ]
      } ],
      "extension": [ {
        "url": "http://hl7.org/fhir/StructureDefinition/cqf-inputParameters",
        "valueReference": {
          "reference": "#6a11067c-783d-4571-913d-8f3e6c1bcffd-parameters"
        }
      }, {
        "url": "http://hl7.org/fhir/us/cqfmeasures/StructureDefinition/cqfm-testCaseDescription",
        "valueMarkdown": "Encounter diagnosis includes both fall and major injury NPOA, but encounter ends 4 days after measurement period ends. IPP Fails."
      } ],
      "modifierExtension": [ {
        "url": "http://hl7.org/fhir/us/cqfmeasures/StructureDefinition/cqfm-isTestCase",
        "valueBoolean": true
      } ],
      "status": "complete",
      "type": "individual",
      "measure": "https://madie.cms.gov/Measure/CMS1017FHIRHHFI",
      "period": {
        "start": "2026-01-01",
        "end": "2026-12-31"
      },
      "group": [ {
        "id": "Group_1",
        "population": [ {
          "id": "InitialPopulation_1",
          "code": {
            "coding": [ {
              "system": "http://terminology.hl7.org/CodeSystem/measure-population",
              "code": "initial-population",
              "display": "Initial Population"
            } ]
          },
          "count": 0
        }, {
          "id": "Denominator_1",
          "code": {
            "coding": [ {
              "system": "http://terminology.hl7.org/CodeSystem/measure-population",
              "code": "denominator",
              "display": "Denominator"
            } ]
          },
          "count": 0
        }, {
          "id": "DenominatorExclusion_1",
          "code": {
            "coding": [ {
              "system": "http://terminology.hl7.org/CodeSystem/measure-population",
              "code": "denominator-exclusion",
              "display": "Denominator Exclusion"
            } ]
          },
          "count": 0
        }, {
          "id": "Numerator_1",
          "code": {
            "coding": [ {
              "system": "http://terminology.hl7.org/CodeSystem/measure-population",
              "code": "numerator",
              "display": "Numerator"
            } ]
          },
          "count": 0
        }, {
          "id": "NumeratorExclusion_1",
          "code": {
            "coding": [ {
              "system": "http://terminology.hl7.org/CodeSystem/measure-population",
              "code": "numerator-exclusion",
              "display": "Numerator Exclusion"
            } ]
          },
          "count": 0
        } ],
        "measureScore": {
          "value": 0.0
        }
      } ],
      "evaluatedResource": [ {
        "reference": "Encounter/b420c933-6bf2-4639-ad32-d4a714a348b5"
      }, {
        "reference": "Encounter/2f58ad92-12a7-4dec-82de-cf5bd59aaacc"
      }, {
        "reference": "Condition/0d35e817-4a3b-478a-8910-ad3f3b69c6b2"
      }, {
        "reference": "Condition/111ff306-8934-48d1-95dc-a1e33dcbcf63"
      }, {
        "reference": "Patient/814eb904-2889-4c31-9dfe-5b682eb473a4"
      } ]
    },
    "request": {
      "method": "PUT",
      "url": "MeasureReport/dd4aafcb-506c-447b-a253-2569d55e4aae"
    }
  } ]
}