{
  "resourceType": "Bundle",
  "id": "NUMPass-AutonomousEyeExamJan1OfMP",
  "type": "transaction",
  "entry": [ {
    "fullUrl": "https://madie.cms.gov/Patient/51f41079-0dc3-4da2-86e5-d1360f936ca3",
    "resource": {
      "resourceType": "Patient",
      "id": "51f41079-0dc3-4da2-86e5-d1360f936ca3",
      "meta": {
        "profile": [ "http://hl7.org/fhir/us/qicore/StructureDefinition/qicore-patient" ]
      },
      "extension": [ {
        "url": "http://hl7.org/fhir/us/core/StructureDefinition/us-core-race",
        "extension": [ {
          "url": "ombCategory",
          "valueCoding": {
            "system": "urn:oid:2.16.840.1.113883.6.238",
            "code": "2028-9",
            "display": "Asian",
            "userSelected": true
          }
        }, {
          "url": "text",
          "valueString": "Asian"
        } ]
      }, {
        "url": "http://hl7.org/fhir/us/core/StructureDefinition/us-core-ethnicity",
        "extension": [ {
          "url": "ombCategory",
          "valueCoding": {
            "system": "urn:oid:2.16.840.1.113883.6.238",
            "code": "2135-2",
            "display": "Hispanic or Latino",
            "userSelected": true
          }
        }, {
          "url": "text",
          "valueString": "Hispanic or Latino"
        } ]
      } ],
      "identifier": [ {
        "type": {
          "coding": [ {
            "system": "http://terminology.hl7.org/CodeSystem/v2-0203",
            "code": "MR"
          } ]
        },
        "system": "http://hospital.smarthealthit.org",
        "value": "999999995"
      } ],
      "name": [ {
        "family": "Bertha",
        "given": [ "Betty" ]
      } ],
      "gender": "female",
      "birthDate": "2007-12-31"
    },
    "request": {
      "method": "PUT",
      "url": "Patient/51f41079-0dc3-4da2-86e5-d1360f936ca3"
    }
  }, {
    "fullUrl": "https://madie.cms.gov/Encounter/374c865b-006d-42d2-a775-681771021c84",
    "resource": {
      "resourceType": "Encounter",
      "id": "374c865b-006d-42d2-a775-681771021c84",
      "meta": {
        "profile": [ "http://hl7.org/fhir/us/qicore/StructureDefinition/qicore-encounter" ]
      },
      "status": "finished",
      "class": {
        "system": "http://terminology.hl7.org/CodeSystem/v3-ActCode",
        "code": "AMB",
        "display": "ambulatory"
      },
      "type": [ {
        "coding": [ {
          "system": "http://snomed.info/sct",
          "code": "185463005",
          "display": "Visit out of hours (procedure)"
        } ]
      } ],
      "subject": {
        "reference": "Patient/51f41079-0dc3-4da2-86e5-d1360f936ca3"
      },
      "period": {
        "start": "2026-01-01T00:00:00.000+00:00",
        "end": "2026-01-01T00:00:00.000+00:00"
      }
    },
    "request": {
      "method": "PUT",
      "url": "Encounter/374c865b-006d-42d2-a775-681771021c84"
    }
  }, {
    "fullUrl": "https://madie.cms.gov/Condition/0d3b4f3c-58cf-4230-8616-0407ce3f1f84",
    "resource": {
      "resourceType": "Condition",
      "id": "0d3b4f3c-58cf-4230-8616-0407ce3f1f84",
      "meta": {
        "profile": [ "http://hl7.org/fhir/us/qicore/StructureDefinition/qicore-condition-encounter-diagnosis" ]
      },
      "clinicalStatus": {
        "coding": [ {
          "system": "http://terminology.hl7.org/CodeSystem/condition-clinical",
          "code": "active"
        } ]
      },
      "category": [ {
        "coding": [ {
          "system": "http://terminology.hl7.org/CodeSystem/condition-category",
          "code": "encounter-diagnosis",
          "display": "Encounter Diagnosis"
        } ]
      } ],
      "code": {
        "coding": [ {
          "system": "http://snomed.info/sct",
          "code": "102781000119107",
          "display": "Sensory neuropathy due to type 1 diabetes mellitus (disorder)"
        } ]
      },
      "subject": {
        "reference": "Patient/51f41079-0dc3-4da2-86e5-d1360f936ca3"
      },
      "onsetDateTime": "2026-01-01T00:00:00.000+00:00"
    },
    "request": {
      "method": "PUT",
      "url": "Condition/0d3b4f3c-58cf-4230-8616-0407ce3f1f84"
    }
  }, {
    "fullUrl": "https://madie.cms.gov/Observation/c1f626e0-73d1-4bbf-9994-28feae4b34a4",
    "resource": {
      "resourceType": "Observation",
      "id": "c1f626e0-73d1-4bbf-9994-28feae4b34a4",
      "meta": {
        "profile": [ "http://hl7.org/fhir/us/qicore/StructureDefinition/qicore-observation-clinical-result" ]
      },
      "status": "final",
      "category": [ {
        "coding": [ {
          "system": "http://terminology.hl7.org/CodeSystem/observation-category",
          "code": "exam"
        } ]
      } ],
      "code": {
        "coding": [ {
          "system": "http://loinc.org",
          "code": "105914-6",
          "display": "Eye Diabetic retinopathy screening Autonomous artificial intelligence"
        } ]
      },
      "subject": {
        "reference": "Patient/51f41079-0dc3-4da2-86e5-d1360f936ca3"
      },
      "effectivePeriod": {
        "start": "2026-01-01T00:00:00.000+00:00",
        "end": "2026-01-01T00:00:00.000+00:00"
      },
      "valueCodeableConcept": {
        "coding": [ {
          "system": "http://loinc.org",
          "code": "LA34398-0",
          "display": "ETDRS Level 20 or lower, without macular edema"
        } ]
      }
    },
    "request": {
      "method": "PUT",
      "url": "Observation/c1f626e0-73d1-4bbf-9994-28feae4b34a4"
    }
  }, {
    "fullUrl": "https://madie.cms.gov/MeasureReport/6d561ec1-4866-4aee-9308-1bc86e2a08cb",
    "resource": {
      "resourceType": "MeasureReport",
      "id": "6d561ec1-4866-4aee-9308-1bc86e2a08cb",
      "meta": {
        "profile": [ "http://hl7.org/fhir/us/cqfmeasures/StructureDefinition/test-case-cqfm" ]
      },
      "contained": [ {
        "resourceType": "Parameters",
        "id": "d41fa739-593c-4f25-9202-ae90c1a02b9d-parameters",
        "parameter": [ {
          "name": "subject",
          "valueString": "51f41079-0dc3-4da2-86e5-d1360f936ca3"
        } ]
      } ],
      "extension": [ {
        "url": "http://hl7.org/fhir/StructureDefinition/cqf-inputParameters",
        "valueReference": {
          "reference": "#d41fa739-593c-4f25-9202-ae90c1a02b9d-parameters"
        }
      }, {
        "url": "http://hl7.org/fhir/us/cqfmeasures/StructureDefinition/cqfm-testCaseDescription",
        "valueMarkdown": "Patient 18yo w/ an Office Visit Encounter, Diabetes Condition ending 1/1 during the MP, & an Autonomous Eye Exam Observation 1/1 of the MP."
      } ],
      "modifierExtension": [ {
        "url": "http://hl7.org/fhir/us/cqfmeasures/StructureDefinition/cqfm-isTestCase",
        "valueBoolean": true
      } ],
      "status": "complete",
      "type": "individual",
      "measure": "https://madie.cms.gov/Measure/CMS131FHIRDiabetesEyeExam",
      "period": {
        "start": "2026-01-01",
        "end": "2026-12-31"
      },
      "group": [ {
        "id": "Group_1",
        "population": [ {
          "id": "InitialPopulation_1",
          "code": {
            "coding": [ {
              "system": "http://terminology.hl7.org/CodeSystem/measure-population",
              "code": "initial-population",
              "display": "Initial Population"
            } ]
          },
          "count": 1
        }, {
          "id": "Denominator_1",
          "code": {
            "coding": [ {
              "system": "http://terminology.hl7.org/CodeSystem/measure-population",
              "code": "denominator",
              "display": "Denominator"
            } ]
          },
          "count": 1
        }, {
          "id": "DenominatorExclusion_1",
          "code": {
            "coding": [ {
              "system": "http://terminology.hl7.org/CodeSystem/measure-population",
              "code": "denominator-exclusion",
              "display": "Denominator Exclusion"
            } ]
          },
          "count": 0
        }, {
          "id": "Numerator_1",
          "code": {
            "coding": [ {
              "system": "http://terminology.hl7.org/CodeSystem/measure-population",
              "code": "numerator",
              "display": "Numerator"
            } ]
          },
          "count": 1
        } ],
        "measureScore": {
          "value": 1.0
        }
      } ],
      "evaluatedResource": [ {
        "reference": "Patient/51f41079-0dc3-4da2-86e5-d1360f936ca3"
      }, {
        "reference": "Encounter/374c865b-006d-42d2-a775-681771021c84"
      }, {
        "reference": "Condition/0d3b4f3c-58cf-4230-8616-0407ce3f1f84"
      }, {
        "reference": "Observation/c1f626e0-73d1-4bbf-9994-28feae4b34a4"
      } ]
    },
    "request": {
      "method": "PUT",
      "url": "MeasureReport/6d561ec1-4866-4aee-9308-1bc86e2a08cb"
    }
  } ]
}