{
  "resourceType": "Bundle",
  "id": "64137cbf4b11b147841ab900",
  "type": "transaction",
  "entry": [ {
    "fullUrl": "https://madie.cms.gov/Patient/ae52c591-1a71-4090-aeeb-2dd758f63ce4",
    "resource": {
      "resourceType": "Patient",
      "id": "ae52c591-1a71-4090-aeeb-2dd758f63ce4",
      "meta": {
        "profile": [ "http://hl7.org/fhir/us/qicore/StructureDefinition/qicore-patient" ]
      },
      "extension": [ {
        "url": "http://hl7.org/fhir/us/core/StructureDefinition/us-core-race",
        "extension": [ {
          "url": "ombCategory",
          "valueCoding": {
            "system": "urn:oid:2.16.840.1.113883.6.238",
            "code": "2076-8",
            "display": "Native Hawaiian or Other Pacific Islander",
            "userSelected": true
          }
        }, {
          "url": "text",
          "valueString": "Native Hawaiian or Other Pacific Islander"
        } ]
      }, {
        "url": "http://hl7.org/fhir/us/core/StructureDefinition/us-core-ethnicity",
        "extension": [ {
          "url": "ombCategory",
          "valueCoding": {
            "system": "urn:oid:2.16.840.1.113883.6.238",
            "code": "2186-5",
            "display": "Not Hispanic or Latino",
            "userSelected": true
          }
        }, {
          "url": "text",
          "valueString": "Not Hispanic or Latino"
        } ]
      } ],
      "identifier": [ {
        "type": {
          "coding": [ {
            "system": "http://terminology.hl7.org/CodeSystem/v2-0203",
            "code": "MR"
          } ]
        },
        "system": "https://bonnie-fhir.healthit.gov/",
        "value": "64137cbf4b11b147841ab900"
      } ],
      "name": [ {
        "family": "DENOMPass",
        "given": [ "MutlipeEncounterDiagnosis" ]
      } ],
      "gender": "female",
      "birthDate": "1999-01-01"
    },
    "request": {
      "method": "PUT",
      "url": "Patient/ae52c591-1a71-4090-aeeb-2dd758f63ce4"
    }
  }, {
    "fullUrl": "https://madie.cms.gov/Condition/6aaa7a00-74f9-4eb5-a587-b505f4142c96",
    "resource": {
      "resourceType": "Condition",
      "id": "6aaa7a00-74f9-4eb5-a587-b505f4142c96",
      "meta": {
        "profile": [ "http://hl7.org/fhir/us/qicore/StructureDefinition/qicore-condition-encounter-diagnosis" ]
      },
      "clinicalStatus": {
        "coding": [ {
          "system": "http://terminology.hl7.org/CodeSystem/condition-clinical",
          "code": "active",
          "display": "active",
          "userSelected": true
        } ]
      },
      "category": [ {
        "coding": [ {
          "system": "http://terminology.hl7.org/CodeSystem/condition-category",
          "code": "encounter-diagnosis",
          "display": "Encounter Diagnosis",
          "userSelected": true
        } ]
      } ],
      "code": {
        "coding": [ {
          "system": "http://snomed.info/sct",
          "version": "2021-09",
          "code": "102781000119107",
          "display": "Sensory neuropathy due to type 1 diabetes mellitus (disorder)",
          "userSelected": true
        } ]
      },
      "subject": {
        "reference": "Patient/ae52c591-1a71-4090-aeeb-2dd758f63ce4"
      },
      "onsetDateTime": "2023-06-16T08:00:00.000+00:00"
    },
    "request": {
      "method": "PUT",
      "url": "Condition/6aaa7a00-74f9-4eb5-a587-b505f4142c96"
    }
  }, {
    "fullUrl": "https://madie.cms.gov/Encounter/7b223f0f-46bd-467c-932a-01167b4635cd",
    "resource": {
      "resourceType": "Encounter",
      "id": "7b223f0f-46bd-467c-932a-01167b4635cd",
      "meta": {
        "profile": [ "http://hl7.org/fhir/us/qicore/StructureDefinition/qicore-encounter" ]
      },
      "status": "finished",
      "class": {
        "system": "http://terminology.hl7.org/CodeSystem/v3-ActCode",
        "code": "AMB",
        "display": "ambulatory",
        "userSelected": true
      },
      "type": [ {
        "coding": [ {
          "system": "http://snomed.info/sct",
          "version": "2021-09",
          "code": "185460008",
          "display": "Home visit request by patient (procedure)",
          "userSelected": true
        } ]
      } ],
      "subject": {
        "reference": "Patient/ae52c591-1a71-4090-aeeb-2dd758f63ce4"
      },
      "period": {
        "start": "2026-02-15T08:00:00.000+00:00",
        "end": "2026-02-15T08:15:00.000+00:00"
      }
    },
    "request": {
      "method": "PUT",
      "url": "Encounter/7b223f0f-46bd-467c-932a-01167b4635cd"
    }
  }, {
    "fullUrl": "https://madie.cms.gov/Encounter/06f3e109-3685-4936-9e6f-fa4760336ec3",
    "resource": {
      "resourceType": "Encounter",
      "id": "06f3e109-3685-4936-9e6f-fa4760336ec3",
      "meta": {
        "profile": [ "http://hl7.org/fhir/us/qicore/StructureDefinition/qicore-encounter" ]
      },
      "status": "finished",
      "class": {
        "system": "http://terminology.hl7.org/CodeSystem/v3-ActCode",
        "code": "AMB",
        "display": "ambulatory",
        "userSelected": true
      },
      "type": [ {
        "coding": [ {
          "system": "http://snomed.info/sct",
          "version": "2021-09",
          "code": "185317003",
          "display": "Telephone encounter (procedure)",
          "userSelected": true
        } ]
      } ],
      "subject": {
        "reference": "Patient/ae52c591-1a71-4090-aeeb-2dd758f63ce4"
      },
      "period": {
        "start": "2026-03-07T08:00:00.000+00:00",
        "end": "2026-03-07T08:15:00.000+00:00"
      }
    },
    "request": {
      "method": "PUT",
      "url": "Encounter/06f3e109-3685-4936-9e6f-fa4760336ec3"
    }
  }, {
    "fullUrl": "https://madie.cms.gov/MeasureReport/9fca972d-a76d-4d44-a58e-5e10bceb6aa2",
    "resource": {
      "resourceType": "MeasureReport",
      "id": "9fca972d-a76d-4d44-a58e-5e10bceb6aa2",
      "meta": {
        "profile": [ "http://hl7.org/fhir/us/cqfmeasures/StructureDefinition/test-case-cqfm" ]
      },
      "contained": [ {
        "resourceType": "Parameters",
        "id": "241974f0-eb50-45e0-8a83-104ec6c4bee0-parameters",
        "parameter": [ {
          "name": "subject",
          "valueString": "ae52c591-1a71-4090-aeeb-2dd758f63ce4"
        } ]
      } ],
      "extension": [ {
        "url": "http://hl7.org/fhir/StructureDefinition/cqf-inputParameters",
        "valueReference": {
          "reference": "#241974f0-eb50-45e0-8a83-104ec6c4bee0-parameters"
        }
      }, {
        "url": "http://hl7.org/fhir/us/cqfmeasures/StructureDefinition/cqfm-testCaseDescription",
        "valueMarkdown": "This patient is 27. Have multiple qualifying encounters and diagnosis\n"
      } ],
      "modifierExtension": [ {
        "url": "http://hl7.org/fhir/us/cqfmeasures/StructureDefinition/cqfm-isTestCase",
        "valueBoolean": true
      } ],
      "status": "complete",
      "type": "individual",
      "measure": "https://madie.cms.gov/Measure/CMS951FHIRKidneyHealthEval",
      "period": {
        "start": "2026-01-01",
        "end": "2026-12-31"
      },
      "group": [ {
        "id": "Group_1",
        "population": [ {
          "id": "InitialPopulation_1",
          "code": {
            "coding": [ {
              "system": "http://terminology.hl7.org/CodeSystem/measure-population",
              "code": "initial-population",
              "display": "Initial Population"
            } ]
          },
          "count": 1
        }, {
          "id": "Denominator_1",
          "code": {
            "coding": [ {
              "system": "http://terminology.hl7.org/CodeSystem/measure-population",
              "code": "denominator",
              "display": "Denominator"
            } ]
          },
          "count": 1
        }, {
          "id": "DenominatorExclusion_1",
          "code": {
            "coding": [ {
              "system": "http://terminology.hl7.org/CodeSystem/measure-population",
              "code": "denominator-exclusion",
              "display": "Denominator Exclusion"
            } ]
          },
          "count": 0
        }, {
          "id": "Numerator_1",
          "code": {
            "coding": [ {
              "system": "http://terminology.hl7.org/CodeSystem/measure-population",
              "code": "numerator",
              "display": "Numerator"
            } ]
          },
          "count": 0
        } ],
        "measureScore": {
          "value": 1.0
        }
      } ],
      "evaluatedResource": [ {
        "reference": "Patient/ae52c591-1a71-4090-aeeb-2dd758f63ce4"
      }, {
        "reference": "Condition/6aaa7a00-74f9-4eb5-a587-b505f4142c96"
      }, {
        "reference": "Encounter/7b223f0f-46bd-467c-932a-01167b4635cd"
      }, {
        "reference": "Encounter/06f3e109-3685-4936-9e6f-fa4760336ec3"
      } ]
    },
    "request": {
      "method": "PUT",
      "url": "MeasureReport/9fca972d-a76d-4d44-a58e-5e10bceb6aa2"
    }
  } ]
}