{
  "resourceType": "Bundle",
  "id": "64932be0db8e0b7f4765f16e",
  "type": "collection",
  "entry": [ {
    "fullUrl": "https://madie.cms.gov/Patient/716d4ddd-aa73-48ea-b17a-7b037b76634e",
    "resource": {
      "resourceType": "Patient",
      "id": "716d4ddd-aa73-48ea-b17a-7b037b76634e",
      "meta": {
        "profile": [ "http://hl7.org/fhir/us/qicore/StructureDefinition/qicore-patient" ]
      },
      "extension": [ {
        "url": "http://hl7.org/fhir/us/core/StructureDefinition/us-core-race",
        "extension": [ {
          "url": "ombCategory",
          "valueCoding": {
            "system": "urn:oid:2.16.840.1.113883.6.238",
            "code": "2054-5",
            "display": "Black or African American",
            "userSelected": true
          }
        }, {
          "url": "text",
          "valueString": "Black or African American"
        } ]
      }, {
        "url": "http://hl7.org/fhir/us/core/StructureDefinition/us-core-ethnicity",
        "extension": [ {
          "url": "ombCategory",
          "valueCoding": {
            "system": "urn:oid:2.16.840.1.113883.6.238",
            "code": "2186-5",
            "display": "Not Hispanic or Latino",
            "userSelected": true
          }
        }, {
          "url": "text",
          "valueString": "Not Hispanic or Latino"
        } ]
      } ],
      "identifier": [ {
        "type": {
          "coding": [ {
            "system": "http://terminology.hl7.org/CodeSystem/v2-0203",
            "code": "MR"
          } ]
        },
        "system": "https://bonnie-fhir.healthit.gov/",
        "value": "64932be0db8e0b7f4765f16e"
      } ],
      "name": [ {
        "family": "IPFail",
        "given": [ "AgeUnder13" ]
      } ],
      "gender": "female",
      "birthDate": "2015-02-04"
    }
  }, {
    "fullUrl": "https://madie.cms.gov/Condition/e0524b72-c5cb-4399-8092-2fbc121e5051",
    "resource": {
      "resourceType": "Condition",
      "id": "e0524b72-c5cb-4399-8092-2fbc121e5051",
      "meta": {
        "profile": [ "http://hl7.org/fhir/us/qicore/StructureDefinition/qicore-condition-problems-health-concerns" ]
      },
      "category": [ {
        "coding": [ {
          "system": "http://terminology.hl7.org/CodeSystem/condition-category",
          "code": "problem-list-item",
          "display": "Problem List Item"
        } ]
      } ],
      "code": {
        "coding": [ {
          "system": "http://hl7.org/fhir/sid/icd-9-cm",
          "version": "2013",
          "code": "042",
          "display": "Human immunodeficiency virus [HIV] disease",
          "userSelected": true
        }, {
          "system": "http://snomed.info/sct",
          "version": "http://snomed.info/sct/731000124108/version/20250301",
          "code": "165816005",
          "userSelected": true
        } ]
      },
      "subject": {
        "reference": "Patient/716d4ddd-aa73-48ea-b17a-7b037b76634e"
      },
      "onsetDateTime": "2018-09-28T08:00:00.000+00:00",
      "recordedDate": "2018-09-28T08:00:00.000+00:00"
    }
  }, {
    "fullUrl": "https://madie.cms.gov/Encounter/6d080733-ad3d-48fc-8b77-7bde9076775d",
    "resource": {
      "resourceType": "Encounter",
      "id": "6d080733-ad3d-48fc-8b77-7bde9076775d",
      "meta": {
        "profile": [ "http://hl7.org/fhir/us/qicore/StructureDefinition/qicore-encounter" ]
      },
      "status": "finished",
      "class": {
        "system": "http://terminology.hl7.org/CodeSystem/v3-ActCode",
        "code": "AMB",
        "display": "ambulatory"
      },
      "type": [ {
        "coding": [ {
          "system": "http://snomed.info/sct",
          "code": "270427003",
          "userSelected": true
        } ]
      } ],
      "subject": {
        "reference": "Patient/716d4ddd-aa73-48ea-b17a-7b037b76634e"
      },
      "period": {
        "start": "2026-09-28T08:00:00.000+00:00",
        "end": "2026-09-28T08:30:00.000+00:00"
      }
    }
  }, {
    "fullUrl": "https://madie.cms.gov/Coverage/97fc9d94-3401-4e1a-93eb-58acb66cebfd",
    "resource": {
      "resourceType": "Coverage",
      "id": "97fc9d94-3401-4e1a-93eb-58acb66cebfd",
      "meta": {
        "profile": [ "http://hl7.org/fhir/us/qicore/StructureDefinition/qicore-coverage" ]
      },
      "status": "active",
      "subscriberId": "123456",
      "beneficiary": {
        "reference": "Patient/716d4ddd-aa73-48ea-b17a-7b037b76634e"
      },
      "relationship": {
        "coding": [ {
          "system": "http://terminology.hl7.org/CodeSystem/subscriber-relationship",
          "code": "self",
          "display": "Self"
        } ]
      },
      "payor": [ {
        "reference": "Organization/b307bfe5-68e2-4c6b-83d6-c866a64ff1f7"
      } ]
    }
  }, {
    "fullUrl": "https://madie.cms.gov/Organization/b307bfe5-68e2-4c6b-83d6-c866a64ff1f7",
    "resource": {
      "resourceType": "Organization",
      "id": "b307bfe5-68e2-4c6b-83d6-c866a64ff1f7",
      "meta": {
        "profile": [ "http://hl7.org/fhir/us/qicore/StructureDefinition/qicore-organization" ]
      },
      "identifier": [ {
        "use": "temp",
        "system": "urn:oid:2.16.840.1.113883.4.4",
        "value": "21-3259825"
      } ],
      "active": true,
      "type": [ {
        "coding": [ {
          "system": "http://terminology.hl7.org/CodeSystem/organization-type",
          "code": "pay",
          "display": "Payer"
        } ]
      } ],
      "name": "Blue Cross Blue Shield of Texas",
      "telecom": [ {
        "system": "phone",
        "value": "(+1) 972-766-6900"
      } ],
      "address": [ {
        "use": "billing",
        "type": "postal",
        "line": [ "P.O. Box 660044" ],
        "city": "Dallas",
        "state": "TX",
        "postalCode": "75266-0044",
        "country": "USA"
      } ]
    }
  }, {
    "fullUrl": "https://madie.cms.gov/Practitioner/5a7ac204-64f0-4892-8472-38d0995e72d4",
    "resource": {
      "resourceType": "Practitioner",
      "id": "5a7ac204-64f0-4892-8472-38d0995e72d4",
      "meta": {
        "profile": [ "http://hl7.org/fhir/us/qicore/StructureDefinition/qicore-practitioner" ]
      },
      "identifier": [ {
        "system": "http://hl7.org/fhir/sid/us-npi",
        "value": "1689411712"
      } ],
      "name": [ {
        "family": "Evil",
        "prefix": [ "Dr" ]
      } ]
    }
  }, {
    "fullUrl": "https://madie.cms.gov/MeasureReport/c9fd081c-f56a-4088-b391-2d1cb6d9205f",
    "resource": {
      "resourceType": "MeasureReport",
      "id": "c9fd081c-f56a-4088-b391-2d1cb6d9205f",
      "meta": {
        "profile": [ "http://hl7.org/fhir/us/cqfmeasures/StructureDefinition/test-case-cqfm" ]
      },
      "contained": [ {
        "resourceType": "Parameters",
        "id": "76a29f7f-add0-4de0-a141-f5c073980761-parameters",
        "parameter": [ {
          "name": "subject",
          "valueString": "716d4ddd-aa73-48ea-b17a-7b037b76634e"
        } ]
      } ],
      "extension": [ {
        "url": "http://hl7.org/fhir/StructureDefinition/cqf-inputParameters",
        "valueReference": {
          "reference": "#76a29f7f-add0-4de0-a141-f5c073980761-parameters"
        }
      }, {
        "url": "http://hl7.org/fhir/us/cqfmeasures/StructureDefinition/cqfm-testCaseDescription",
        "valueMarkdown": "Patient is under 13 years old"
      } ],
      "modifierExtension": [ {
        "url": "http://hl7.org/fhir/us/cqfmeasures/StructureDefinition/cqfm-isTestCase",
        "valueBoolean": true
      } ],
      "status": "complete",
      "type": "individual",
      "measure": "https://madie.cms.gov/Measure/CMS1188FHIRHIVSTITesting",
      "period": {
        "start": "2026-01-01",
        "end": "2026-12-31"
      },
      "group": [ {
        "id": "Group_1",
        "population": [ {
          "id": "InitialPopulation_1",
          "code": {
            "coding": [ {
              "system": "http://terminology.hl7.org/CodeSystem/measure-population",
              "code": "initial-population",
              "display": "Initial Population"
            } ]
          },
          "count": 0
        }, {
          "id": "Denominator_1",
          "code": {
            "coding": [ {
              "system": "http://terminology.hl7.org/CodeSystem/measure-population",
              "code": "denominator",
              "display": "Denominator"
            } ]
          },
          "count": 0
        }, {
          "id": "Numerator_1",
          "code": {
            "coding": [ {
              "system": "http://terminology.hl7.org/CodeSystem/measure-population",
              "code": "numerator",
              "display": "Numerator"
            } ]
          },
          "count": 0
        } ],
        "measureScore": {
          "value": 1.0
        }
      } ],
      "evaluatedResource": [ {
        "reference": "Patient/716d4ddd-aa73-48ea-b17a-7b037b76634e"
      }, {
        "reference": "Condition/e0524b72-c5cb-4399-8092-2fbc121e5051"
      }, {
        "reference": "Encounter/6d080733-ad3d-48fc-8b77-7bde9076775d"
      }, {
        "reference": "Coverage/97fc9d94-3401-4e1a-93eb-58acb66cebfd"
      }, {
        "reference": "Organization/b307bfe5-68e2-4c6b-83d6-c866a64ff1f7"
      }, {
        "reference": "Practitioner/5a7ac204-64f0-4892-8472-38d0995e72d4"
      } ]
    }
  } ]
}