{
  "resourceType": "Bundle",
  "id": "633c9d040968f8012250fcad",
  "type": "transaction",
  "entry": [ {
    "fullUrl": "https://madie.cms.gov/Patient/fd13e14c-cd97-4e81-9a69-e638b0a1fa58",
    "resource": {
      "resourceType": "Patient",
      "id": "fd13e14c-cd97-4e81-9a69-e638b0a1fa58",
      "meta": {
        "profile": [ "http://hl7.org/fhir/us/qicore/StructureDefinition/qicore-patient" ]
      },
      "text": {
        "status": "generated",
        "div": "<div xmlns=\"http://www.w3.org/1999/xhtml\"><div class=\"hapiHeaderText\">MultipleIPEncounter <b>IPPFAIL </b></div><table class=\"hapiPropertyTable\"><tbody><tr><td>Identifier</td><td>946910ea4598e45468b2565ed3cdbc9e</td></tr><tr><td>Date of birth</td><td><span>01 December 1960</span></td></tr></tbody></table></div>"
      },
      "extension": [ {
        "url": "http://hl7.org/fhir/us/core/StructureDefinition/us-core-race",
        "extension": [ {
          "url": "ombCategory",
          "valueCoding": {
            "system": "urn:oid:2.16.840.1.113883.6.238",
            "code": "1002-5",
            "display": "American Indian or Alaska Native",
            "userSelected": true
          }
        }, {
          "url": "text",
          "valueString": "American Indian or Alaska Native"
        } ]
      }, {
        "url": "http://hl7.org/fhir/us/core/StructureDefinition/us-core-ethnicity",
        "extension": [ {
          "url": "ombCategory",
          "valueCoding": {
            "system": "urn:oid:2.16.840.1.113883.6.238",
            "code": "2135-2",
            "display": "Hispanic or Latino",
            "userSelected": true
          }
        }, {
          "url": "text",
          "valueString": "Hispanic or Latino"
        } ]
      } ],
      "identifier": [ {
        "type": {
          "coding": [ {
            "system": "http://terminology.hl7.org/CodeSystem/v2-0203",
            "code": "MR"
          } ]
        },
        "system": "https://bonnie-fhir.healthit.gov/",
        "value": "633c9d040968f8012250fcad"
      } ],
      "active": true,
      "name": [ {
        "use": "usual",
        "family": "IPPFail",
        "given": [ "MultipleIPEncounter" ]
      } ],
      "gender": "male",
      "birthDate": "1961-12-01"
    },
    "request": {
      "method": "PUT",
      "url": "Patient/fd13e14c-cd97-4e81-9a69-e638b0a1fa58"
    }
  }, {
    "fullUrl": "https://madie.cms.gov/Encounter/fe521e1b-2900-4623-abb2-2e3bd90b9754",
    "resource": {
      "resourceType": "Encounter",
      "id": "fe521e1b-2900-4623-abb2-2e3bd90b9754",
      "meta": {
        "profile": [ "http://hl7.org/fhir/us/qicore/StructureDefinition/qicore-encounter" ]
      },
      "status": "finished",
      "class": {
        "system": "http://terminology.hl7.org/CodeSystem/v3-ActCode",
        "code": "EMER",
        "display": "emergency"
      },
      "type": [ {
        "coding": [ {
          "system": "http://snomed.info/sct",
          "code": "4525004"
        } ]
      } ],
      "subject": {
        "reference": "Patient/fd13e14c-cd97-4e81-9a69-e638b0a1fa58"
      },
      "period": {
        "start": "2026-02-08T08:00:00.000+00:00",
        "end": "2026-02-08T08:15:00.000+00:00"
      },
      "length": {
        "value": 0,
        "unit": "days"
      },
      "reasonReference": [ {
        "reference": "Condition/3dd8bbf9-8fe6-4c2e-ac9d-d457906ec7af"
      } ]
    },
    "request": {
      "method": "PUT",
      "url": "Encounter/fe521e1b-2900-4623-abb2-2e3bd90b9754"
    }
  }, {
    "fullUrl": "https://madie.cms.gov/Encounter/e536ec5a-92fa-4f7b-9620-585bdb476ac8",
    "resource": {
      "resourceType": "Encounter",
      "id": "e536ec5a-92fa-4f7b-9620-585bdb476ac8",
      "meta": {
        "profile": [ "http://hl7.org/fhir/us/qicore/StructureDefinition/qicore-encounter" ]
      },
      "status": "finished",
      "class": {
        "system": "http://terminology.hl7.org/CodeSystem/v3-ActCode",
        "code": "IMP",
        "display": "inpatient encounter"
      },
      "type": [ {
        "coding": [ {
          "system": "http://snomed.info/sct",
          "code": "183452005"
        } ]
      } ],
      "subject": {
        "reference": "Patient/fd13e14c-cd97-4e81-9a69-e638b0a1fa58"
      },
      "period": {
        "start": "2026-02-08T08:20:00.000+00:00",
        "end": "2026-02-10T08:15:00.000+00:00"
      },
      "reasonReference": [ {
        "reference": "Condition/a274539d-eebf-4f0e-a395-923b4e3958a2"
      } ]
    },
    "request": {
      "method": "PUT",
      "url": "Encounter/e536ec5a-92fa-4f7b-9620-585bdb476ac8"
    }
  }, {
    "fullUrl": "https://madie.cms.gov/Encounter/8415761f-e52d-4b02-8a2b-d10840fca231",
    "resource": {
      "resourceType": "Encounter",
      "id": "8415761f-e52d-4b02-8a2b-d10840fca231",
      "meta": {
        "profile": [ "http://hl7.org/fhir/us/qicore/StructureDefinition/qicore-encounter" ]
      },
      "status": "finished",
      "class": {
        "system": "http://terminology.hl7.org/CodeSystem/v3-ActCode",
        "code": "IMP",
        "display": "inpatient encounter"
      },
      "type": [ {
        "coding": [ {
          "system": "http://snomed.info/sct",
          "code": "183452005"
        } ]
      } ],
      "subject": {
        "reference": "Patient/fd13e14c-cd97-4e81-9a69-e638b0a1fa58"
      },
      "period": {
        "start": "2026-02-07T08:00:00.000+00:00",
        "end": "2026-02-11T08:15:00.000+00:00"
      }
    },
    "request": {
      "method": "PUT",
      "url": "Encounter/8415761f-e52d-4b02-8a2b-d10840fca231"
    }
  }, {
    "fullUrl": "https://madie.cms.gov/claim/5ca62962b8484628b8de1ec5",
    "resource": {
      "resourceType": "Claim",
      "id": "5ca62962b8484628b8de1ec5",
      "meta": {
        "profile": [ "http://hl7.org/fhir/us/qicore/StructureDefinition/qicore-claim" ]
      },
      "status": "active",
      "type": {
        "coding": [ {
          "system": "http://terminology.hl7.org/CodeSystem/claim-type",
          "code": "institutional"
        } ]
      },
      "use": "claim",
      "patient": {
        "reference": "Patient/d170a0a8-b5ad-4303-b6df-e304dd5f92ad"
      },
      "created": "2026-12-01",
      "provider": {
        "reference": "Practitioner/5bcf947b-4d3d-4ec8-a2db-d655186a9093"
      },
      "priority": {
        "coding": [ {
          "system": "http://terminology.hl7.org/CodeSystem/processpriority",
          "code": "normal"
        } ]
      },
      "diagnosis": [ {
        "sequence": 1,
        "diagnosisCodeableConcept": {
          "coding": [ {
            "system": "http://hl7.org/fhir/sid/icd-10-cm",
            "code": "I48.0"
          } ]
        },
        "type": [ {
          "coding": [ {
            "system": "http://terminology.hl7.org/CodeSystem/ex-diagnosistype",
            "code": "principal"
          } ]
        } ]
      } ],
      "insurance": [ {
        "sequence": 1,
        "focal": true,
        "coverage": {
          "reference": "Coverage/5fa041661c76ba66d9959367"
        }
      } ],
      "item": [ {
        "sequence": 1,
        "diagnosisSequence": [ 1 ],
        "productOrService": {
          "coding": [ {
            "system": "http://terminology.hl7.org/CodeSystem/ex-USCLS",
            "code": "99555"
          } ]
        },
        "encounter": [ {
          "reference": "Encounter/fe521e1b-2900-4623-abb2-2e3bd90b9754"
        } ]
      } ]
    },
    "request": {
      "method": "PUT",
      "url": "Claim/5ca62962b8484628b8de1ec5"
    }
  }, {
    "fullUrl": "https://madie.cms.gov/Coverage/e721fa74-b406-4d1a-8f1e-c1750e04c90c",
    "resource": {
      "resourceType": "Coverage",
      "id": "e721fa74-b406-4d1a-8f1e-c1750e04c90c",
      "meta": {
        "profile": [ "http://hl7.org/fhir/us/qicore/StructureDefinition/qicore-coverage" ]
      },
      "status": "active",
      "subscriberId": "523435",
      "beneficiary": {
        "reference": "Patient/162a5913-9989-42f2-8d6a-ae460e245e4c"
      },
      "relationship": {
        "coding": [ {
          "system": "http://terminology.hl7.org/CodeSystem/subscriber-relationship",
          "code": "self"
        } ]
      },
      "payor": [ {
        "reference": "Organization/79ed6824-5371-426d-a64f-0c3a887bd372"
      } ]
    },
    "request": {
      "method": "PUT",
      "url": "Coverage/e721fa74-b406-4d1a-8f1e-c1750e04c90c"
    }
  }, {
    "fullUrl": "https://madie.cms.gov/Condition/3dd8bbf9-8fe6-4c2e-ac9d-d457906ec7af",
    "resource": {
      "resourceType": "Condition",
      "id": "3dd8bbf9-8fe6-4c2e-ac9d-d457906ec7af",
      "meta": {
        "profile": [ "http://hl7.org/fhir/us/qicore/StructureDefinition/qicore-condition-problems-health-concerns" ]
      },
      "clinicalStatus": {
        "coding": [ {
          "system": "http://terminology.hl7.org/CodeSystem/condition-clinical",
          "code": "active"
        } ]
      },
      "verificationStatus": {
        "coding": [ {
          "system": "http://terminology.hl7.org/CodeSystem/condition-ver-status",
          "code": "confirmed"
        } ]
      },
      "category": [ {
        "coding": [ {
          "system": "http://terminology.hl7.org/CodeSystem/condition-category",
          "code": "encounter-diagnosis",
          "display": "Encounter Diagnosis"
        } ]
      } ],
      "code": {
        "coding": [ {
          "system": "http://snomed.info/sct",
          "version": "2021-09",
          "code": "120041000119109",
          "display": "Atrial fibrillation with rapid ventricular response (disorder)",
          "userSelected": true
        } ]
      },
      "subject": {
        "reference": "Patient/fd13e14c-cd97-4e81-9a69-e638b0a1fa58"
      },
      "recordedDate": "2026-10-13T08:00:00.000+00:00"
    },
    "request": {
      "method": "PUT",
      "url": "Condition/3dd8bbf9-8fe6-4c2e-ac9d-d457906ec7af"
    }
  }, {
    "fullUrl": "https://madie.cms.gov/Condition/a274539d-eebf-4f0e-a395-923b4e3958a2",
    "resource": {
      "resourceType": "Condition",
      "id": "a274539d-eebf-4f0e-a395-923b4e3958a2",
      "meta": {
        "profile": [ "http://hl7.org/fhir/us/qicore/StructureDefinition/qicore-condition-problems-health-concerns" ]
      },
      "clinicalStatus": {
        "coding": [ {
          "system": "http://terminology.hl7.org/CodeSystem/condition-clinical",
          "code": "active"
        } ]
      },
      "verificationStatus": {
        "coding": [ {
          "system": "http://terminology.hl7.org/CodeSystem/condition-ver-status",
          "code": "confirmed"
        } ]
      },
      "category": [ {
        "coding": [ {
          "system": "http://terminology.hl7.org/CodeSystem/condition-category",
          "code": "encounter-diagnosis",
          "display": "Encounter Diagnosis"
        } ]
      } ],
      "code": {
        "coding": [ {
          "system": "http://snomed.info/sct",
          "version": "2021-09",
          "code": "111297002",
          "display": "Nonparalytic stroke (disorder)",
          "userSelected": true
        } ]
      },
      "subject": {
        "reference": "Patient/fd13e14c-cd97-4e81-9a69-e638b0a1fa58"
      },
      "recordedDate": "2026-10-13T08:00:00.000+00:00"
    },
    "request": {
      "method": "PUT",
      "url": "Condition/a274539d-eebf-4f0e-a395-923b4e3958a2"
    }
  }, {
    "fullUrl": "https://madie.cms.gov/Organization/79ed6824-5371-426d-a64f-0c3a887bd372",
    "resource": {
      "resourceType": "Organization",
      "id": "79ed6824-5371-426d-a64f-0c3a887bd372",
      "meta": {
        "profile": [ "http://hl7.org/fhir/us/qicore/StructureDefinition/qicore-organization" ]
      },
      "identifier": [ {
        "use": "temp",
        "system": "urn:oid:2.16.840.1.113883.4.4",
        "value": "21-3259825"
      } ],
      "active": true,
      "type": [ {
        "coding": [ {
          "system": "http://terminology.hl7.org/CodeSystem/organization-type",
          "code": "pay",
          "display": "Payer"
        } ]
      } ],
      "name": "Blue Cross Blue Shield of Texas",
      "telecom": [ {
        "system": "phone",
        "value": "(+1) 972-766-6900"
      } ],
      "address": [ {
        "use": "billing",
        "type": "postal",
        "line": [ "P.O. Box 660044" ],
        "city": "Dallas",
        "state": "TX",
        "postalCode": "75266-0044",
        "country": "USA"
      } ]
    },
    "request": {
      "method": "PUT",
      "url": "Organization/79ed6824-5371-426d-a64f-0c3a887bd372"
    }
  }, {
    "fullUrl": "https://madie.cms.gov/Practitioner/5bcf947b-4d3d-4ec8-a2db-d655186a9093",
    "resource": {
      "resourceType": "Practitioner",
      "id": "5bcf947b-4d3d-4ec8-a2db-d655186a9093",
      "meta": {
        "profile": [ "http://hl7.org/fhir/us/qicore/StructureDefinition/qicore-practitioner" ]
      },
      "identifier": [ {
        "system": "http://hl7.org/fhir/sid/us-npi",
        "value": "9999999896"
      } ],
      "name": [ {
        "family": "Evil",
        "prefix": [ "Dr" ]
      } ]
    },
    "request": {
      "method": "PUT",
      "url": "Practitioner/5bcf947b-4d3d-4ec8-a2db-d655186a9093"
    }
  }, {
    "fullUrl": "https://madie.cms.gov/MeasureReport/a870f3b3-5990-4b96-a7b1-a86e5ecb4844",
    "resource": {
      "resourceType": "MeasureReport",
      "id": "a870f3b3-5990-4b96-a7b1-a86e5ecb4844",
      "meta": {
        "profile": [ "http://hl7.org/fhir/us/cqfmeasures/StructureDefinition/test-case-cqfm" ]
      },
      "contained": [ {
        "resourceType": "Parameters",
        "id": "c9098d83-6126-49af-9b65-35d757ae8e98-parameters",
        "parameter": [ {
          "name": "subject",
          "valueString": "fd13e14c-cd97-4e81-9a69-e638b0a1fa58"
        } ]
      } ],
      "extension": [ {
        "url": "http://hl7.org/fhir/StructureDefinition/cqf-inputParameters",
        "valueReference": {
          "reference": "#c9098d83-6126-49af-9b65-35d757ae8e98-parameters"
        }
      }, {
        "url": "http://hl7.org/fhir/us/cqfmeasures/StructureDefinition/cqfm-testCaseDescription",
        "valueMarkdown": "ED visit with Principal Dx = Ischemic Stroke. Inpatient encounter Principal DX=AFIB \n"
      } ],
      "modifierExtension": [ {
        "url": "http://hl7.org/fhir/us/cqfmeasures/StructureDefinition/cqfm-isTestCase",
        "valueBoolean": true
      } ],
      "status": "complete",
      "type": "individual",
      "measure": "https://madie.cms.gov/Measure/CMS71FHIRSTKAnticoagAFFlutter",
      "period": {
        "start": "2026-01-01",
        "end": "2026-12-31"
      },
      "group": [ {
        "id": "Group_1",
        "population": [ {
          "id": "InitialPopulation_1",
          "code": {
            "coding": [ {
              "system": "http://terminology.hl7.org/CodeSystem/measure-population",
              "code": "initial-population",
              "display": "Initial Population"
            } ]
          },
          "count": 0
        }, {
          "id": "Denominator_1",
          "code": {
            "coding": [ {
              "system": "http://terminology.hl7.org/CodeSystem/measure-population",
              "code": "denominator",
              "display": "Denominator"
            } ]
          },
          "count": 0
        }, {
          "id": "DenominatorExclusion_1",
          "code": {
            "coding": [ {
              "system": "http://terminology.hl7.org/CodeSystem/measure-population",
              "code": "denominator-exclusion",
              "display": "Denominator Exclusion"
            } ]
          },
          "count": 0
        }, {
          "id": "Numerator_1",
          "code": {
            "coding": [ {
              "system": "http://terminology.hl7.org/CodeSystem/measure-population",
              "code": "numerator",
              "display": "Numerator"
            } ]
          },
          "count": 0
        }, {
          "id": "DenominatorException_1",
          "code": {
            "coding": [ {
              "system": "http://terminology.hl7.org/CodeSystem/measure-population",
              "code": "denominator-exception",
              "display": "Denominator Exception"
            } ]
          },
          "count": 0
        } ],
        "measureScore": {
          "value": 0.0
        }
      } ],
      "evaluatedResource": [ {
        "reference": "Patient/fd13e14c-cd97-4e81-9a69-e638b0a1fa58"
      }, {
        "reference": "Encounter/fe521e1b-2900-4623-abb2-2e3bd90b9754"
      }, {
        "reference": "Encounter/e536ec5a-92fa-4f7b-9620-585bdb476ac8"
      }, {
        "reference": "Encounter/8415761f-e52d-4b02-8a2b-d10840fca231"
      }, {
        "reference": "Claim/5ca62962b8484628b8de1ec5"
      }, {
        "reference": "Coverage/e721fa74-b406-4d1a-8f1e-c1750e04c90c"
      }, {
        "reference": "Condition/3dd8bbf9-8fe6-4c2e-ac9d-d457906ec7af"
      }, {
        "reference": "Condition/a274539d-eebf-4f0e-a395-923b4e3958a2"
      }, {
        "reference": "Organization/79ed6824-5371-426d-a64f-0c3a887bd372"
      }, {
        "reference": "Practitioner/5bcf947b-4d3d-4ec8-a2db-d655186a9093"
      } ]
    },
    "request": {
      "method": "PUT",
      "url": "MeasureReport/a870f3b3-5990-4b96-a7b1-a86e5ecb4844"
    }
  } ]
}