{
  "resourceType": "Bundle",
  "id": "62fd4b700968f82603aac7ac",
  "type": "collection",
  "entry": [ {
    "fullUrl": "https://madie.cms.gov/Patient/cf289d58-f8a0-4f58-a62d-39fc1762318a",
    "resource": {
      "resourceType": "Patient",
      "id": "cf289d58-f8a0-4f58-a62d-39fc1762318a",
      "meta": {
        "profile": [ "http://hl7.org/fhir/us/qicore/StructureDefinition/qicore-patient" ]
      },
      "extension": [ {
        "url": "http://hl7.org/fhir/us/core/StructureDefinition/us-core-race",
        "extension": [ {
          "url": "ombCategory",
          "valueCoding": {
            "system": "urn:oid:2.16.840.1.113883.6.238",
            "code": "2106-3",
            "display": "White",
            "userSelected": true
          }
        }, {
          "url": "text",
          "valueString": "White"
        } ]
      }, {
        "url": "http://hl7.org/fhir/us/core/StructureDefinition/us-core-ethnicity",
        "extension": [ {
          "url": "ombCategory",
          "valueCoding": {
            "system": "urn:oid:2.16.840.1.113883.6.238",
            "code": "2186-5",
            "display": "Not Hispanic or Latino",
            "userSelected": true
          }
        }, {
          "url": "text",
          "valueString": "Not Hispanic or Latino"
        } ]
      } ],
      "identifier": [ {
        "type": {
          "coding": [ {
            "system": "http://terminology.hl7.org/CodeSystem/v2-0203",
            "code": "MR"
          } ]
        },
        "system": "https://bonnie-fhir.healthit.gov/",
        "value": "62fd4b700968f82603aac7ac"
      } ],
      "name": [ {
        "family": "IPFail",
        "given": [ "ReferralBeforeRefPeriod" ]
      } ],
      "gender": "other",
      "birthDate": "2001-06-02"
    }
  }, {
    "fullUrl": "https://madie.cms.gov/ServiceRequest/26571dee-4c26-4e29-8261-61347a003da3",
    "resource": {
      "resourceType": "ServiceRequest",
      "id": "26571dee-4c26-4e29-8261-61347a003da3",
      "meta": {
        "profile": [ "http://hl7.org/fhir/us/qicore/StructureDefinition/qicore-servicerequest" ]
      },
      "status": "active",
      "intent": "order",
      "code": {
        "coding": [ {
          "system": "http://snomed.info/sct",
          "version": "http://snomed.info/sct/731000124108/version/20250301",
          "code": "103696004",
          "display": "Patient referral to specialist (procedure)",
          "userSelected": true
        } ]
      },
      "subject": {
        "reference": "Patient/cf289d58-f8a0-4f58-a62d-39fc1762318a"
      },
      "authoredOn": "2024-12-31T23:59:00.000+00:00"
    }
  }, {
    "fullUrl": "https://madie.cms.gov/Encounter/39c78678-7f8a-4fe3-85dc-aa42653f5939",
    "resource": {
      "resourceType": "Encounter",
      "id": "39c78678-7f8a-4fe3-85dc-aa42653f5939",
      "meta": {
        "profile": [ "http://hl7.org/fhir/us/qicore/StructureDefinition/qicore-encounter" ]
      },
      "status": "finished",
      "class": {
        "system": "http://terminology.hl7.org/CodeSystem/v3-ActCode",
        "code": "AMB",
        "display": "ambulatory"
      },
      "type": [ {
        "coding": [ {
          "system": "http://www.ama-assn.org/go/cpt",
          "version": "2021",
          "code": "99381",
          "display": "Initial comprehensive preventive medicine evaluation and management of an individual including an age and gender appropriate history, examination, counseling/anticipatory guidance/risk factor reduction interventions, and the ordering of laboratory/diagnostic procedures, new patient; infant (age younger than 1 year)",
          "userSelected": true
        } ]
      } ],
      "subject": {
        "reference": "Patient/cf289d58-f8a0-4f58-a62d-39fc1762318a"
      },
      "period": {
        "start": "2026-12-08T08:00:00.000+00:00",
        "end": "2026-12-08T08:15:00.000+00:00"
      }
    }
  }, {
    "fullUrl": "https://madie.cms.gov/Coverage/88d6a359-e6af-45c1-9c4e-6c216092811d",
    "resource": {
      "resourceType": "Coverage",
      "id": "88d6a359-e6af-45c1-9c4e-6c216092811d",
      "meta": {
        "profile": [ "http://hl7.org/fhir/us/qicore/StructureDefinition/qicore-coverage" ]
      },
      "status": "active",
      "subscriberId": "123456",
      "beneficiary": {
        "reference": "Patient/cf289d58-f8a0-4f58-a62d-39fc1762318a"
      },
      "relationship": {
        "coding": [ {
          "system": "http://terminology.hl7.org/CodeSystem/subscriber-relationship",
          "code": "self",
          "display": "Self"
        } ]
      },
      "payor": [ {
        "reference": "Organization/0369233b-3f08-4fba-aae0-ae9595459f68"
      } ]
    }
  }, {
    "fullUrl": "https://madie.cms.gov/Organization/0369233b-3f08-4fba-aae0-ae9595459f68",
    "resource": {
      "resourceType": "Organization",
      "id": "0369233b-3f08-4fba-aae0-ae9595459f68",
      "meta": {
        "profile": [ "http://hl7.org/fhir/us/qicore/StructureDefinition/qicore-organization" ]
      },
      "identifier": [ {
        "use": "temp",
        "system": "urn:oid:2.16.840.1.113883.4.4",
        "value": "21-3259825"
      } ],
      "active": true,
      "type": [ {
        "coding": [ {
          "system": "http://terminology.hl7.org/CodeSystem/organization-type",
          "code": "pay",
          "display": "Payer"
        } ]
      } ],
      "name": "Blue Cross Blue Shield of Texas",
      "telecom": [ {
        "system": "phone",
        "value": "(+1) 972-766-6900"
      } ],
      "address": [ {
        "use": "billing",
        "type": "postal",
        "line": [ "P.O. Box 660044" ],
        "city": "Dallas",
        "state": "TX",
        "postalCode": "75266-0044",
        "country": "USA"
      } ]
    }
  }, {
    "fullUrl": "https://madie.cms.gov/Practitioner/1beb80c4-f67d-46a5-8545-36f54ffa3e2c",
    "resource": {
      "resourceType": "Practitioner",
      "id": "1beb80c4-f67d-46a5-8545-36f54ffa3e2c",
      "meta": {
        "profile": [ "http://hl7.org/fhir/us/qicore/StructureDefinition/qicore-practitioner" ]
      },
      "identifier": [ {
        "system": "http://hl7.org/fhir/sid/us-npi",
        "value": "1689411712"
      } ],
      "name": [ {
        "family": "Evil",
        "prefix": [ "Dr" ]
      } ]
    }
  }, {
    "fullUrl": "https://madie.cms.gov/MeasureReport/0612cc1d-6408-4305-901a-60cb4589fed1",
    "resource": {
      "resourceType": "MeasureReport",
      "id": "0612cc1d-6408-4305-901a-60cb4589fed1",
      "meta": {
        "profile": [ "http://hl7.org/fhir/us/cqfmeasures/StructureDefinition/test-case-cqfm" ]
      },
      "contained": [ {
        "resourceType": "Parameters",
        "id": "10d5685b-b07d-4ffb-ad7b-34b4fef6b3d5-parameters",
        "parameter": [ {
          "name": "subject",
          "valueString": "cf289d58-f8a0-4f58-a62d-39fc1762318a"
        } ]
      } ],
      "extension": [ {
        "url": "http://hl7.org/fhir/StructureDefinition/cqf-inputParameters",
        "valueReference": {
          "reference": "#10d5685b-b07d-4ffb-ad7b-34b4fef6b3d5-parameters"
        }
      }, {
        "url": "http://hl7.org/fhir/us/cqfmeasures/StructureDefinition/cqfm-testCaseDescription",
        "valueMarkdown": "Encounter during MP. status finished, Referral Status Active, Intent Order before Referral period.\n"
      } ],
      "modifierExtension": [ {
        "url": "http://hl7.org/fhir/us/cqfmeasures/StructureDefinition/cqfm-isTestCase",
        "valueBoolean": true
      } ],
      "status": "complete",
      "type": "individual",
      "measure": "https://madie.cms.gov/Measure/CMS50FHIRReceiptofSpecialistReport",
      "period": {
        "start": "2026-01-01",
        "end": "2026-12-31"
      },
      "group": [ {
        "id": "Group_1",
        "population": [ {
          "id": "InitialPopulation_1",
          "code": {
            "coding": [ {
              "system": "http://terminology.hl7.org/CodeSystem/measure-population",
              "code": "initial-population",
              "display": "Initial Population"
            } ]
          },
          "count": 0
        }, {
          "id": "Denominator_1",
          "code": {
            "coding": [ {
              "system": "http://terminology.hl7.org/CodeSystem/measure-population",
              "code": "denominator",
              "display": "Denominator"
            } ]
          },
          "count": 0
        }, {
          "id": "Numerator_1",
          "code": {
            "coding": [ {
              "system": "http://terminology.hl7.org/CodeSystem/measure-population",
              "code": "numerator",
              "display": "Numerator"
            } ]
          },
          "count": 0
        } ],
        "measureScore": {
          "value": 1.0
        }
      } ],
      "evaluatedResource": [ {
        "reference": "Patient/cf289d58-f8a0-4f58-a62d-39fc1762318a"
      }, {
        "reference": "ServiceRequest/26571dee-4c26-4e29-8261-61347a003da3"
      }, {
        "reference": "Encounter/39c78678-7f8a-4fe3-85dc-aa42653f5939"
      }, {
        "reference": "Coverage/88d6a359-e6af-45c1-9c4e-6c216092811d"
      }, {
        "reference": "Organization/0369233b-3f08-4fba-aae0-ae9595459f68"
      }, {
        "reference": "Practitioner/1beb80c4-f67d-46a5-8545-36f54ffa3e2c"
      } ]
    }
  } ]
}