{
  "resourceType": "Bundle",
  "id": "60f82c2e98086b570510e286",
  "type": "transaction",
  "entry": [ {
    "fullUrl": "https://madie.cms.gov/Patient/763c581d-7398-47e7-ba78-eaa5853df551",
    "resource": {
      "resourceType": "Patient",
      "id": "763c581d-7398-47e7-ba78-eaa5853df551",
      "meta": {
        "profile": [ "http://hl7.org/fhir/us/qicore/StructureDefinition/qicore-patient" ]
      },
      "text": {
        "status": "generated",
        "div": "<div xmlns=\"http://www.w3.org/1999/xhtml\"><div class=\"hapiHeaderText\">CMP&gt;1day_duringIP <b>DENEXFAIL </b></div><table class=\"hapiPropertyTable\"><tbody><tr><td>Identifier</td><td>44765b479617151df23dd60d78910085</td></tr><tr><td>Date of birth</td><td><span>26 September 1975</span></td></tr></tbody></table></div>"
      },
      "extension": [ {
        "url": "http://hl7.org/fhir/us/core/StructureDefinition/us-core-race",
        "extension": [ {
          "url": "ombCategory",
          "valueCoding": {
            "system": "urn:oid:2.16.840.1.113883.6.238",
            "code": "1002-5",
            "display": "American Indian or Alaska Native",
            "userSelected": true
          }
        }, {
          "url": "text",
          "valueString": "American Indian or Alaska Native"
        } ]
      }, {
        "url": "http://hl7.org/fhir/us/core/StructureDefinition/us-core-ethnicity",
        "extension": [ {
          "url": "ombCategory",
          "valueCoding": {
            "system": "urn:oid:2.16.840.1.113883.6.238",
            "code": "2135-2",
            "display": "Hispanic or Latino",
            "userSelected": true
          }
        }, {
          "url": "text",
          "valueString": "Hispanic or Latino"
        } ]
      } ],
      "identifier": [ {
        "type": {
          "coding": [ {
            "system": "http://terminology.hl7.org/CodeSystem/v2-0203",
            "code": "MR"
          } ]
        },
        "system": "https://bonnie-fhir.healthit.gov/",
        "value": "60f82c2e98086b570510e286"
      } ],
      "active": true,
      "name": [ {
        "use": "usual",
        "family": "DENEXFail",
        "given": [ "CMPGT1dayduringIP" ]
      } ],
      "gender": "female",
      "birthDate": "1976-09-26"
    },
    "request": {
      "method": "PUT",
      "url": "Patient/763c581d-7398-47e7-ba78-eaa5853df551"
    }
  }, {
    "fullUrl": "https://madie.cms.gov/Encounter/442ab39f-b513-44ae-a0d6-06f312903036",
    "resource": {
      "resourceType": "Encounter",
      "id": "442ab39f-b513-44ae-a0d6-06f312903036",
      "meta": {
        "profile": [ "http://hl7.org/fhir/us/qicore/StructureDefinition/qicore-encounter" ]
      },
      "status": "finished",
      "class": {
        "system": "http://terminology.hl7.org/CodeSystem/v3-ActCode",
        "code": "EMER",
        "display": "emergency",
        "userSelected": true
      },
      "type": [ {
        "coding": [ {
          "system": "http://snomed.info/sct",
          "code": "4525004"
        } ]
      } ],
      "subject": {
        "reference": "Patient/763c581d-7398-47e7-ba78-eaa5853df551"
      },
      "period": {
        "start": "2026-10-10T23:00:00.000+00:00",
        "end": "2026-10-11T01:00:00.000+00:00"
      },
      "length": {
        "value": 1,
        "unit": "days"
      }
    },
    "request": {
      "method": "PUT",
      "url": "Encounter/442ab39f-b513-44ae-a0d6-06f312903036"
    }
  }, {
    "fullUrl": "https://madie.cms.gov/Encounter/7ac4a9a6-9562-48ef-b686-f4125212e144",
    "resource": {
      "resourceType": "Encounter",
      "id": "7ac4a9a6-9562-48ef-b686-f4125212e144",
      "meta": {
        "profile": [ "http://hl7.org/fhir/us/qicore/StructureDefinition/qicore-encounter" ]
      },
      "status": "finished",
      "class": {
        "system": "http://terminology.hl7.org/CodeSystem/v3-ActCode",
        "code": "IMP",
        "display": "inpatient encounter",
        "userSelected": true
      },
      "type": [ {
        "coding": [ {
          "system": "http://snomed.info/sct",
          "code": "32485007"
        } ]
      } ],
      "subject": {
        "reference": "Patient/763c581d-7398-47e7-ba78-eaa5853df551"
      },
      "period": {
        "start": "2026-10-11T01:30:00.000+00:00",
        "end": "2026-10-14T11:00:00.000+00:00"
      },
      "length": {
        "value": 3,
        "unit": "days"
      },
      "reasonReference": [ {
        "reference": "Condition/3dc1c7fc-6571-440d-897e-ecaad9d1ca66"
      } ]
    },
    "request": {
      "method": "PUT",
      "url": "Encounter/7ac4a9a6-9562-48ef-b686-f4125212e144"
    }
  }, {
    "fullUrl": "https://madie.cms.gov/Procedure/f5824f5f-923b-4b8d-bd8b-6d596718784b",
    "resource": {
      "resourceType": "Procedure",
      "id": "f5824f5f-923b-4b8d-bd8b-6d596718784b",
      "meta": {
        "profile": [ "http://hl7.org/fhir/us/qicore/StructureDefinition/qicore-procedure" ]
      },
      "extension": [ {
        "url": "http://hl7.org/fhir/us/qicore/StructureDefinition/qicore-recorded",
        "valueDateTime": "2014-04-05T13:35:00.000+00:00"
      } ],
      "status": "completed",
      "code": {
        "coding": [ {
          "system": "http://snomed.info/sct",
          "code": "133918004"
        } ]
      },
      "subject": {
        "reference": "Patient/763c581d-7398-47e7-ba78-eaa5853df551"
      },
      "performedPeriod": {
        "start": "2026-10-12T07:00:00.000+00:00"
      }
    },
    "request": {
      "method": "PUT",
      "url": "Procedure/f5824f5f-923b-4b8d-bd8b-6d596718784b"
    }
  }, {
    "fullUrl": "https://madie.cms.gov/Coverage/814c5afb-a4ca-4161-a2e0-1dd0bcce34a9",
    "resource": {
      "resourceType": "Coverage",
      "id": "814c5afb-a4ca-4161-a2e0-1dd0bcce34a9",
      "status": "active",
      "beneficiary": {
        "reference": "Patient/763c581d-7398-47e7-ba78-eaa5853df551"
      },
      "period": {
        "start": "1976-09-26T08:00:00.000+00:00"
      },
      "payor": [ {
        "reference": "Organization/2373bbbe-7534-46d5-ba63-2a86a1861e29"
      } ]
    },
    "request": {
      "method": "PUT",
      "url": "Coverage/814c5afb-a4ca-4161-a2e0-1dd0bcce34a9"
    }
  }, {
    "fullUrl": "https://madie.cms.gov/Condition/3dc1c7fc-6571-440d-897e-ecaad9d1ca66",
    "resource": {
      "resourceType": "Condition",
      "id": "3dc1c7fc-6571-440d-897e-ecaad9d1ca66",
      "meta": {
        "profile": [ "http://hl7.org/fhir/us/qicore/StructureDefinition/qicore-condition-encounter-diagnosis" ]
      },
      "clinicalStatus": {
        "coding": [ {
          "system": "http://terminology.hl7.org/CodeSystem/condition-clinical",
          "code": "active"
        } ]
      },
      "verificationStatus": {
        "coding": [ {
          "system": "http://terminology.hl7.org/CodeSystem/condition-ver-status",
          "code": "confirmed"
        } ]
      },
      "category": [ {
        "coding": [ {
          "system": "http://terminology.hl7.org/CodeSystem/condition-category",
          "code": "encounter-diagnosis",
          "display": "Encounter Diagnosis"
        } ]
      } ],
      "code": {
        "coding": [ {
          "system": "http://snomed.info/sct",
          "version": "2020-09",
          "code": "111297002",
          "display": "Nonparalytic stroke (disorder)",
          "userSelected": true
        } ]
      },
      "subject": {
        "reference": "Patient/763c581d-7398-47e7-ba78-eaa5853df551"
      },
      "encounter": {
        "reference": "Encounter/7ac4a9a6-9562-48ef-b686-f4125212e144"
      },
      "recordedDate": "2026-08-11T08:00:00.000+00:00"
    },
    "request": {
      "method": "PUT",
      "url": "Condition/3dc1c7fc-6571-440d-897e-ecaad9d1ca66"
    }
  }, {
    "fullUrl": "https://madie.cms.gov/claim/5ca62962b8484628b8de1ec5",
    "resource": {
      "resourceType": "Claim",
      "id": "5ca62962b8484628b8de1ec5",
      "meta": {
        "profile": [ "http://hl7.org/fhir/us/qicore/StructureDefinition/qicore-claim" ]
      },
      "status": "active",
      "type": {
        "coding": [ {
          "system": "http://terminology.hl7.org/CodeSystem/claim-type",
          "code": "institutional"
        } ]
      },
      "use": "claim",
      "patient": {
        "reference": "Patient/5450abfd-a667-4eb9-9b59-e85feed4865c"
      },
      "created": "2026-12-01",
      "provider": {
        "reference": "Practitioner/practitioner-123456"
      },
      "priority": {
        "coding": [ {
          "system": "http://terminology.hl7.org/CodeSystem/processpriority",
          "code": "normal"
        } ]
      },
      "diagnosis": [ {
        "sequence": 1,
        "diagnosisCodeableConcept": {
          "coding": [ {
            "system": "http://hl7.org/fhir/sid/icd-10-cm",
            "code": "I63.00"
          } ]
        },
        "type": [ {
          "coding": [ {
            "system": "http://terminology.hl7.org/CodeSystem/ex-diagnosistype",
            "code": "principal"
          } ]
        } ]
      } ],
      "insurance": [ {
        "sequence": 1,
        "focal": true,
        "coverage": {
          "reference": "Coverage/5fa041661c76ba66d9959367"
        }
      } ],
      "item": [ {
        "sequence": 1,
        "diagnosisSequence": [ 1 ],
        "productOrService": {
          "coding": [ {
            "system": "http://terminology.hl7.org/CodeSystem/ex-USCLS",
            "code": "99555"
          } ]
        },
        "encounter": [ {
          "reference": "Encounter/7ac4a9a6-9562-48ef-b686-f4125212e144"
        } ]
      } ]
    },
    "request": {
      "method": "PUT",
      "url": "Claim/5ca62962b8484628b8de1ec5"
    }
  }, {
    "fullUrl": "https://madie.cms.gov/Organization/2373bbbe-7534-46d5-ba63-2a86a1861e29",
    "resource": {
      "resourceType": "Organization",
      "id": "2373bbbe-7534-46d5-ba63-2a86a1861e29",
      "meta": {
        "profile": [ "http://hl7.org/fhir/us/qicore/StructureDefinition/qicore-organization" ]
      },
      "identifier": [ {
        "use": "temp",
        "system": "urn:oid:2.16.840.1.113883.4.4",
        "value": "21-3259825"
      } ],
      "active": true,
      "type": [ {
        "coding": [ {
          "system": "http://terminology.hl7.org/CodeSystem/organization-type",
          "code": "pay",
          "display": "Payer"
        } ]
      } ],
      "name": "Blue Cross Blue Shield of Texas",
      "telecom": [ {
        "system": "phone",
        "value": "(+1) 972-766-6900"
      } ],
      "address": [ {
        "use": "billing",
        "type": "postal",
        "line": [ "P.O. Box 660044" ],
        "city": "Dallas",
        "state": "TX",
        "postalCode": "75266-0044",
        "country": "USA"
      } ]
    },
    "request": {
      "method": "PUT",
      "url": "Organization/2373bbbe-7534-46d5-ba63-2a86a1861e29"
    }
  }, {
    "fullUrl": "https://madie.cms.gov/MeasureReport/cc921fc6-d09e-44ae-b927-ca5c06480c12",
    "resource": {
      "resourceType": "MeasureReport",
      "id": "cc921fc6-d09e-44ae-b927-ca5c06480c12",
      "meta": {
        "profile": [ "http://hl7.org/fhir/us/cqfmeasures/StructureDefinition/test-case-cqfm" ]
      },
      "contained": [ {
        "resourceType": "Parameters",
        "id": "972199b0-cfc9-4e4a-99e6-70f69b1bfbd3-parameters",
        "parameter": [ {
          "name": "subject",
          "valueString": "763c581d-7398-47e7-ba78-eaa5853df551"
        } ]
      } ],
      "extension": [ {
        "url": "http://hl7.org/fhir/StructureDefinition/cqf-inputParameters",
        "valueReference": {
          "reference": "#972199b0-cfc9-4e4a-99e6-70f69b1bfbd3-parameters"
        }
      }, {
        "url": "http://hl7.org/fhir/us/cqfmeasures/StructureDefinition/cqfm-testCaseDescription",
        "valueMarkdown": "Patient receives comfort measures performed >1 day during EncIP, global.\"Hospitalization\" =(Ed+IP)\n"
      } ],
      "modifierExtension": [ {
        "url": "http://hl7.org/fhir/us/cqfmeasures/StructureDefinition/cqfm-isTestCase",
        "valueBoolean": true
      } ],
      "status": "complete",
      "type": "individual",
      "measure": "https://madie.cms.gov/Measure/CMS72FHIRSTKAntithromboticDay2",
      "period": {
        "start": "2026-01-01",
        "end": "2026-12-31"
      },
      "group": [ {
        "id": "Group_1",
        "population": [ {
          "id": "InitialPopulation_1",
          "code": {
            "coding": [ {
              "system": "http://terminology.hl7.org/CodeSystem/measure-population",
              "code": "initial-population",
              "display": "Initial Population"
            } ]
          },
          "count": 1
        }, {
          "id": "Denominator_1",
          "code": {
            "coding": [ {
              "system": "http://terminology.hl7.org/CodeSystem/measure-population",
              "code": "denominator",
              "display": "Denominator"
            } ]
          },
          "count": 1
        }, {
          "id": "DenominatorExclusion_1",
          "code": {
            "coding": [ {
              "system": "http://terminology.hl7.org/CodeSystem/measure-population",
              "code": "denominator-exclusion",
              "display": "Denominator Exclusion"
            } ]
          },
          "count": 0
        }, {
          "id": "Numerator_1",
          "code": {
            "coding": [ {
              "system": "http://terminology.hl7.org/CodeSystem/measure-population",
              "code": "numerator",
              "display": "Numerator"
            } ]
          },
          "count": 0
        }, {
          "id": "DenominatorException_1",
          "code": {
            "coding": [ {
              "system": "http://terminology.hl7.org/CodeSystem/measure-population",
              "code": "denominator-exception",
              "display": "Denominator Exception"
            } ]
          },
          "count": 0
        } ],
        "measureScore": {
          "value": 0.0
        }
      } ],
      "evaluatedResource": [ {
        "reference": "Patient/763c581d-7398-47e7-ba78-eaa5853df551"
      }, {
        "reference": "Encounter/442ab39f-b513-44ae-a0d6-06f312903036"
      }, {
        "reference": "Encounter/7ac4a9a6-9562-48ef-b686-f4125212e144"
      }, {
        "reference": "Procedure/f5824f5f-923b-4b8d-bd8b-6d596718784b"
      }, {
        "reference": "Coverage/814c5afb-a4ca-4161-a2e0-1dd0bcce34a9"
      }, {
        "reference": "Condition/3dc1c7fc-6571-440d-897e-ecaad9d1ca66"
      }, {
        "reference": "Claim/5ca62962b8484628b8de1ec5"
      }, {
        "reference": "Organization/2373bbbe-7534-46d5-ba63-2a86a1861e29"
      } ]
    },
    "request": {
      "method": "PUT",
      "url": "MeasureReport/cc921fc6-d09e-44ae-b927-ca5c06480c12"
    }
  } ]
}