{
  "resourceType": "Bundle",
  "id": "633c9d030968f8012250fc8a",
  "type": "transaction",
  "entry": [ {
    "fullUrl": "https://madie.cms.gov/Patient/3023ca44-3a4f-4be3-931b-784e9c9c46e9",
    "resource": {
      "resourceType": "Patient",
      "id": "3023ca44-3a4f-4be3-931b-784e9c9c46e9",
      "meta": {
        "profile": [ "http://hl7.org/fhir/us/qicore/StructureDefinition/qicore-patient" ]
      },
      "text": {
        "status": "generated",
        "div": "<div xmlns=\"http://www.w3.org/1999/xhtml\"><div class=\"hapiHeaderText\">CMOdurObs_ED&gt;1hrObs&gt;1hrBFEnc <b>DENEXFAIL </b></div><table class=\"hapiPropertyTable\"><tbody><tr><td>Identifier</td><td>013c7df93f5b4b7bbcd2a75a8b429b2c</td></tr><tr><td>Date of birth</td><td><span>18 September 1985</span></td></tr></tbody></table></div>"
      },
      "extension": [ {
        "url": "http://hl7.org/fhir/us/core/StructureDefinition/us-core-race",
        "extension": [ {
          "url": "ombCategory",
          "valueCoding": {
            "system": "urn:oid:2.16.840.1.113883.6.238",
            "code": "1002-5",
            "display": "American Indian or Alaska Native",
            "userSelected": true
          }
        }, {
          "url": "text",
          "valueString": "American Indian or Alaska Native"
        } ]
      }, {
        "url": "http://hl7.org/fhir/us/core/StructureDefinition/us-core-ethnicity",
        "extension": [ {
          "url": "ombCategory",
          "valueCoding": {
            "system": "urn:oid:2.16.840.1.113883.6.238",
            "code": "2135-2",
            "display": "Hispanic or Latino",
            "userSelected": true
          }
        }, {
          "url": "text",
          "valueString": "Hispanic or Latino"
        } ]
      } ],
      "identifier": [ {
        "type": {
          "coding": [ {
            "system": "http://terminology.hl7.org/CodeSystem/v2-0203",
            "code": "MR"
          } ]
        },
        "system": "https://bonnie-fhir.healthit.gov/",
        "value": "633c9d030968f8012250fc8a"
      } ],
      "active": true,
      "name": [ {
        "use": "usual",
        "family": "DENEXFail",
        "given": [ "CMOdurObs_ED>1hrObs>1hrBFEnc" ]
      } ],
      "gender": "female",
      "birthDate": "1986-09-18"
    },
    "request": {
      "method": "PUT",
      "url": "Patient/3023ca44-3a4f-4be3-931b-784e9c9c46e9"
    }
  }, {
    "fullUrl": "https://madie.cms.gov/Condition/6fe7a5bb-f8d6-4604-a760-99e4c2dc6719",
    "resource": {
      "resourceType": "Condition",
      "id": "6fe7a5bb-f8d6-4604-a760-99e4c2dc6719",
      "meta": {
        "profile": [ "http://hl7.org/fhir/us/qicore/StructureDefinition/qicore-condition-problems-health-concerns" ]
      },
      "clinicalStatus": {
        "coding": [ {
          "system": "http://terminology.hl7.org/CodeSystem/condition-clinical",
          "code": "inactive"
        } ]
      },
      "verificationStatus": {
        "coding": [ {
          "system": "http://terminology.hl7.org/CodeSystem/condition-ver-status",
          "code": "confirmed"
        } ]
      },
      "category": [ {
        "coding": [ {
          "system": "http://terminology.hl7.org/CodeSystem/condition-category",
          "code": "encounter-diagnosis",
          "display": "Encounter Diagnosis"
        } ]
      } ],
      "code": {
        "coding": [ {
          "system": "http://hl7.org/fhir/sid/icd-9-cm",
          "code": "427.31"
        }, {
          "system": "http://hl7.org/fhir/sid/icd-10-cm",
          "code": "I48.0"
        }, {
          "system": "http://snomed.info/sct",
          "code": "5370000"
        } ]
      },
      "subject": {
        "reference": "Patient/3023ca44-3a4f-4be3-931b-784e9c9c46e9"
      },
      "onsetDateTime": "2026-10-01T09:00:00.000+00:00",
      "abatementDateTime": "2026-10-12T00:15:00.000+00:00"
    },
    "request": {
      "method": "PUT",
      "url": "Condition/6fe7a5bb-f8d6-4604-a760-99e4c2dc6719"
    }
  }, {
    "fullUrl": "https://madie.cms.gov/Encounter/8da19ac1-5afa-48cc-ab4c-296677237cc1",
    "resource": {
      "resourceType": "Encounter",
      "id": "8da19ac1-5afa-48cc-ab4c-296677237cc1",
      "meta": {
        "profile": [ "http://hl7.org/fhir/us/qicore/StructureDefinition/qicore-encounter" ]
      },
      "status": "finished",
      "class": {
        "system": "http://terminology.hl7.org/CodeSystem/v3-ActCode",
        "code": "EMER",
        "display": "emergency"
      },
      "type": [ {
        "coding": [ {
          "system": "http://snomed.info/sct",
          "code": "4525004"
        } ]
      } ],
      "subject": {
        "reference": "Patient/3023ca44-3a4f-4be3-931b-784e9c9c46e9"
      },
      "period": {
        "start": "2026-09-30T06:59:00.000+00:00",
        "end": "2026-09-30T07:00:00.000+00:00"
      },
      "length": {
        "value": 0,
        "unit": "days"
      }
    },
    "request": {
      "method": "PUT",
      "url": "Encounter/8da19ac1-5afa-48cc-ab4c-296677237cc1"
    }
  }, {
    "fullUrl": "https://madie.cms.gov/Encounter/04e2db79-8c0a-47a3-ac9e-e3d861a31e7a",
    "resource": {
      "resourceType": "Encounter",
      "id": "04e2db79-8c0a-47a3-ac9e-e3d861a31e7a",
      "meta": {
        "profile": [ "http://hl7.org/fhir/us/qicore/StructureDefinition/qicore-encounter" ]
      },
      "status": "finished",
      "class": {
        "system": "http://terminology.hl7.org/CodeSystem/v3-ActCode",
        "code": "OBSENC",
        "display": "observation encounter"
      },
      "type": [ {
        "coding": [ {
          "system": "http://snomed.info/sct",
          "code": "448851000124103"
        } ]
      } ],
      "subject": {
        "reference": "Patient/3023ca44-3a4f-4be3-931b-784e9c9c46e9"
      },
      "period": {
        "start": "2026-09-30T08:00:00.000+00:00",
        "end": "2026-09-30T08:05:00.000+00:00"
      },
      "length": {
        "value": 0,
        "unit": "days"
      }
    },
    "request": {
      "method": "PUT",
      "url": "Encounter/04e2db79-8c0a-47a3-ac9e-e3d861a31e7a"
    }
  }, {
    "fullUrl": "https://madie.cms.gov/Encounter/34ac8dba-e461-4846-a67d-722e9d823bdc",
    "resource": {
      "resourceType": "Encounter",
      "id": "34ac8dba-e461-4846-a67d-722e9d823bdc",
      "meta": {
        "profile": [ "http://hl7.org/fhir/us/qicore/StructureDefinition/qicore-encounter" ]
      },
      "status": "finished",
      "class": {
        "system": "http://terminology.hl7.org/CodeSystem/v3-ActCode",
        "code": "IMP",
        "display": "inpatient encounter"
      },
      "type": [ {
        "coding": [ {
          "system": "http://snomed.info/sct",
          "code": "32485007"
        } ]
      } ],
      "subject": {
        "reference": "Patient/3023ca44-3a4f-4be3-931b-784e9c9c46e9"
      },
      "period": {
        "start": "2026-09-30T09:06:00.000+00:00",
        "end": "2026-10-12T00:15:00.000+00:00"
      },
      "length": {
        "value": 12,
        "unit": "days"
      },
      "reasonReference": [ {
        "reference": "Condition/6fe7a5bb-f8d6-4604-a760-99e4c2dc6719"
      } ],
      "hospitalization": {
        "dischargeDisposition": {
          "coding": [ {
            "system": "http://snomed.info/sct",
            "code": "10161009",
            "display": "Discharge To Home Or Police Custody"
          } ]
        }
      }
    },
    "request": {
      "method": "PUT",
      "url": "Encounter/34ac8dba-e461-4846-a67d-722e9d823bdc"
    }
  }, {
    "fullUrl": "https://madie.cms.gov/ServiceRequest/c620402a-56ab-4071-acaa-7b086bbe2983",
    "resource": {
      "resourceType": "ServiceRequest",
      "id": "c620402a-56ab-4071-acaa-7b086bbe2983",
      "meta": {
        "profile": [ "http://hl7.org/fhir/us/qicore/StructureDefinition/qicore-servicerequest" ]
      },
      "status": "active",
      "intent": "order",
      "code": {
        "coding": [ {
          "system": "http://snomed.info/sct",
          "code": "133918004"
        } ]
      },
      "subject": {
        "reference": "Patient/3023ca44-3a4f-4be3-931b-784e9c9c46e9"
      },
      "authoredOn": "2026-09-30T08:01:00.000+00:00"
    },
    "request": {
      "method": "PUT",
      "url": "ServiceRequest/c620402a-56ab-4071-acaa-7b086bbe2983"
    }
  }, {
    "fullUrl": "https://madie.cms.gov/Coverage/71c8c1df-ce4a-446e-93bb-306bb13175a7",
    "resource": {
      "resourceType": "Coverage",
      "id": "71c8c1df-ce4a-446e-93bb-306bb13175a7",
      "meta": {
        "profile": [ "http://hl7.org/fhir/us/qicore/StructureDefinition/qicore-coverage" ]
      },
      "status": "active",
      "subscriberId": "523435",
      "beneficiary": {
        "reference": "Patient/162a5913-9989-42f2-8d6a-ae460e245e4c"
      },
      "relationship": {
        "coding": [ {
          "system": "http://terminology.hl7.org/CodeSystem/subscriber-relationship",
          "code": "self"
        } ]
      },
      "payor": [ {
        "reference": "Organization/33bfe2d1-69b2-424b-9933-d134316fe01b"
      } ]
    },
    "request": {
      "method": "PUT",
      "url": "Coverage/71c8c1df-ce4a-446e-93bb-306bb13175a7"
    }
  }, {
    "fullUrl": "https://madie.cms.gov/Condition/4a58b66e-91c4-4d64-b212-425d4d71ef15",
    "resource": {
      "resourceType": "Condition",
      "id": "4a58b66e-91c4-4d64-b212-425d4d71ef15",
      "meta": {
        "profile": [ "http://hl7.org/fhir/us/qicore/StructureDefinition/qicore-condition" ]
      },
      "clinicalStatus": {
        "coding": [ {
          "system": "http://terminology.hl7.org/CodeSystem/condition-clinical",
          "code": "active"
        } ]
      },
      "verificationStatus": {
        "coding": [ {
          "system": "http://terminology.hl7.org/CodeSystem/condition-ver-status",
          "code": "confirmed"
        } ]
      },
      "category": [ {
        "coding": [ {
          "system": "http://terminology.hl7.org/CodeSystem/condition-category",
          "code": "encounter-diagnosis",
          "display": "Encounter Diagnosis"
        } ]
      } ],
      "code": {
        "coding": [ {
          "system": "http://snomed.info/sct",
          "version": "2021-09",
          "code": "111297002",
          "display": "Nonparalytic stroke (disorder)",
          "userSelected": true
        } ]
      },
      "subject": {
        "reference": "Patient/3023ca44-3a4f-4be3-931b-784e9c9c46e9"
      },
      "recordedDate": "2026-10-13T08:00:00.000+00:00"
    },
    "request": {
      "method": "PUT",
      "url": "Condition/4a58b66e-91c4-4d64-b212-425d4d71ef15"
    }
  }, {
    "fullUrl": "https://madie.cms.gov/claim/5ca62962b8484628b8de1ec5",
    "resource": {
      "resourceType": "Claim",
      "id": "5ca62962b8484628b8de1ec5",
      "meta": {
        "profile": [ "http://hl7.org/fhir/us/qicore/StructureDefinition/qicore-claim" ]
      },
      "status": "active",
      "type": {
        "coding": [ {
          "system": "http://terminology.hl7.org/CodeSystem/claim-type",
          "code": "institutional"
        } ]
      },
      "use": "claim",
      "patient": {
        "reference": "Patient/d170a0a8-b5ad-4303-b6df-e304dd5f92ad"
      },
      "created": "2026-12-01",
      "provider": {
        "reference": "Practitioner/aee6ef39-924e-4ebb-a72d-bcb0061b164c"
      },
      "priority": {
        "coding": [ {
          "system": "http://terminology.hl7.org/CodeSystem/processpriority",
          "code": "normal"
        } ]
      },
      "diagnosis": [ {
        "sequence": 1,
        "diagnosisCodeableConcept": {
          "coding": [ {
            "system": "http://hl7.org/fhir/sid/icd-10-cm",
            "code": "I63.00"
          } ]
        },
        "type": [ {
          "coding": [ {
            "system": "http://terminology.hl7.org/CodeSystem/ex-diagnosistype",
            "code": "principal"
          } ]
        } ]
      } ],
      "insurance": [ {
        "sequence": 1,
        "focal": true,
        "coverage": {
          "reference": "Coverage/5fa041661c76ba66d9959367"
        }
      } ],
      "item": [ {
        "sequence": 1,
        "diagnosisSequence": [ 1 ],
        "productOrService": {
          "coding": [ {
            "system": "http://terminology.hl7.org/CodeSystem/ex-USCLS",
            "code": "99555"
          } ]
        },
        "encounter": [ {
          "reference": "Encounter/34ac8dba-e461-4846-a67d-722e9d823bdc"
        } ]
      } ]
    },
    "request": {
      "method": "PUT",
      "url": "Claim/5ca62962b8484628b8de1ec5"
    }
  }, {
    "fullUrl": "https://madie.cms.gov/Organization/33bfe2d1-69b2-424b-9933-d134316fe01b",
    "resource": {
      "resourceType": "Organization",
      "id": "33bfe2d1-69b2-424b-9933-d134316fe01b",
      "meta": {
        "profile": [ "http://hl7.org/fhir/us/qicore/StructureDefinition/qicore-organization" ]
      },
      "identifier": [ {
        "use": "temp",
        "system": "urn:oid:2.16.840.1.113883.4.4",
        "value": "21-3259825"
      } ],
      "active": true,
      "type": [ {
        "coding": [ {
          "system": "http://terminology.hl7.org/CodeSystem/organization-type",
          "code": "pay",
          "display": "Payer"
        } ]
      } ],
      "name": "Blue Cross Blue Shield of Texas",
      "telecom": [ {
        "system": "phone",
        "value": "(+1) 972-766-6900"
      } ],
      "address": [ {
        "use": "billing",
        "type": "postal",
        "line": [ "P.O. Box 660044" ],
        "city": "Dallas",
        "state": "TX",
        "postalCode": "75266-0044",
        "country": "USA"
      } ]
    },
    "request": {
      "method": "PUT",
      "url": "Organization/33bfe2d1-69b2-424b-9933-d134316fe01b"
    }
  }, {
    "fullUrl": "https://madie.cms.gov/Practitioner/aee6ef39-924e-4ebb-a72d-bcb0061b164c",
    "resource": {
      "resourceType": "Practitioner",
      "id": "aee6ef39-924e-4ebb-a72d-bcb0061b164c",
      "meta": {
        "profile": [ "http://hl7.org/fhir/us/qicore/StructureDefinition/qicore-practitioner" ]
      },
      "identifier": [ {
        "system": "http://hl7.org/fhir/sid/us-npi",
        "value": "9999999896"
      } ],
      "name": [ {
        "family": "Evil",
        "prefix": [ "Dr" ]
      } ]
    },
    "request": {
      "method": "PUT",
      "url": "Practitioner/aee6ef39-924e-4ebb-a72d-bcb0061b164c"
    }
  }, {
    "fullUrl": "https://madie.cms.gov/MeasureReport/fa240494-73cf-4e02-a23e-e22a3576acdd",
    "resource": {
      "resourceType": "MeasureReport",
      "id": "fa240494-73cf-4e02-a23e-e22a3576acdd",
      "meta": {
        "profile": [ "http://hl7.org/fhir/us/cqfmeasures/StructureDefinition/test-case-cqfm" ]
      },
      "contained": [ {
        "resourceType": "Parameters",
        "id": "4b62ef4d-c969-4771-8f7e-6b9dfa0f4ef3-parameters",
        "parameter": [ {
          "name": "subject",
          "valueString": "3023ca44-3a4f-4be3-931b-784e9c9c46e9"
        } ]
      } ],
      "extension": [ {
        "url": "http://hl7.org/fhir/StructureDefinition/cqf-inputParameters",
        "valueReference": {
          "reference": "#4b62ef4d-c969-4771-8f7e-6b9dfa0f4ef3-parameters"
        }
      }, {
        "url": "http://hl7.org/fhir/us/cqfmeasures/StructureDefinition/cqfm-testCaseDescription",
        "valueMarkdown": "Patient receives CMO order during Observation. ED visit ends 61 min. before Obs start, Obs ends 61 min before Inpatient encounter. Testing HospitalizationWithObservation function.\n"
      } ],
      "modifierExtension": [ {
        "url": "http://hl7.org/fhir/us/cqfmeasures/StructureDefinition/cqfm-isTestCase",
        "valueBoolean": true
      } ],
      "status": "complete",
      "type": "individual",
      "measure": "https://madie.cms.gov/Measure/CMS71FHIRSTKAnticoagAFFlutter",
      "period": {
        "start": "2026-01-01",
        "end": "2026-12-31"
      },
      "group": [ {
        "id": "Group_1",
        "population": [ {
          "id": "InitialPopulation_1",
          "code": {
            "coding": [ {
              "system": "http://terminology.hl7.org/CodeSystem/measure-population",
              "code": "initial-population",
              "display": "Initial Population"
            } ]
          },
          "count": 1
        }, {
          "id": "Denominator_1",
          "code": {
            "coding": [ {
              "system": "http://terminology.hl7.org/CodeSystem/measure-population",
              "code": "denominator",
              "display": "Denominator"
            } ]
          },
          "count": 1
        }, {
          "id": "DenominatorExclusion_1",
          "code": {
            "coding": [ {
              "system": "http://terminology.hl7.org/CodeSystem/measure-population",
              "code": "denominator-exclusion",
              "display": "Denominator Exclusion"
            } ]
          },
          "count": 0
        }, {
          "id": "Numerator_1",
          "code": {
            "coding": [ {
              "system": "http://terminology.hl7.org/CodeSystem/measure-population",
              "code": "numerator",
              "display": "Numerator"
            } ]
          },
          "count": 0
        }, {
          "id": "DenominatorException_1",
          "code": {
            "coding": [ {
              "system": "http://terminology.hl7.org/CodeSystem/measure-population",
              "code": "denominator-exception",
              "display": "Denominator Exception"
            } ]
          },
          "count": 0
        } ],
        "measureScore": {
          "value": 0.0
        }
      } ],
      "evaluatedResource": [ {
        "reference": "Patient/3023ca44-3a4f-4be3-931b-784e9c9c46e9"
      }, {
        "reference": "Condition/6fe7a5bb-f8d6-4604-a760-99e4c2dc6719"
      }, {
        "reference": "Encounter/8da19ac1-5afa-48cc-ab4c-296677237cc1"
      }, {
        "reference": "Encounter/04e2db79-8c0a-47a3-ac9e-e3d861a31e7a"
      }, {
        "reference": "Encounter/34ac8dba-e461-4846-a67d-722e9d823bdc"
      }, {
        "reference": "ServiceRequest/c620402a-56ab-4071-acaa-7b086bbe2983"
      }, {
        "reference": "Coverage/71c8c1df-ce4a-446e-93bb-306bb13175a7"
      }, {
        "reference": "Condition/4a58b66e-91c4-4d64-b212-425d4d71ef15"
      }, {
        "reference": "Claim/5ca62962b8484628b8de1ec5"
      }, {
        "reference": "Organization/33bfe2d1-69b2-424b-9933-d134316fe01b"
      }, {
        "reference": "Practitioner/aee6ef39-924e-4ebb-a72d-bcb0061b164c"
      } ]
    },
    "request": {
      "method": "PUT",
      "url": "MeasureReport/fa240494-73cf-4e02-a23e-e22a3576acdd"
    }
  } ]
}