{
  "resourceType": "Bundle",
  "id": "612e6aff02c62a011f2ec0bb",
  "type": "transaction",
  "entry": [ {
    "fullUrl": "https://madie.cms.gov/Patient/8da72843-3486-4507-99f5-c9622a389384",
    "resource": {
      "resourceType": "Patient",
      "id": "8da72843-3486-4507-99f5-c9622a389384",
      "meta": {
        "profile": [ "http://hl7.org/fhir/us/qicore/StructureDefinition/qicore-patient" ]
      },
      "text": {
        "status": "generated",
        "div": "<div xmlns=\"http://www.w3.org/1999/xhtml\"><div class=\"hapiHeaderText\">EncDx_HemStrokeRank2 <b>DENEXFAIL </b></div><table class=\"hapiPropertyTable\"><tbody><tr><td>Identifier</td><td>29c9716eb5f48b54d7b337bf497e0e5e</td></tr><tr><td>Date of birth</td><td><span>01 December 2003</span></td></tr></tbody></table></div>"
      },
      "extension": [ {
        "url": "http://hl7.org/fhir/us/core/StructureDefinition/us-core-race",
        "extension": [ {
          "url": "ombCategory",
          "valueCoding": {
            "system": "urn:oid:2.16.840.1.113883.6.238",
            "code": "1002-5",
            "display": "American Indian or Alaska Native",
            "userSelected": true
          }
        }, {
          "url": "text",
          "valueString": "American Indian or Alaska Native"
        } ]
      }, {
        "url": "http://hl7.org/fhir/us/core/StructureDefinition/us-core-ethnicity",
        "extension": [ {
          "url": "ombCategory",
          "valueCoding": {
            "system": "urn:oid:2.16.840.1.113883.6.238",
            "code": "2135-2",
            "display": "Hispanic or Latino",
            "userSelected": true
          }
        }, {
          "url": "text",
          "valueString": "Hispanic or Latino"
        } ]
      } ],
      "identifier": [ {
        "type": {
          "coding": [ {
            "system": "http://terminology.hl7.org/CodeSystem/v2-0203",
            "code": "MR"
          } ]
        },
        "system": "https://bonnie-fhir.healthit.gov/",
        "value": "612e6aff02c62a011f2ec0bb"
      } ],
      "active": true,
      "name": [ {
        "use": "usual",
        "family": "DENEXFail",
        "given": [ "EncDxHemStrokeRank2" ]
      } ],
      "gender": "female",
      "birthDate": "2004-11-30"
    },
    "request": {
      "method": "PUT",
      "url": "Patient/8da72843-3486-4507-99f5-c9622a389384"
    }
  }, {
    "fullUrl": "https://madie.cms.gov/Encounter/6144f383-4c0f-4830-9950-1805c3867432",
    "resource": {
      "resourceType": "Encounter",
      "id": "6144f383-4c0f-4830-9950-1805c3867432",
      "meta": {
        "profile": [ "http://hl7.org/fhir/us/qicore/StructureDefinition/qicore-encounter" ]
      },
      "status": "finished",
      "class": {
        "system": "http://terminology.hl7.org/CodeSystem/v3-ActCode",
        "code": "IMP",
        "display": "inpatient encounter"
      },
      "type": [ {
        "coding": [ {
          "system": "http://snomed.info/sct",
          "code": "183452005"
        } ]
      } ],
      "subject": {
        "reference": "Patient/8da72843-3486-4507-99f5-c9622a389384"
      },
      "period": {
        "start": "2026-12-01T01:00:00.000+00:00",
        "end": "2026-12-31T23:59:00.000+00:00"
      },
      "length": {
        "value": 30,
        "unit": "days"
      }
    },
    "request": {
      "method": "PUT",
      "url": "Encounter/6144f383-4c0f-4830-9950-1805c3867432"
    }
  }, {
    "fullUrl": "https://madie.cms.gov/claim/5ca62962b8484628b8de1ec5",
    "resource": {
      "resourceType": "Claim",
      "id": "5ca62962b8484628b8de1ec5",
      "meta": {
        "profile": [ "http://hl7.org/fhir/us/qicore/StructureDefinition/qicore-claim" ]
      },
      "status": "active",
      "type": {
        "coding": [ {
          "system": "http://terminology.hl7.org/CodeSystem/claim-type",
          "code": "institutional"
        } ]
      },
      "use": "claim",
      "patient": {
        "reference": "Patient/8da72843-3486-4507-99f5-c9622a389384"
      },
      "created": "2026-12-01",
      "provider": {
        "reference": "Practitioner/32e6f39e-54d3-4356-b7e0-653c9b9afb8e"
      },
      "priority": {
        "coding": [ {
          "system": "http://terminology.hl7.org/CodeSystem/processpriority",
          "code": "normal"
        } ]
      },
      "diagnosis": [ {
        "sequence": 2,
        "diagnosisCodeableConcept": {
          "coding": [ {
            "system": "http://hl7.org/fhir/sid/icd-10-cm",
            "code": "I61.2"
          } ]
        },
        "type": [ {
          "coding": [ {
            "system": "http://terminology.hl7.org/CodeSystem/ex-diagnosistype",
            "code": "secondary"
          } ]
        } ]
      } ],
      "insurance": [ {
        "sequence": 2,
        "focal": true,
        "coverage": {
          "reference": "Coverage/7f9b5814-00ee-4890-94d5-f9948082a689"
        }
      } ],
      "item": [ {
        "sequence": 1,
        "diagnosisSequence": [ 1 ],
        "productOrService": {
          "coding": [ {
            "system": "http://terminology.hl7.org/CodeSystem/ex-USCLS",
            "code": "99555"
          } ]
        },
        "encounter": [ {
          "reference": "Encounter/6144f383-4c0f-4830-9950-1805c3867432"
        } ]
      } ]
    },
    "request": {
      "method": "PUT",
      "url": "Claim/5ca62962b8484628b8de1ec5"
    }
  }, {
    "fullUrl": "https://madie.cms.gov/Coverage/7f9b5814-00ee-4890-94d5-f9948082a689",
    "resource": {
      "resourceType": "Coverage",
      "id": "7f9b5814-00ee-4890-94d5-f9948082a689",
      "status": "active",
      "beneficiary": {
        "reference": "Patient/8da72843-3486-4507-99f5-c9622a389384"
      },
      "period": {
        "start": "2004-12-01T01:00:00.000+00:00"
      },
      "payor": [ {
        "reference": "Organization/585d66d0-9a4a-46bd-a7aa-7598da3b9d6a"
      } ]
    },
    "request": {
      "method": "PUT",
      "url": "Coverage/7f9b5814-00ee-4890-94d5-f9948082a689"
    }
  }, {
    "fullUrl": "https://madie.cms.gov/Condition/f887e328-a637-4670-8109-e5afbaf8abdf",
    "resource": {
      "resourceType": "Condition",
      "id": "f887e328-a637-4670-8109-e5afbaf8abdf",
      "meta": {
        "profile": [ "http://hl7.org/fhir/us/qicore/StructureDefinition/qicore-condition" ]
      },
      "category": [ {
        "coding": [ {
          "system": "http://terminology.hl7.org/CodeSystem/condition-category",
          "code": "encounter-diagnosis",
          "display": "Encounter Diagnosis"
        } ]
      } ],
      "code": {
        "coding": [ {
          "system": "http://snomed.info/sct",
          "version": "2025-03",
          "code": "195155004",
          "display": "Subarachnoid hemorrhage from carotid siphon and bifurcation (disorder)",
          "userSelected": true
        } ]
      },
      "subject": {
        "reference": "Patient/8da72843-3486-4507-99f5-c9622a389384"
      },
      "recordedDate": "2026-07-12T08:00:00.000+00:00"
    },
    "request": {
      "method": "PUT",
      "url": "Condition/f887e328-a637-4670-8109-e5afbaf8abdf"
    }
  }, {
    "fullUrl": "https://madie.cms.gov/Organization/585d66d0-9a4a-46bd-a7aa-7598da3b9d6a",
    "resource": {
      "resourceType": "Organization",
      "id": "585d66d0-9a4a-46bd-a7aa-7598da3b9d6a",
      "meta": {
        "profile": [ "http://hl7.org/fhir/us/qicore/StructureDefinition/qicore-organization" ]
      },
      "identifier": [ {
        "use": "temp",
        "system": "urn:oid:2.16.840.1.113883.4.4",
        "value": "21-3259825"
      } ],
      "active": true,
      "type": [ {
        "coding": [ {
          "system": "http://terminology.hl7.org/CodeSystem/organization-type",
          "code": "pay",
          "display": "Payer"
        } ]
      } ],
      "name": "Blue Cross Blue Shield of Texas",
      "telecom": [ {
        "system": "phone",
        "value": "(+1) 972-766-6900"
      } ],
      "address": [ {
        "use": "billing",
        "type": "postal",
        "line": [ "P.O. Box 660044" ],
        "city": "Dallas",
        "state": "TX",
        "postalCode": "75266-0044",
        "country": "USA"
      } ]
    },
    "request": {
      "method": "PUT",
      "url": "Organization/585d66d0-9a4a-46bd-a7aa-7598da3b9d6a"
    }
  }, {
    "fullUrl": "https://madie.cms.gov/Practitioner/32e6f39e-54d3-4356-b7e0-653c9b9afb8e",
    "resource": {
      "resourceType": "Practitioner",
      "id": "32e6f39e-54d3-4356-b7e0-653c9b9afb8e",
      "identifier": [ {
        "system": "http://hl7.org/fhir/sid/us-npi",
        "value": "123456"
      } ],
      "name": [ {
        "family": "Evil",
        "prefix": [ "Dr" ]
      } ]
    },
    "request": {
      "method": "PUT",
      "url": "Practitioner/32e6f39e-54d3-4356-b7e0-653c9b9afb8e"
    }
  }, {
    "fullUrl": "https://madie.cms.gov/MeasureReport/c36eed49-7154-46b8-8a0a-3cb08a2eb60a",
    "resource": {
      "resourceType": "MeasureReport",
      "id": "c36eed49-7154-46b8-8a0a-3cb08a2eb60a",
      "meta": {
        "profile": [ "http://hl7.org/fhir/us/cqfmeasures/StructureDefinition/test-case-cqfm" ]
      },
      "contained": [ {
        "resourceType": "Parameters",
        "id": "3e7f46c7-ed84-44eb-93e4-debae48d4aa0-parameters",
        "parameter": [ {
          "name": "subject",
          "valueString": "8da72843-3486-4507-99f5-c9622a389384"
        } ]
      } ],
      "extension": [ {
        "url": "http://hl7.org/fhir/StructureDefinition/cqf-inputParameters",
        "valueReference": {
          "reference": "#3e7f46c7-ed84-44eb-93e4-debae48d4aa0-parameters"
        }
      }, {
        "url": "http://hl7.org/fhir/us/cqfmeasures/StructureDefinition/cqfm-testCaseDescription",
        "valueMarkdown": "Encounter Dx of HemStroke without Rank =2 (rank = 0 is not valid value due to QICore).\n"
      } ],
      "modifierExtension": [ {
        "url": "http://hl7.org/fhir/us/cqfmeasures/StructureDefinition/cqfm-isTestCase",
        "valueBoolean": true
      } ],
      "status": "complete",
      "type": "individual",
      "measure": "https://madie.cms.gov/Measure/CMS108FHIRVTEProphylaxis",
      "period": {
        "start": "2026-01-01",
        "end": "2026-12-31"
      },
      "group": [ {
        "id": "Group_1",
        "population": [ {
          "id": "InitialPopulation_1",
          "code": {
            "coding": [ {
              "system": "http://terminology.hl7.org/CodeSystem/measure-population",
              "code": "initial-population",
              "display": "Initial Population"
            } ]
          },
          "count": 1
        }, {
          "id": "Denominator_1",
          "code": {
            "coding": [ {
              "system": "http://terminology.hl7.org/CodeSystem/measure-population",
              "code": "denominator",
              "display": "Denominator"
            } ]
          },
          "count": 1
        }, {
          "id": "DenominatorExclusion_1",
          "code": {
            "coding": [ {
              "system": "http://terminology.hl7.org/CodeSystem/measure-population",
              "code": "denominator-exclusion",
              "display": "Denominator Exclusion"
            } ]
          },
          "count": 0
        }, {
          "id": "Numerator_1",
          "code": {
            "coding": [ {
              "system": "http://terminology.hl7.org/CodeSystem/measure-population",
              "code": "numerator",
              "display": "Numerator"
            } ]
          },
          "count": 0
        } ],
        "measureScore": {
          "value": 0.0
        }
      } ],
      "evaluatedResource": [ {
        "reference": "Patient/8da72843-3486-4507-99f5-c9622a389384"
      }, {
        "reference": "Encounter/6144f383-4c0f-4830-9950-1805c3867432"
      }, {
        "reference": "Claim/5ca62962b8484628b8de1ec5"
      }, {
        "reference": "Coverage/7f9b5814-00ee-4890-94d5-f9948082a689"
      }, {
        "reference": "Condition/f887e328-a637-4670-8109-e5afbaf8abdf"
      }, {
        "reference": "Organization/585d66d0-9a4a-46bd-a7aa-7598da3b9d6a"
      }, {
        "reference": "Practitioner/32e6f39e-54d3-4356-b7e0-653c9b9afb8e"
      } ]
    },
    "request": {
      "method": "PUT",
      "url": "MeasureReport/c36eed49-7154-46b8-8a0a-3cb08a2eb60a"
    }
  } ]
}