{
  "resourceType": "Bundle",
  "id": "DENEX2Pass-HospiceProcedureStartsDuringMP",
  "type": "transaction",
  "entry": [ {
    "fullUrl": "https://madie.cms.gov/Patient/cb044844-e03d-4758-bf40-1e4db68ed10e",
    "resource": {
      "resourceType": "Patient",
      "id": "cb044844-e03d-4758-bf40-1e4db68ed10e",
      "meta": {
        "profile": [ "http://hl7.org/fhir/us/qicore/StructureDefinition/qicore-patient" ]
      },
      "extension": [ {
        "url": "http://hl7.org/fhir/us/core/StructureDefinition/us-core-race",
        "extension": [ {
          "url": "ombCategory",
          "valueCoding": {
            "system": "urn:oid:2.16.840.1.113883.6.238",
            "code": "2028-9",
            "display": "Asian",
            "userSelected": true
          }
        }, {
          "url": "text",
          "valueString": "Asian"
        } ]
      }, {
        "url": "http://hl7.org/fhir/us/core/StructureDefinition/us-core-ethnicity",
        "extension": [ {
          "url": "ombCategory",
          "valueCoding": {
            "system": "urn:oid:2.16.840.1.113883.6.238",
            "code": "2135-2",
            "display": "Hispanic or Latino",
            "userSelected": true
          }
        }, {
          "url": "text",
          "valueString": "Hispanic or Latino"
        } ]
      } ],
      "identifier": [ {
        "type": {
          "coding": [ {
            "system": "http://terminology.hl7.org/CodeSystem/v2-0203",
            "code": "MR"
          } ]
        },
        "system": "http://hospital.smarthealthit.org",
        "value": "999999995"
      } ],
      "name": [ {
        "family": "Bertha",
        "given": [ "Betty" ]
      } ],
      "gender": "female",
      "birthDate": "2016-12-31"
    },
    "request": {
      "method": "PUT",
      "url": "Patient/cb044844-e03d-4758-bf40-1e4db68ed10e"
    }
  }, {
    "fullUrl": "https://madie.cms.gov/Encounter/52f01b1d-2121-4010-9001-6d02e2fddc8c",
    "resource": {
      "resourceType": "Encounter",
      "id": "52f01b1d-2121-4010-9001-6d02e2fddc8c",
      "meta": {
        "profile": [ "http://hl7.org/fhir/us/qicore/StructureDefinition/qicore-encounter" ]
      },
      "status": "finished",
      "class": {
        "system": "http://terminology.hl7.org/CodeSystem/v3-ActCode",
        "code": "AMB",
        "display": "ambulatory"
      },
      "type": [ {
        "coding": [ {
          "system": "http://snomed.info/sct",
          "code": "185464004",
          "display": "Out of hours visit - not night visit (procedure)"
        } ]
      } ],
      "subject": {
        "reference": "Patient/cb044844-e03d-4758-bf40-1e4db68ed10e"
      },
      "period": {
        "start": "2026-01-01T00:00:00.000+00:00",
        "end": "2026-01-01T01:00:00.000+00:00"
      }
    },
    "request": {
      "method": "PUT",
      "url": "Encounter/52f01b1d-2121-4010-9001-6d02e2fddc8c"
    }
  }, {
    "fullUrl": "https://madie.cms.gov/MedicationRequest/b012af83-6e40-46a2-a62e-501176b3729e",
    "resource": {
      "resourceType": "MedicationRequest",
      "id": "b012af83-6e40-46a2-a62e-501176b3729e",
      "meta": {
        "profile": [ "http://hl7.org/fhir/us/qicore/StructureDefinition/qicore-medicationrequest" ]
      },
      "status": "completed",
      "intent": "order",
      "medicationCodeableConcept": {
        "coding": [ {
          "system": "http://www.nlm.nih.gov/research/umls/rxnorm",
          "code": "884173",
          "display": "clonidine hydrochloride 0.1 MG Oral Tablet"
        } ]
      },
      "subject": {
        "reference": "Patient/cb044844-e03d-4758-bf40-1e4db68ed10e"
      },
      "authoredOn": "2026-01-02T00:00:00.000+00:00",
      "requester": {
        "reference": "Practitioner/example"
      },
      "dosageInstruction": [ {
        "timing": {
          "repeat": {
            "boundsPeriod": {
              "start": "2026-01-02T00:00:00.000+00:00",
              "end": "2026-07-30T23:59:59.000+00:00"
            }
          }
        }
      } ],
      "dispenseRequest": {
        "expectedSupplyDuration": {
          "value": 210,
          "system": "http://unitsofmeasure.org",
          "code": "d"
        }
      }
    },
    "request": {
      "method": "PUT",
      "url": "MedicationRequest/b012af83-6e40-46a2-a62e-501176b3729e"
    }
  }, {
    "fullUrl": "https://madie.cms.gov/Encounter/de3eff48-195c-419d-90a4-e2769888be37",
    "resource": {
      "resourceType": "Encounter",
      "id": "de3eff48-195c-419d-90a4-e2769888be37",
      "meta": {
        "profile": [ "http://hl7.org/fhir/us/qicore/StructureDefinition/qicore-encounter" ]
      },
      "status": "finished",
      "class": {
        "system": "http://terminology.hl7.org/CodeSystem/v3-ActCode",
        "code": "AMB",
        "display": "ambulatory"
      },
      "type": [ {
        "coding": [ {
          "system": "http://www.ama-assn.org/go/cpt",
          "code": "90791",
          "display": "Psychiatric diagnostic evaluation"
        } ]
      } ],
      "subject": {
        "reference": "Patient/cb044844-e03d-4758-bf40-1e4db68ed10e"
      },
      "period": {
        "start": "2026-01-31T00:00:00.000+00:00",
        "end": "2026-01-31T01:00:00.000+00:00"
      }
    },
    "request": {
      "method": "PUT",
      "url": "Encounter/de3eff48-195c-419d-90a4-e2769888be37"
    }
  }, {
    "fullUrl": "https://madie.cms.gov/Encounter/40fe9e21-49b5-45bf-84a3-38216c643bb1",
    "resource": {
      "resourceType": "Encounter",
      "id": "40fe9e21-49b5-45bf-84a3-38216c643bb1",
      "meta": {
        "profile": [ "http://hl7.org/fhir/us/qicore/StructureDefinition/qicore-encounter" ]
      },
      "status": "finished",
      "class": {
        "system": "http://terminology.hl7.org/CodeSystem/v3-ActCode",
        "code": "AMB",
        "display": "ambulatory"
      },
      "type": [ {
        "coding": [ {
          "system": "http://www.ama-assn.org/go/cpt",
          "code": "90791",
          "display": "Psychiatric diagnostic evaluation"
        } ]
      } ],
      "subject": {
        "reference": "Patient/cb044844-e03d-4758-bf40-1e4db68ed10e"
      },
      "period": {
        "start": "2026-06-30T00:00:00.000+00:00",
        "end": "2026-06-30T01:00:00.000+00:00"
      }
    },
    "request": {
      "method": "PUT",
      "url": "Encounter/40fe9e21-49b5-45bf-84a3-38216c643bb1"
    }
  }, {
    "fullUrl": "https://madie.cms.gov/Encounter/8a23da24-b51c-4469-bb29-039f7d4a77f4",
    "resource": {
      "resourceType": "Encounter",
      "id": "8a23da24-b51c-4469-bb29-039f7d4a77f4",
      "meta": {
        "profile": [ "http://hl7.org/fhir/us/qicore/StructureDefinition/qicore-encounter" ]
      },
      "status": "finished",
      "class": {
        "system": "http://terminology.hl7.org/CodeSystem/v3-ActCode",
        "code": "AMB",
        "display": "ambulatory"
      },
      "type": [ {
        "coding": [ {
          "system": "http://www.ama-assn.org/go/cpt",
          "code": "99245",
          "display": "Office or other outpatient consultation for a new or established patient, which requires a medically appropriate history and/or examination and high level of medical decision making. When using total time on the date of the encounter for code selection, 55 minutes must be met or exceeded."
        } ]
      } ],
      "subject": {
        "reference": "Patient/cb044844-e03d-4758-bf40-1e4db68ed10e"
      },
      "period": {
        "start": "2026-08-31T00:00:00.000+00:00",
        "end": "2026-08-31T01:00:00.000+00:00"
      }
    },
    "request": {
      "method": "PUT",
      "url": "Encounter/8a23da24-b51c-4469-bb29-039f7d4a77f4"
    }
  }, {
    "fullUrl": "https://madie.cms.gov/Procedure/b181b3e2-2fb3-4acc-a4b9-9dd1a056b2dd",
    "resource": {
      "resourceType": "Procedure",
      "id": "b181b3e2-2fb3-4acc-a4b9-9dd1a056b2dd",
      "meta": {
        "profile": [ "http://hl7.org/fhir/us/qicore/StructureDefinition/qicore-procedure" ]
      },
      "extension": [ {
        "url": "http://hl7.org/fhir/us/qicore/StructureDefinition/qicore-recorded",
        "valueDateTime": "2026-12-31T00:00:00.000+00:00"
      } ],
      "status": "completed",
      "code": {
        "coding": [ {
          "system": "http://snomed.info/sct",
          "code": "385763009",
          "display": "Hospice care (regime/therapy)"
        } ]
      },
      "subject": {
        "reference": "Patient/cb044844-e03d-4758-bf40-1e4db68ed10e"
      },
      "performedPeriod": {
        "start": "2026-12-31T00:00:00.000+00:00",
        "end": "2026-12-31T23:59:59.000+00:00"
      }
    },
    "request": {
      "method": "PUT",
      "url": "Procedure/b181b3e2-2fb3-4acc-a4b9-9dd1a056b2dd"
    }
  }, {
    "fullUrl": "https://madie.cms.gov/MeasureReport/db80673e-5d6e-4d5d-ba02-ebb033fc854f",
    "resource": {
      "resourceType": "MeasureReport",
      "id": "db80673e-5d6e-4d5d-ba02-ebb033fc854f",
      "meta": {
        "profile": [ "http://hl7.org/fhir/us/cqfmeasures/StructureDefinition/test-case-cqfm" ]
      },
      "contained": [ {
        "resourceType": "Parameters",
        "id": "3d8e32cb-372d-40ab-88a5-881817c26ee8-parameters",
        "parameter": [ {
          "name": "subject",
          "valueString": "cb044844-e03d-4758-bf40-1e4db68ed10e"
        } ]
      } ],
      "extension": [ {
        "url": "http://hl7.org/fhir/StructureDefinition/cqf-inputParameters",
        "valueReference": {
          "reference": "#3d8e32cb-372d-40ab-88a5-881817c26ee8-parameters"
        }
      }, {
        "url": "http://hl7.org/fhir/us/cqfmeasures/StructureDefinition/cqfm-testCaseDescription",
        "valueMarkdown": "Hospice procedure starts during the MP"
      } ],
      "modifierExtension": [ {
        "url": "http://hl7.org/fhir/us/cqfmeasures/StructureDefinition/cqfm-isTestCase",
        "valueBoolean": true
      } ],
      "status": "complete",
      "type": "individual",
      "measure": "https://madie.cms.gov/Measure/CMS136FHIRChildADHDMedFollowUp",
      "period": {
        "start": "2026-01-01",
        "end": "2026-12-31"
      },
      "group": [ {
        "id": "Group_1",
        "population": [ {
          "id": "InitialPopulation_1",
          "code": {
            "coding": [ {
              "system": "http://terminology.hl7.org/CodeSystem/measure-population",
              "code": "initial-population",
              "display": "Initial Population"
            } ]
          },
          "count": 1
        }, {
          "id": "Denominator_1",
          "code": {
            "coding": [ {
              "system": "http://terminology.hl7.org/CodeSystem/measure-population",
              "code": "denominator",
              "display": "Denominator"
            } ]
          },
          "count": 1
        }, {
          "id": "DenominatorExclusion_1",
          "code": {
            "coding": [ {
              "system": "http://terminology.hl7.org/CodeSystem/measure-population",
              "code": "denominator-exclusion",
              "display": "Denominator Exclusion"
            } ]
          },
          "count": 1
        }, {
          "id": "Numerator_1",
          "code": {
            "coding": [ {
              "system": "http://terminology.hl7.org/CodeSystem/measure-population",
              "code": "numerator",
              "display": "Numerator"
            } ]
          },
          "count": 0
        } ],
        "measureScore": {
          "value": 1.0
        }
      }, {
        "id": "Group_2",
        "population": [ {
          "id": "InitialPopulation_2",
          "code": {
            "coding": [ {
              "system": "http://terminology.hl7.org/CodeSystem/measure-population",
              "code": "initial-population",
              "display": "Initial Population"
            } ]
          },
          "count": 1
        }, {
          "id": "Denominator_2",
          "code": {
            "coding": [ {
              "system": "http://terminology.hl7.org/CodeSystem/measure-population",
              "code": "denominator",
              "display": "Denominator"
            } ]
          },
          "count": 1
        }, {
          "id": "DenominatorExclusion_2",
          "code": {
            "coding": [ {
              "system": "http://terminology.hl7.org/CodeSystem/measure-population",
              "code": "denominator-exclusion",
              "display": "Denominator Exclusion"
            } ]
          },
          "count": 1
        }, {
          "id": "Numerator_2",
          "code": {
            "coding": [ {
              "system": "http://terminology.hl7.org/CodeSystem/measure-population",
              "code": "numerator",
              "display": "Numerator"
            } ]
          },
          "count": 0
        } ],
        "measureScore": {
          "value": 1.0
        }
      } ],
      "evaluatedResource": [ {
        "reference": "Patient/cb044844-e03d-4758-bf40-1e4db68ed10e"
      }, {
        "reference": "Encounter/52f01b1d-2121-4010-9001-6d02e2fddc8c"
      }, {
        "reference": "MedicationRequest/b012af83-6e40-46a2-a62e-501176b3729e"
      }, {
        "reference": "Encounter/de3eff48-195c-419d-90a4-e2769888be37"
      }, {
        "reference": "Encounter/40fe9e21-49b5-45bf-84a3-38216c643bb1"
      }, {
        "reference": "Encounter/8a23da24-b51c-4469-bb29-039f7d4a77f4"
      }, {
        "reference": "Procedure/b181b3e2-2fb3-4acc-a4b9-9dd1a056b2dd"
      } ]
    },
    "request": {
      "method": "PUT",
      "url": "MeasureReport/db80673e-5d6e-4d5d-ba02-ebb033fc854f"
    }
  } ]
}