{
  "resourceType": "Bundle",
  "id": "612e6f3902c62a011f2f1183",
  "type": "transaction",
  "entry": [ {
    "fullUrl": "https://madie.cms.gov/Patient/0d48b3b3-c5f0-4955-810d-eb4f1b8714ca",
    "resource": {
      "resourceType": "Patient",
      "id": "0d48b3b3-c5f0-4955-810d-eb4f1b8714ca",
      "meta": {
        "profile": [ "http://hl7.org/fhir/us/qicore/StructureDefinition/qicore-patient" ]
      },
      "text": {
        "status": "generated",
        "div": "<div xmlns=\"http://www.w3.org/1999/xhtml\"><div class=\"hapiHeaderText\">FactorXa1MinAfterICUStartEncDxAFib <b>NUMERPASS </b></div><table class=\"hapiPropertyTable\"><tbody><tr><td>Identifier</td><td>213d087eb3bd92b3f3f6cdf55e6533f5</td></tr><tr><td>Date of birth</td><td><span>03 March 1974</span></td></tr></tbody></table></div>"
      },
      "extension": [ {
        "url": "http://hl7.org/fhir/us/core/StructureDefinition/us-core-race",
        "extension": [ {
          "url": "ombCategory",
          "valueCoding": {
            "system": "urn:oid:2.16.840.1.113883.6.238",
            "code": "1002-5",
            "display": "American Indian or Alaska Native",
            "userSelected": true
          }
        }, {
          "url": "text",
          "valueString": "American Indian or Alaska Native"
        } ]
      }, {
        "url": "http://hl7.org/fhir/us/core/StructureDefinition/us-core-ethnicity",
        "extension": [ {
          "url": "ombCategory",
          "valueCoding": {
            "system": "urn:oid:2.16.840.1.113883.6.238",
            "code": "2135-2",
            "display": "Hispanic or Latino",
            "userSelected": true
          }
        }, {
          "url": "text",
          "valueString": "Hispanic or Latino"
        } ]
      } ],
      "identifier": [ {
        "type": {
          "coding": [ {
            "system": "http://terminology.hl7.org/CodeSystem/v2-0203",
            "code": "MR"
          } ]
        },
        "system": "https://bonnie-fhir.healthit.gov/",
        "value": "612e6f3902c62a011f2f1183"
      } ],
      "active": true,
      "name": [ {
        "use": "usual",
        "family": "NUMERPass",
        "given": [ "FactorXa1MinAfterICUStartEncDxAFib" ]
      } ],
      "gender": "female",
      "birthDate": "1975-03-03"
    },
    "request": {
      "method": "PUT",
      "url": "Patient/0d48b3b3-c5f0-4955-810d-eb4f1b8714ca"
    }
  }, {
    "fullUrl": "https://madie.cms.gov/Encounter/be432733-b5ec-4bd1-9bc4-0f7fb4e0dbcd",
    "resource": {
      "resourceType": "Encounter",
      "id": "be432733-b5ec-4bd1-9bc4-0f7fb4e0dbcd",
      "meta": {
        "profile": [ "http://hl7.org/fhir/us/qicore/StructureDefinition/qicore-encounter" ]
      },
      "status": "finished",
      "class": {
        "system": "http://terminology.hl7.org/CodeSystem/v3-ActCode",
        "code": "IMP",
        "display": "inpatient encounter"
      },
      "type": [ {
        "coding": [ {
          "system": "http://snomed.info/sct",
          "code": "8715000"
        } ]
      } ],
      "subject": {
        "reference": "Patient/0d48b3b3-c5f0-4955-810d-eb4f1b8714ca"
      },
      "period": {
        "start": "2026-12-04T08:00:00.000+00:00",
        "end": "2026-12-30T08:15:00.000+00:00"
      },
      "length": {
        "value": 26,
        "unit": "days"
      },
      "reasonReference": [ {
        "reference": "Condition/4bf0c035-a42e-4f8c-859b-17c63b8e6bbe"
      } ],
      "location": [ {
        "location": {
          "reference": "Location/7e2b55aa-ab9c-4c7d-a749-138a1d47a3a8"
        },
        "period": {
          "start": "2026-12-06T08:00:00.000+00:00",
          "end": "2026-12-08T08:15:00.000+00:00"
        }
      } ]
    },
    "request": {
      "method": "PUT",
      "url": "Encounter/be432733-b5ec-4bd1-9bc4-0f7fb4e0dbcd"
    }
  }, {
    "fullUrl": "https://madie.cms.gov/Coverage/60154090-1677-4543-b3f6-6008fb17ac57",
    "resource": {
      "resourceType": "Coverage",
      "id": "60154090-1677-4543-b3f6-6008fb17ac57",
      "status": "active",
      "beneficiary": {
        "reference": "Patient/0d48b3b3-c5f0-4955-810d-eb4f1b8714ca"
      },
      "period": {
        "start": "1975-03-03T08:00:00.000+00:00"
      },
      "payor": [ {
        "reference": "Organization/9f1cd613-06cd-4b66-99b1-86617be1a25d"
      } ]
    },
    "request": {
      "method": "PUT",
      "url": "Coverage/60154090-1677-4543-b3f6-6008fb17ac57"
    }
  }, {
    "fullUrl": "https://madie.cms.gov/MedicationAdministration/dd1f2512-3694-48af-8c27-b8e5addaf8ab",
    "resource": {
      "resourceType": "MedicationAdministration",
      "id": "dd1f2512-3694-48af-8c27-b8e5addaf8ab",
      "meta": {
        "profile": [ "http://hl7.org/fhir/us/qicore/StructureDefinition/qicore-medicationadministration" ]
      },
      "status": "completed",
      "medicationCodeableConcept": {
        "coding": [ {
          "system": "http://www.nlm.nih.gov/research/umls/rxnorm",
          "code": "1364435",
          "display": "apixaban 2.5 MG Oral Tablet",
          "userSelected": true
        } ]
      },
      "subject": {
        "reference": "Patient/0d48b3b3-c5f0-4955-810d-eb4f1b8714ca"
      },
      "effectivePeriod": {
        "start": "2026-12-06T08:01:00.000+00:00"
      }
    },
    "request": {
      "method": "PUT",
      "url": "MedicationAdministration/dd1f2512-3694-48af-8c27-b8e5addaf8ab"
    }
  }, {
    "fullUrl": "https://madie.cms.gov/Location/7e2b55aa-ab9c-4c7d-a749-138a1d47a3a8",
    "resource": {
      "resourceType": "Location",
      "id": "7e2b55aa-ab9c-4c7d-a749-138a1d47a3a8",
      "meta": {
        "profile": [ "http://hl7.org/fhir/us/qicore/StructureDefinition/qicore-location" ]
      },
      "identifier": [ {
        "use": "usual",
        "system": "http://exampleoflocation.com",
        "value": "B1-S.F2"
      } ],
      "name": "Medical Surgical East, first floor",
      "type": [ {
        "coding": [ {
          "system": "https://www.cdc.gov/nhsn/cdaportal/terminology/codesystem/hsloc.html",
          "code": "1025-6",
          "display": "Trauma Critical Care",
          "userSelected": true
        } ]
      } ]
    },
    "request": {
      "method": "PUT",
      "url": "Location/7e2b55aa-ab9c-4c7d-a749-138a1d47a3a8"
    }
  }, {
    "fullUrl": "https://madie.cms.gov/Condition/4bf0c035-a42e-4f8c-859b-17c63b8e6bbe",
    "resource": {
      "resourceType": "Condition",
      "id": "4bf0c035-a42e-4f8c-859b-17c63b8e6bbe",
      "meta": {
        "profile": [ "http://hl7.org/fhir/us/qicore/StructureDefinition/qicore-condition-encounter-diagnosis" ]
      },
      "category": [ {
        "coding": [ {
          "system": "http://terminology.hl7.org/CodeSystem/condition-category",
          "code": "encounter-diagnosis",
          "display": "Encounter Diagnosis"
        } ]
      } ],
      "code": {
        "coding": [ {
          "system": "http://snomed.info/sct",
          "version": "2025-09",
          "code": "120041000119109",
          "display": "Atrial fibrillation with rapid ventricular response (disorder)",
          "userSelected": true
        } ]
      },
      "subject": {
        "reference": "Patient/0d48b3b3-c5f0-4955-810d-eb4f1b8714ca"
      },
      "recordedDate": "2026-10-20T08:00:00.000+00:00"
    },
    "request": {
      "method": "PUT",
      "url": "Condition/4bf0c035-a42e-4f8c-859b-17c63b8e6bbe"
    }
  }, {
    "fullUrl": "https://madie.cms.gov/Organization/9f1cd613-06cd-4b66-99b1-86617be1a25d",
    "resource": {
      "resourceType": "Organization",
      "id": "9f1cd613-06cd-4b66-99b1-86617be1a25d",
      "meta": {
        "profile": [ "http://hl7.org/fhir/us/qicore/StructureDefinition/qicore-organization" ]
      },
      "identifier": [ {
        "use": "temp",
        "system": "urn:oid:2.16.840.1.113883.4.4",
        "value": "21-3259825"
      } ],
      "active": true,
      "type": [ {
        "coding": [ {
          "system": "http://terminology.hl7.org/CodeSystem/organization-type",
          "code": "pay",
          "display": "Payer"
        } ]
      } ],
      "name": "Blue Cross Blue Shield of Texas",
      "telecom": [ {
        "system": "phone",
        "value": "(+1) 972-766-6900"
      } ],
      "address": [ {
        "use": "billing",
        "type": "postal",
        "line": [ "P.O. Box 660044" ],
        "city": "Dallas",
        "state": "TX",
        "postalCode": "75266-0044",
        "country": "USA"
      } ]
    },
    "request": {
      "method": "PUT",
      "url": "Organization/9f1cd613-06cd-4b66-99b1-86617be1a25d"
    }
  }, {
    "fullUrl": "https://madie.cms.gov/Practitioner/9e392f51-ac0b-4e1f-984c-777ee8bbb413",
    "resource": {
      "resourceType": "Practitioner",
      "id": "9e392f51-ac0b-4e1f-984c-777ee8bbb413",
      "identifier": [ {
        "system": "http://hl7.org/fhir/sid/us-npi",
        "value": "123456"
      } ],
      "name": [ {
        "family": "Evil",
        "prefix": [ "Dr" ]
      } ]
    },
    "request": {
      "method": "PUT",
      "url": "Practitioner/9e392f51-ac0b-4e1f-984c-777ee8bbb413"
    }
  }, {
    "fullUrl": "https://madie.cms.gov/MeasureReport/5d54d480-fcae-4160-980f-caa39eff90e1",
    "resource": {
      "resourceType": "MeasureReport",
      "id": "5d54d480-fcae-4160-980f-caa39eff90e1",
      "meta": {
        "profile": [ "http://hl7.org/fhir/us/cqfmeasures/StructureDefinition/test-case-cqfm" ]
      },
      "contained": [ {
        "resourceType": "Parameters",
        "id": "fe9f8eb2-e937-4ce3-bd57-6b6f9b9ce8b0-parameters",
        "parameter": [ {
          "name": "subject",
          "valueString": "0d48b3b3-c5f0-4955-810d-eb4f1b8714ca"
        } ]
      } ],
      "extension": [ {
        "url": "http://hl7.org/fhir/StructureDefinition/cqf-inputParameters",
        "valueReference": {
          "reference": "#fe9f8eb2-e937-4ce3-bd57-6b6f9b9ce8b0-parameters"
        }
      }, {
        "url": "http://hl7.org/fhir/us/cqfmeasures/StructureDefinition/cqfm-testCaseDescription",
        "valueMarkdown": "Oral factor Xa administered 1 min after ICU.start, Enc Dx of atrial fibrillation.\n"
      } ],
      "modifierExtension": [ {
        "url": "http://hl7.org/fhir/us/cqfmeasures/StructureDefinition/cqfm-isTestCase",
        "valueBoolean": true
      } ],
      "status": "complete",
      "type": "individual",
      "measure": "https://madie.cms.gov/Measure/CMS190FHIRVTEProphylaxisICU",
      "period": {
        "start": "2026-01-01",
        "end": "2026-12-31"
      },
      "group": [ {
        "id": "Group_1",
        "population": [ {
          "id": "InitialPopulation_1",
          "code": {
            "coding": [ {
              "system": "http://terminology.hl7.org/CodeSystem/measure-population",
              "code": "initial-population",
              "display": "Initial Population"
            } ]
          },
          "count": 1
        }, {
          "id": "Denominator_1",
          "code": {
            "coding": [ {
              "system": "http://terminology.hl7.org/CodeSystem/measure-population",
              "code": "denominator",
              "display": "Denominator"
            } ]
          },
          "count": 1
        }, {
          "id": "DenominatorExclusion_1",
          "code": {
            "coding": [ {
              "system": "http://terminology.hl7.org/CodeSystem/measure-population",
              "code": "denominator-exclusion",
              "display": "Denominator Exclusion"
            } ]
          },
          "count": 0
        }, {
          "id": "Numerator_1",
          "code": {
            "coding": [ {
              "system": "http://terminology.hl7.org/CodeSystem/measure-population",
              "code": "numerator",
              "display": "Numerator"
            } ]
          },
          "count": 1
        }, {
          "id": "DenominatorException_1",
          "code": {
            "coding": [ {
              "system": "http://terminology.hl7.org/CodeSystem/measure-population",
              "code": "denominator-exception",
              "display": "Denominator Exception"
            } ]
          },
          "count": 0
        } ],
        "measureScore": {
          "value": 0.0
        }
      } ],
      "evaluatedResource": [ {
        "reference": "Patient/0d48b3b3-c5f0-4955-810d-eb4f1b8714ca"
      }, {
        "reference": "Encounter/be432733-b5ec-4bd1-9bc4-0f7fb4e0dbcd"
      }, {
        "reference": "Coverage/60154090-1677-4543-b3f6-6008fb17ac57"
      }, {
        "reference": "MedicationAdministration/dd1f2512-3694-48af-8c27-b8e5addaf8ab"
      }, {
        "reference": "Location/7e2b55aa-ab9c-4c7d-a749-138a1d47a3a8"
      }, {
        "reference": "Condition/4bf0c035-a42e-4f8c-859b-17c63b8e6bbe"
      }, {
        "reference": "Organization/9f1cd613-06cd-4b66-99b1-86617be1a25d"
      }, {
        "reference": "Practitioner/9e392f51-ac0b-4e1f-984c-777ee8bbb413"
      } ]
    },
    "request": {
      "method": "PUT",
      "url": "MeasureReport/5d54d480-fcae-4160-980f-caa39eff90e1"
    }
  } ]
}