{
  "resourceType": "Bundle",
  "id": "RVwithAntidepressantPlanAtAdmission",
  "type": "transaction",
  "entry": [ {
    "fullUrl": "https://madie.cms.gov/Encounter/045f13aa-0dc4-4b6d-9402-e02c2d966054",
    "resource": {
      "resourceType": "Encounter",
      "id": "045f13aa-0dc4-4b6d-9402-e02c2d966054",
      "meta": {
        "profile": [ "http://hl7.org/fhir/us/qicore/StructureDefinition/qicore-encounter" ]
      },
      "status": "finished",
      "class": {
        "system": "http://terminology.hl7.org/CodeSystem/v3-ActCode",
        "code": "IMP",
        "display": "inpatient encounter"
      },
      "type": [ {
        "coding": [ {
          "system": "http://snomed.info/sct",
          "code": "183452005"
        } ]
      } ],
      "subject": {
        "reference": "Patient/f771a339-74f0-4651-90f3-1c820edea547"
      },
      "period": {
        "start": "2026-10-19T08:30:00.000+00:00",
        "end": "2026-10-31T08:15:00.000+00:00"
      },
      "reasonCode": [ {
        "coding": [ {
          "system": "http://snomed.info/sct",
          "code": "14047009"
        } ]
      }, {
        "coding": [ {
          "system": "http://snomed.info/sct",
          "code": "64859006"
        } ]
      } ]
    },
    "request": {
      "method": "PUT",
      "url": "Encounter/045f13aa-0dc4-4b6d-9402-e02c2d966054"
    }
  }, {
    "fullUrl": "https://madie.cms.gov/Encounter/541d364b-8a98-40bf-96dc-400f5ecd6fd3",
    "resource": {
      "resourceType": "Encounter",
      "id": "541d364b-8a98-40bf-96dc-400f5ecd6fd3",
      "meta": {
        "profile": [ "http://hl7.org/fhir/us/qicore/StructureDefinition/qicore-encounter" ]
      },
      "status": "finished",
      "class": {
        "system": "http://terminology.hl7.org/CodeSystem/v3-ActCode",
        "code": "EMER",
        "display": "emergency encounter"
      },
      "type": [ {
        "coding": [ {
          "system": "http://snomed.info/sct",
          "code": "4525004"
        } ]
      } ],
      "subject": {
        "reference": "Patient/f771a339-74f0-4651-90f3-1c820edea547"
      },
      "period": {
        "start": "2026-10-18T09:15:00.000+00:00",
        "end": "2026-10-19T08:15:00.000+00:00"
      }
    },
    "request": {
      "method": "PUT",
      "url": "Encounter/541d364b-8a98-40bf-96dc-400f5ecd6fd3"
    }
  }, {
    "fullUrl": "https://madie.cms.gov/Patient/f771a339-74f0-4651-90f3-1c820edea547",
    "resource": {
      "resourceType": "Patient",
      "id": "f771a339-74f0-4651-90f3-1c820edea547",
      "meta": {
        "profile": [ "http://hl7.org/fhir/us/qicore/StructureDefinition/qicore-patient" ]
      },
      "extension": [ {
        "url": "http://hl7.org/fhir/us/core/StructureDefinition/us-core-race",
        "extension": [ {
          "url": "ombCategory",
          "valueCoding": {
            "system": "urn:oid:2.16.840.1.113883.6.238",
            "code": "2106-3",
            "display": "White"
          }
        }, {
          "url": "text",
          "valueString": "White"
        } ]
      }, {
        "url": "http://hl7.org/fhir/us/core/StructureDefinition/us-core-ethnicity",
        "extension": [ {
          "url": "ombCategory",
          "valueCoding": {
            "system": "urn:oid:2.16.840.1.113883.6.238",
            "code": "2135-2",
            "display": "Hispanic or Latino"
          }
        }, {
          "url": "text",
          "valueString": "Hispanic or Latino"
        } ]
      }, {
        "url": "http://hl7.org/fhir/us/core/StructureDefinition/us-core-sex",
        "valueCode": "248153007"
      } ],
      "identifier": [ {
        "system": "http://hospital.smarthealthit.org",
        "value": "999999999"
      } ],
      "name": [ {
        "family": "Example",
        "given": [ "Patient" ]
      } ],
      "gender": "female",
      "birthDate": "1956-01-01"
    },
    "request": {
      "method": "PUT",
      "url": "Patient/f771a339-74f0-4651-90f3-1c820edea547"
    }
  }, {
    "fullUrl": "https://madie.cms.gov/Claim/0783e5c6-1fe7-407f-9d60-356ee5f66b62",
    "resource": {
      "resourceType": "Claim",
      "id": "0783e5c6-1fe7-407f-9d60-356ee5f66b62",
      "meta": {
        "profile": [ "http://hl7.org/fhir/us/qicore/StructureDefinition/qicore-claim" ]
      },
      "status": "active",
      "type": {
        "coding": [ {
          "system": "http://terminology.hl7.org/CodeSystem/claim-type",
          "code": "institutional",
          "display": "Institutional"
        } ]
      },
      "use": "claim",
      "patient": {
        "reference": "Patient/f771a339-74f0-4651-90f3-1c820edea547"
      },
      "created": "2026-10-22",
      "provider": {
        "reference": "Practitioner/practitioner-1"
      },
      "priority": {
        "coding": [ {
          "system": "http://terminology.hl7.org/CodeSystem/processpriority",
          "code": "normal"
        } ]
      },
      "diagnosis": [ {
        "sequence": 1,
        "diagnosisCodeableConcept": {
          "coding": [ {
            "system": "http://snomed.info/sct",
            "code": "14047009"
          } ]
        }
      } ],
      "insurance": [ {
        "sequence": 1,
        "focal": true,
        "coverage": {
          "reference": "Coverage/coverage-1"
        }
      } ],
      "item": [ {
        "sequence": 1,
        "diagnosisSequence": [ 1, 2 ],
        "productOrService": {
          "coding": [ {
            "system": "http://terminology.hl7.org/CodeSystem/ex-USCLS",
            "code": "1101"
          } ]
        },
        "encounter": [ {
          "reference": "Encounter/045f13aa-0dc4-4b6d-9402-e02c2d966054"
        } ]
      } ]
    },
    "request": {
      "method": "PUT",
      "url": "Claim/0783e5c6-1fe7-407f-9d60-356ee5f66b62"
    }
  }, {
    "fullUrl": "https://madie.cms.gov/Claim/3e5e3149-c644-4fb6-ac87-7df984c6309b",
    "resource": {
      "resourceType": "Claim",
      "id": "3e5e3149-c644-4fb6-ac87-7df984c6309b",
      "meta": {
        "profile": [ "http://hl7.org/fhir/us/qicore/StructureDefinition/qicore-claim" ]
      },
      "status": "active",
      "type": {
        "coding": [ {
          "system": "http://terminology.hl7.org/CodeSystem/claim-type",
          "code": "institutional",
          "display": "Institutional"
        } ]
      },
      "use": "claim",
      "patient": {
        "reference": "Patient/f771a339-74f0-4651-90f3-1c820edea547"
      },
      "created": "2026-11-01",
      "provider": {
        "reference": "Practitioner/practitioner-1"
      },
      "priority": {
        "coding": [ {
          "system": "http://terminology.hl7.org/CodeSystem/processpriority",
          "code": "normal"
        } ]
      },
      "diagnosis": [ {
        "sequence": 1,
        "diagnosisCodeableConcept": {
          "coding": [ {
            "system": "http://hl7.org/fhir/sid/icd-10-cm",
            "code": "M80.00XA",
            "display": "Age-related osteoporosis with current pathological fracture, unspecified site, initial encounter for fracture"
          } ]
        }
      } ],
      "insurance": [ {
        "sequence": 1,
        "focal": true,
        "coverage": {
          "reference": "Coverage/coverage-1"
        }
      } ],
      "item": [ {
        "sequence": 1,
        "diagnosisSequence": [ 1, 2 ],
        "productOrService": {
          "coding": [ {
            "system": "http://terminology.hl7.org/CodeSystem/ex-USCLS",
            "code": "1101"
          } ]
        },
        "encounter": [ {
          "reference": "Encounter/045f13aa-0dc4-4b6d-9402-e02c2d966054"
        } ]
      } ]
    },
    "request": {
      "method": "PUT",
      "url": "Claim/3e5e3149-c644-4fb6-ac87-7df984c6309b"
    }
  }, {
    "fullUrl": "https://madie.cms.gov/MedicationRequest/638d4940-4c08-4312-8131-d32495c5d7ad",
    "resource": {
      "resourceType": "MedicationRequest",
      "id": "638d4940-4c08-4312-8131-d32495c5d7ad",
      "meta": {
        "profile": [ "http://hl7.org/fhir/us/qicore/StructureDefinition/qicore-medicationrequest" ]
      },
      "status": "active",
      "intent": "plan",
      "category": [ {
        "coding": [ {
          "system": "http://terminology.hl7.org/CodeSystem/medicationrequest-category",
          "code": "community",
          "display": "Community"
        } ]
      } ],
      "medicationCodeableConcept": {
        "coding": [ {
          "system": "http://www.nlm.nih.gov/research/umls/rxnorm",
          "code": "1000048"
        } ]
      },
      "subject": {
        "reference": "Patient/f771a339-74f0-4651-90f3-1c820edea547"
      },
      "authoredOn": "2026-10-15",
      "requester": {
        "reference": "Practitioner/practitioner-1"
      },
      "dispenseRequest": {
        "quantity": {
          "value": 14,
          "unit": "tablet",
          "system": "http://unitsofmeasure.org",
          "code": "{tablet}"
        },
        "expectedSupplyDuration": {
          "value": 14,
          "unit": "days",
          "system": "http://unitsofmeasure.org",
          "code": "d"
        }
      }
    },
    "request": {
      "method": "PUT",
      "url": "MedicationRequest/638d4940-4c08-4312-8131-d32495c5d7ad"
    }
  }, {
    "fullUrl": "https://madie.cms.gov/Practitioner/258e1379-f052-4a2c-aaf1-83909fd81a2d",
    "resource": {
      "resourceType": "Practitioner",
      "id": "258e1379-f052-4a2c-aaf1-83909fd81a2d",
      "identifier": [ {
        "system": "http://www.cms.gov/identifiers/pracitioners",
        "value": "P12345"
      } ],
      "name": [ {
        "use": "official",
        "family": "Smith",
        "given": [ "John" ]
      } ],
      "qualification": [ {
        "identifier": [ {
          "system": "http://hl7.org/fhir/sid/us-npi",
          "value": "1234567890"
        } ],
        "code": {
          "coding": [ {
            "system": "http://terminology.hl7.org/CodeSystem/v2-0203",
            "code": "MD",
            "display": "Medical License number"
          } ]
        }
      } ]
    },
    "request": {
      "method": "PUT",
      "url": "Practitioner/258e1379-f052-4a2c-aaf1-83909fd81a2d"
    }
  }, {
    "fullUrl": "https://madie.cms.gov/Coverage/087df067-6f2c-4b0f-a4c5-ce2ad1261658",
    "resource": {
      "resourceType": "Coverage",
      "id": "087df067-6f2c-4b0f-a4c5-ce2ad1261658",
      "status": "active",
      "beneficiary": {
        "reference": "Patient/f771a339-74f0-4651-90f3-1c820edea547"
      },
      "payor": [ {
        "reference": "Organization/2ca9601e-bafe-4287-a4b5-1c0e98b8fcde"
      } ]
    },
    "request": {
      "method": "PUT",
      "url": "Coverage/087df067-6f2c-4b0f-a4c5-ce2ad1261658"
    }
  }, {
    "fullUrl": "https://madie.cms.gov/Organization/2ca9601e-bafe-4287-a4b5-1c0e98b8fcde",
    "resource": {
      "resourceType": "Organization",
      "id": "2ca9601e-bafe-4287-a4b5-1c0e98b8fcde",
      "identifier": [ {
        "system": "http://cms.gov/insurance-ids",
        "value": "AET12345"
      } ],
      "type": [ {
        "coding": [ {
          "system": "http://terminology.hl7.org/CodeSystem/organization-type",
          "code": "prov",
          "display": "Healthcare Provider"
        } ]
      } ],
      "name": "Aetna Insurance",
      "telecom": [ {
        "system": "phone",
        "value": "+1-800-123-4567"
      } ],
      "address": [ {
        "line": [ "123 Main Street" ],
        "city": "Cityville",
        "state": "CA",
        "postalCode": "12345",
        "country": "USA"
      } ]
    },
    "request": {
      "method": "PUT",
      "url": "Organization/2ca9601e-bafe-4287-a4b5-1c0e98b8fcde"
    }
  }, {
    "fullUrl": "https://madie.cms.gov/MeasureReport/283ac8a7-cd94-455f-af78-066c7397562e",
    "resource": {
      "resourceType": "MeasureReport",
      "id": "283ac8a7-cd94-455f-af78-066c7397562e",
      "meta": {
        "profile": [ "http://hl7.org/fhir/us/cqfmeasures/StructureDefinition/test-case-cqfm" ]
      },
      "contained": [ {
        "resourceType": "Parameters",
        "id": "b708e452-365b-44fe-b7c0-6969d2ee10cd-parameters",
        "parameter": [ {
          "name": "subject",
          "valueString": "f771a339-74f0-4651-90f3-1c820edea547"
        } ]
      } ],
      "extension": [ {
        "url": "http://hl7.org/fhir/StructureDefinition/cqf-inputParameters",
        "valueReference": {
          "reference": "#b708e452-365b-44fe-b7c0-6969d2ee10cd-parameters"
        }
      }, {
        "url": "http://hl7.org/fhir/us/cqfmeasures/StructureDefinition/cqfm-testCaseDescription",
        "valueMarkdown": "RVariable Encounter With CNSdepressant/Antidepressant Plan At Admission"
      } ],
      "modifierExtension": [ {
        "url": "http://hl7.org/fhir/us/cqfmeasures/StructureDefinition/cqfm-isTestCase",
        "valueBoolean": true
      } ],
      "status": "complete",
      "type": "individual",
      "measure": "https://madie.cms.gov/Measure/CMS1017FHIRHHFI",
      "period": {
        "start": "2026-01-01",
        "end": "2026-12-31"
      },
      "group": [ {
        "id": "Group_1",
        "population": [ {
          "id": "InitialPopulation_1",
          "code": {
            "coding": [ {
              "system": "http://terminology.hl7.org/CodeSystem/measure-population",
              "code": "initial-population",
              "display": "Initial Population"
            } ]
          },
          "count": 1
        }, {
          "id": "Denominator_1",
          "code": {
            "coding": [ {
              "system": "http://terminology.hl7.org/CodeSystem/measure-population",
              "code": "denominator",
              "display": "Denominator"
            } ]
          },
          "count": 1
        }, {
          "id": "DenominatorExclusion_1",
          "code": {
            "coding": [ {
              "system": "http://terminology.hl7.org/CodeSystem/measure-population",
              "code": "denominator-exclusion",
              "display": "Denominator Exclusion"
            } ]
          },
          "count": 0
        }, {
          "id": "Numerator_1",
          "code": {
            "coding": [ {
              "system": "http://terminology.hl7.org/CodeSystem/measure-population",
              "code": "numerator",
              "display": "Numerator"
            } ]
          },
          "count": 1
        }, {
          "id": "NumeratorExclusion_1",
          "code": {
            "coding": [ {
              "system": "http://terminology.hl7.org/CodeSystem/measure-population",
              "code": "numerator-exclusion",
              "display": "Numerator Exclusion"
            } ]
          },
          "count": 0
        }, {
          "id": "MeasureObservation_1_1_1",
          "code": {
            "coding": [ {
              "system": "http://terminology.hl7.org/CodeSystem/measure-population",
              "code": "measure-observation",
              "display": "Measure Observation"
            } ]
          },
          "count": 12
        }, {
          "id": "MeasureObservation_1_2_1",
          "code": {
            "coding": [ {
              "system": "http://terminology.hl7.org/CodeSystem/measure-population",
              "code": "measure-observation",
              "display": "Measure Observation"
            } ]
          },
          "count": 1
        } ],
        "measureScore": {
          "value": 0.0
        }
      } ],
      "evaluatedResource": [ {
        "reference": "Encounter/045f13aa-0dc4-4b6d-9402-e02c2d966054"
      }, {
        "reference": "Encounter/541d364b-8a98-40bf-96dc-400f5ecd6fd3"
      }, {
        "reference": "Patient/f771a339-74f0-4651-90f3-1c820edea547"
      }, {
        "reference": "Claim/0783e5c6-1fe7-407f-9d60-356ee5f66b62"
      }, {
        "reference": "Claim/3e5e3149-c644-4fb6-ac87-7df984c6309b"
      }, {
        "reference": "MedicationRequest/638d4940-4c08-4312-8131-d32495c5d7ad"
      }, {
        "reference": "Practitioner/258e1379-f052-4a2c-aaf1-83909fd81a2d"
      }, {
        "reference": "Coverage/087df067-6f2c-4b0f-a4c5-ce2ad1261658"
      }, {
        "reference": "Organization/2ca9601e-bafe-4287-a4b5-1c0e98b8fcde"
      } ]
    },
    "request": {
      "method": "PUT",
      "url": "MeasureReport/283ac8a7-cd94-455f-af78-066c7397562e"
    }
  } ]
}