{
  "resourceType": "Bundle",
  "id": "612e6a7d02c62a011f2ea2ee",
  "type": "transaction",
  "entry": [ {
    "fullUrl": "https://madie.cms.gov/Patient/0306790e-8c5b-40cb-b164-e5d7f79eef8f",
    "resource": {
      "resourceType": "Patient",
      "id": "0306790e-8c5b-40cb-b164-e5d7f79eef8f",
      "meta": {
        "profile": [ "http://hl7.org/fhir/us/qicore/StructureDefinition/qicore-patient" ]
      },
      "text": {
        "status": "generated",
        "div": "<div xmlns=\"http://www.w3.org/1999/xhtml\"><div class=\"hapiHeaderText\">MA_Warfarin_DayOfAdmit <b>NUMERPASS </b></div><table class=\"hapiPropertyTable\"><tbody><tr><td>Identifier</td><td>f6b3ce4fb2b87a4aa5f00ca8118e0e9a</td></tr><tr><td>Date of birth</td><td><span>02 January 1974</span></td></tr></tbody></table></div>"
      },
      "extension": [ {
        "url": "http://hl7.org/fhir/us/core/StructureDefinition/us-core-race",
        "extension": [ {
          "url": "ombCategory",
          "valueCoding": {
            "system": "urn:oid:2.16.840.1.113883.6.238",
            "code": "1002-5",
            "display": "American Indian or Alaska Native",
            "userSelected": true
          }
        }, {
          "url": "text",
          "valueString": "American Indian or Alaska Native"
        } ]
      }, {
        "url": "http://hl7.org/fhir/us/core/StructureDefinition/us-core-ethnicity",
        "extension": [ {
          "url": "ombCategory",
          "valueCoding": {
            "system": "urn:oid:2.16.840.1.113883.6.238",
            "code": "2135-2",
            "display": "Hispanic or Latino",
            "userSelected": true
          }
        }, {
          "url": "text",
          "valueString": "Hispanic or Latino"
        } ]
      } ],
      "identifier": [ {
        "type": {
          "coding": [ {
            "system": "http://terminology.hl7.org/CodeSystem/v2-0203",
            "code": "MR"
          } ]
        },
        "system": "https://bonnie-fhir.healthit.gov/",
        "value": "612e6a7d02c62a011f2ea2ee"
      } ],
      "active": true,
      "name": [ {
        "use": "usual",
        "family": "NUMERPass",
        "given": [ "MAWarfarinDayOfAdmit" ]
      } ],
      "gender": "male",
      "birthDate": "1975-01-02"
    },
    "request": {
      "method": "PUT",
      "url": "Patient/0306790e-8c5b-40cb-b164-e5d7f79eef8f"
    }
  }, {
    "fullUrl": "https://madie.cms.gov/Encounter/2d382511-f998-44fc-9325-07fb6565431d",
    "resource": {
      "resourceType": "Encounter",
      "id": "2d382511-f998-44fc-9325-07fb6565431d",
      "meta": {
        "profile": [ "http://hl7.org/fhir/us/qicore/StructureDefinition/qicore-encounter" ]
      },
      "status": "finished",
      "class": {
        "system": "http://terminology.hl7.org/CodeSystem/v3-ActCode",
        "code": "IMP",
        "display": "inpatient encounter"
      },
      "type": [ {
        "coding": [ {
          "system": "http://snomed.info/sct",
          "code": "8715000"
        } ]
      } ],
      "subject": {
        "reference": "Patient/0306790e-8c5b-40cb-b164-e5d7f79eef8f"
      },
      "period": {
        "start": "2026-11-01T08:00:00.000+00:00",
        "end": "2026-11-26T08:15:00.000+00:00"
      },
      "length": {
        "value": 25,
        "unit": "days"
      }
    },
    "request": {
      "method": "PUT",
      "url": "Encounter/2d382511-f998-44fc-9325-07fb6565431d"
    }
  }, {
    "fullUrl": "https://madie.cms.gov/Coverage/e09881bf-43bc-4e6b-a283-573b4a5d0893",
    "resource": {
      "resourceType": "Coverage",
      "id": "e09881bf-43bc-4e6b-a283-573b4a5d0893",
      "status": "active",
      "beneficiary": {
        "reference": "Patient/0306790e-8c5b-40cb-b164-e5d7f79eef8f"
      },
      "period": {
        "start": "1975-01-02T08:00:00.000+00:00"
      },
      "payor": [ {
        "reference": "Organization/71b38999-eadb-42d8-bb69-82d440e8f356"
      } ]
    },
    "request": {
      "method": "PUT",
      "url": "Coverage/e09881bf-43bc-4e6b-a283-573b4a5d0893"
    }
  }, {
    "fullUrl": "https://madie.cms.gov/MedicationAdministration/471a49a9-1bd4-43c9-a3ee-1a0d4e76e09b",
    "resource": {
      "resourceType": "MedicationAdministration",
      "id": "471a49a9-1bd4-43c9-a3ee-1a0d4e76e09b",
      "meta": {
        "profile": [ "http://hl7.org/fhir/us/qicore/StructureDefinition/qicore-medicationadministration" ]
      },
      "status": "completed",
      "medicationCodeableConcept": {
        "coding": [ {
          "system": "http://www.nlm.nih.gov/research/umls/rxnorm",
          "code": "855288"
        } ]
      },
      "subject": {
        "reference": "Patient/0306790e-8c5b-40cb-b164-e5d7f79eef8f"
      },
      "effectivePeriod": {
        "start": "2026-11-01T09:00:00.000+00:00",
        "end": "2026-11-01T09:15:00.000+00:00"
      }
    },
    "request": {
      "method": "PUT",
      "url": "MedicationAdministration/471a49a9-1bd4-43c9-a3ee-1a0d4e76e09b"
    }
  }, {
    "fullUrl": "https://madie.cms.gov/Organization/71b38999-eadb-42d8-bb69-82d440e8f356",
    "resource": {
      "resourceType": "Organization",
      "id": "71b38999-eadb-42d8-bb69-82d440e8f356",
      "meta": {
        "profile": [ "http://hl7.org/fhir/us/qicore/StructureDefinition/qicore-organization" ]
      },
      "identifier": [ {
        "use": "temp",
        "system": "urn:oid:2.16.840.1.113883.4.4",
        "value": "21-3259825"
      } ],
      "active": true,
      "type": [ {
        "coding": [ {
          "system": "http://terminology.hl7.org/CodeSystem/organization-type",
          "code": "pay",
          "display": "Payer"
        } ]
      } ],
      "name": "Blue Cross Blue Shield of Texas",
      "telecom": [ {
        "system": "phone",
        "value": "(+1) 972-766-6900"
      } ],
      "address": [ {
        "use": "billing",
        "type": "postal",
        "line": [ "P.O. Box 660044" ],
        "city": "Dallas",
        "state": "TX",
        "postalCode": "75266-0044",
        "country": "USA"
      } ]
    },
    "request": {
      "method": "PUT",
      "url": "Organization/71b38999-eadb-42d8-bb69-82d440e8f356"
    }
  }, {
    "fullUrl": "https://madie.cms.gov/Practitioner/2f4c9416-4c18-4d04-a71b-4e09c6c14cd4",
    "resource": {
      "resourceType": "Practitioner",
      "id": "2f4c9416-4c18-4d04-a71b-4e09c6c14cd4",
      "identifier": [ {
        "system": "http://hl7.org/fhir/sid/us-npi",
        "value": "123456"
      } ],
      "name": [ {
        "family": "Evil",
        "prefix": [ "Dr" ]
      } ]
    },
    "request": {
      "method": "PUT",
      "url": "Practitioner/2f4c9416-4c18-4d04-a71b-4e09c6c14cd4"
    }
  }, {
    "fullUrl": "https://madie.cms.gov/MeasureReport/ddfbcdde-0d54-440f-8c5d-ea6b019f86d1",
    "resource": {
      "resourceType": "MeasureReport",
      "id": "ddfbcdde-0d54-440f-8c5d-ea6b019f86d1",
      "meta": {
        "profile": [ "http://hl7.org/fhir/us/cqfmeasures/StructureDefinition/test-case-cqfm" ]
      },
      "contained": [ {
        "resourceType": "Parameters",
        "id": "0904d2bc-6d85-4b90-bbb3-5a1c72482c26-parameters",
        "parameter": [ {
          "name": "subject",
          "valueString": "0306790e-8c5b-40cb-b164-e5d7f79eef8f"
        } ]
      } ],
      "extension": [ {
        "url": "http://hl7.org/fhir/StructureDefinition/cqf-inputParameters",
        "valueReference": {
          "reference": "#0904d2bc-6d85-4b90-bbb3-5a1c72482c26-parameters"
        }
      }, {
        "url": "http://hl7.org/fhir/us/cqfmeasures/StructureDefinition/cqfm-testCaseDescription",
        "valueMarkdown": "warfarin administered during IP encounter\n"
      } ],
      "modifierExtension": [ {
        "url": "http://hl7.org/fhir/us/cqfmeasures/StructureDefinition/cqfm-isTestCase",
        "valueBoolean": true
      } ],
      "status": "complete",
      "type": "individual",
      "measure": "https://madie.cms.gov/Measure/CMS108FHIRVTEProphylaxis",
      "period": {
        "start": "2026-01-01",
        "end": "2026-12-31"
      },
      "group": [ {
        "id": "Group_1",
        "population": [ {
          "id": "InitialPopulation_1",
          "code": {
            "coding": [ {
              "system": "http://terminology.hl7.org/CodeSystem/measure-population",
              "code": "initial-population",
              "display": "Initial Population"
            } ]
          },
          "count": 1
        }, {
          "id": "Denominator_1",
          "code": {
            "coding": [ {
              "system": "http://terminology.hl7.org/CodeSystem/measure-population",
              "code": "denominator",
              "display": "Denominator"
            } ]
          },
          "count": 1
        }, {
          "id": "DenominatorExclusion_1",
          "code": {
            "coding": [ {
              "system": "http://terminology.hl7.org/CodeSystem/measure-population",
              "code": "denominator-exclusion",
              "display": "Denominator Exclusion"
            } ]
          },
          "count": 0
        }, {
          "id": "Numerator_1",
          "code": {
            "coding": [ {
              "system": "http://terminology.hl7.org/CodeSystem/measure-population",
              "code": "numerator",
              "display": "Numerator"
            } ]
          },
          "count": 1
        } ],
        "measureScore": {
          "value": 0.0
        }
      } ],
      "evaluatedResource": [ {
        "reference": "Patient/0306790e-8c5b-40cb-b164-e5d7f79eef8f"
      }, {
        "reference": "Encounter/2d382511-f998-44fc-9325-07fb6565431d"
      }, {
        "reference": "Coverage/e09881bf-43bc-4e6b-a283-573b4a5d0893"
      }, {
        "reference": "MedicationAdministration/471a49a9-1bd4-43c9-a3ee-1a0d4e76e09b"
      }, {
        "reference": "Organization/71b38999-eadb-42d8-bb69-82d440e8f356"
      }, {
        "reference": "Practitioner/2f4c9416-4c18-4d04-a71b-4e09c6c14cd4"
      } ]
    },
    "request": {
      "method": "PUT",
      "url": "MeasureReport/ddfbcdde-0d54-440f-8c5d-ea6b019f86d1"
    }
  } ]
}