{
  "resourceType": "Bundle",
  "id": "64137ab74b11b147841ab8f4",
  "type": "transaction",
  "entry": [ {
    "fullUrl": "https://madie.cms.gov/Patient/0ce4362d-60f0-41af-8d47-c61f76d025a4",
    "resource": {
      "resourceType": "Patient",
      "id": "0ce4362d-60f0-41af-8d47-c61f76d025a4",
      "meta": {
        "profile": [ "http://hl7.org/fhir/us/qicore/StructureDefinition/qicore-patient" ]
      },
      "extension": [ {
        "url": "http://hl7.org/fhir/us/core/StructureDefinition/us-core-race",
        "extension": [ {
          "url": "ombCategory",
          "valueCoding": {
            "system": "urn:oid:2.16.840.1.113883.6.238",
            "code": "1002-5",
            "display": "American Indian or Alaska Native",
            "userSelected": true
          }
        }, {
          "url": "text",
          "valueString": "American Indian or Alaska Native"
        } ]
      }, {
        "url": "http://hl7.org/fhir/us/core/StructureDefinition/us-core-ethnicity",
        "extension": [ {
          "url": "ombCategory",
          "valueCoding": {
            "system": "urn:oid:2.16.840.1.113883.6.238",
            "code": "2135-2",
            "display": "Hispanic or Latino",
            "userSelected": true
          }
        }, {
          "url": "text",
          "valueString": "Hispanic or Latino"
        } ]
      } ],
      "identifier": [ {
        "type": {
          "coding": [ {
            "system": "http://terminology.hl7.org/CodeSystem/v2-0203",
            "code": "MR"
          } ]
        },
        "system": "https://bonnie-fhir.healthit.gov/",
        "value": "64137ab74b11b147841ab8f4"
      } ],
      "name": [ {
        "family": "DENOMPass",
        "given": [ "DiabetesDxLastDayOfPriorYear" ]
      } ],
      "gender": "male",
      "birthDate": "1998-06-13"
    },
    "request": {
      "method": "PUT",
      "url": "Patient/0ce4362d-60f0-41af-8d47-c61f76d025a4"
    }
  }, {
    "fullUrl": "https://madie.cms.gov/Condition/f73f3b4b-1439-4ba6-8dc2-63d51c94c20c",
    "resource": {
      "resourceType": "Condition",
      "id": "f73f3b4b-1439-4ba6-8dc2-63d51c94c20c",
      "meta": {
        "profile": [ "http://hl7.org/fhir/us/qicore/StructureDefinition/qicore-condition-encounter-diagnosis" ]
      },
      "clinicalStatus": {
        "coding": [ {
          "system": "http://terminology.hl7.org/CodeSystem/condition-clinical",
          "code": "active",
          "display": "active",
          "userSelected": true
        } ]
      },
      "category": [ {
        "coding": [ {
          "system": "http://terminology.hl7.org/CodeSystem/condition-category",
          "code": "encounter-diagnosis",
          "display": "Encounter Diagnosis",
          "userSelected": true
        } ]
      } ],
      "code": {
        "coding": [ {
          "system": "http://snomed.info/sct",
          "version": "2021-09",
          "code": "102781000119107",
          "display": "Sensory neuropathy due to type 1 diabetes mellitus (disorder)",
          "userSelected": true
        } ]
      },
      "subject": {
        "reference": "Patient/0ce4362d-60f0-41af-8d47-c61f76d025a4"
      },
      "onsetDateTime": "2025-12-31T08:00:00.000+00:00"
    },
    "request": {
      "method": "PUT",
      "url": "Condition/f73f3b4b-1439-4ba6-8dc2-63d51c94c20c"
    }
  }, {
    "fullUrl": "https://madie.cms.gov/Encounter/50321399-1e3a-4a68-8769-b437b34fbd21",
    "resource": {
      "resourceType": "Encounter",
      "id": "50321399-1e3a-4a68-8769-b437b34fbd21",
      "meta": {
        "profile": [ "http://hl7.org/fhir/us/qicore/StructureDefinition/qicore-encounter" ]
      },
      "status": "finished",
      "class": {
        "system": "http://terminology.hl7.org/CodeSystem/v3-ActCode",
        "code": "AMB",
        "display": "ambulatory",
        "userSelected": true
      },
      "type": [ {
        "coding": [ {
          "system": "http://snomed.info/sct",
          "version": "2021-09",
          "code": "281036007",
          "display": "Follow-up consultation (procedure)",
          "userSelected": true
        } ]
      } ],
      "subject": {
        "reference": "Patient/0ce4362d-60f0-41af-8d47-c61f76d025a4"
      },
      "period": {
        "start": "2026-03-16T08:00:00.000+00:00",
        "end": "2026-03-16T08:15:00.000+00:00"
      }
    },
    "request": {
      "method": "PUT",
      "url": "Encounter/50321399-1e3a-4a68-8769-b437b34fbd21"
    }
  }, {
    "fullUrl": "https://madie.cms.gov/MeasureReport/1200ee11-135e-4eae-9442-22d04ab45096",
    "resource": {
      "resourceType": "MeasureReport",
      "id": "1200ee11-135e-4eae-9442-22d04ab45096",
      "meta": {
        "profile": [ "http://hl7.org/fhir/us/cqfmeasures/StructureDefinition/test-case-cqfm" ]
      },
      "contained": [ {
        "resourceType": "Parameters",
        "id": "3b00243c-9315-4adf-9eb9-bc100fd09fc5-parameters",
        "parameter": [ {
          "name": "subject",
          "valueString": "0ce4362d-60f0-41af-8d47-c61f76d025a4"
        } ]
      } ],
      "extension": [ {
        "url": "http://hl7.org/fhir/StructureDefinition/cqf-inputParameters",
        "valueReference": {
          "reference": "#3b00243c-9315-4adf-9eb9-bc100fd09fc5-parameters"
        }
      }, {
        "url": "http://hl7.org/fhir/us/cqfmeasures/StructureDefinition/cqfm-testCaseDescription",
        "valueMarkdown": "This patient is 27 years old,  has a qualifying encounter, and is diagnosed with diabetes the day before the start of the measurement period. This case tests the encounter criteria of the Denom. "
      } ],
      "modifierExtension": [ {
        "url": "http://hl7.org/fhir/us/cqfmeasures/StructureDefinition/cqfm-isTestCase",
        "valueBoolean": true
      } ],
      "status": "complete",
      "type": "individual",
      "measure": "https://madie.cms.gov/Measure/CMS951FHIRKidneyHealthEval",
      "period": {
        "start": "2026-01-01",
        "end": "2026-12-31"
      },
      "group": [ {
        "id": "Group_1",
        "population": [ {
          "id": "InitialPopulation_1",
          "code": {
            "coding": [ {
              "system": "http://terminology.hl7.org/CodeSystem/measure-population",
              "code": "initial-population",
              "display": "Initial Population"
            } ]
          },
          "count": 1
        }, {
          "id": "Denominator_1",
          "code": {
            "coding": [ {
              "system": "http://terminology.hl7.org/CodeSystem/measure-population",
              "code": "denominator",
              "display": "Denominator"
            } ]
          },
          "count": 1
        }, {
          "id": "DenominatorExclusion_1",
          "code": {
            "coding": [ {
              "system": "http://terminology.hl7.org/CodeSystem/measure-population",
              "code": "denominator-exclusion",
              "display": "Denominator Exclusion"
            } ]
          },
          "count": 0
        }, {
          "id": "Numerator_1",
          "code": {
            "coding": [ {
              "system": "http://terminology.hl7.org/CodeSystem/measure-population",
              "code": "numerator",
              "display": "Numerator"
            } ]
          },
          "count": 0
        } ],
        "measureScore": {
          "value": 1.0
        }
      } ],
      "evaluatedResource": [ {
        "reference": "Patient/0ce4362d-60f0-41af-8d47-c61f76d025a4"
      }, {
        "reference": "Condition/f73f3b4b-1439-4ba6-8dc2-63d51c94c20c"
      }, {
        "reference": "Encounter/50321399-1e3a-4a68-8769-b437b34fbd21"
      } ]
    },
    "request": {
      "method": "PUT",
      "url": "MeasureReport/1200ee11-135e-4eae-9442-22d04ab45096"
    }
  } ]
}