{
  "resourceType": "Bundle",
  "id": "NUMPass-70-on-Jan1-1",
  "type": "transaction",
  "entry": [ {
    "fullUrl": "https://madie.cms.gov/Patient/783dd9e1-3ed1-4596-be13-2e8f87ebecc9",
    "resource": {
      "resourceType": "Patient",
      "id": "783dd9e1-3ed1-4596-be13-2e8f87ebecc9",
      "meta": {
        "profile": [ "http://hl7.org/fhir/us/qicore/StructureDefinition/qicore-patient" ]
      },
      "extension": [ {
        "url": "http://hl7.org/fhir/us/core/StructureDefinition/us-core-race",
        "extension": [ {
          "url": "ombCategory",
          "valueCoding": {
            "system": "urn:oid:2.16.840.1.113883.6.238",
            "code": "2028-9",
            "display": "Asian"
          }
        }, {
          "url": "text",
          "valueString": "Asian"
        } ]
      }, {
        "url": "http://hl7.org/fhir/us/core/StructureDefinition/us-core-ethnicity",
        "extension": [ {
          "url": "ombCategory",
          "valueCoding": {
            "system": "urn:oid:2.16.840.1.113883.6.238",
            "code": "2186-5",
            "display": "Not Hispanic or Latino"
          }
        }, {
          "url": "text",
          "valueString": "Not Hispanic or Latino"
        } ]
      } ],
      "identifier": [ {
        "system": "http://hospital.smarthealthit.org",
        "value": "999999995"
      } ],
      "name": [ {
        "family": "NUMPass",
        "given": [ "NUMPass-70-on-Jan1-1" ]
      } ],
      "gender": "male",
      "birthDate": "1956-01-01"
    },
    "request": {
      "method": "PUT",
      "url": "Patient/783dd9e1-3ed1-4596-be13-2e8f87ebecc9"
    }
  }, {
    "fullUrl": "https://madie.cms.gov/Encounter/1869b26d-4272-465f-826d-e78c0a140143",
    "resource": {
      "resourceType": "Encounter",
      "id": "1869b26d-4272-465f-826d-e78c0a140143",
      "meta": {
        "profile": [ "http://hl7.org/fhir/us/qicore/StructureDefinition/qicore-encounter" ]
      },
      "status": "finished",
      "class": {
        "system": "http://terminology.hl7.org/CodeSystem/v3-ActCode",
        "code": "AMB",
        "display": "ambulatory"
      },
      "type": [ {
        "coding": [ {
          "system": "http://snomed.info/sct",
          "code": "11429006"
        } ]
      } ],
      "subject": {
        "reference": "Patient/783dd9e1-3ed1-4596-be13-2e8f87ebecc9"
      },
      "period": {
        "start": "2026-01-04T08:00:00.000+00:00",
        "end": "2026-01-04T08:00:00.000+00:00"
      }
    },
    "request": {
      "method": "PUT",
      "url": "Encounter/1869b26d-4272-465f-826d-e78c0a140143"
    }
  }, {
    "fullUrl": "https://madie.cms.gov/Encounter/ed9594ce-af6b-4c10-ad8b-f0369d3d4503",
    "resource": {
      "resourceType": "Encounter",
      "id": "ed9594ce-af6b-4c10-ad8b-f0369d3d4503",
      "meta": {
        "profile": [ "http://hl7.org/fhir/us/qicore/StructureDefinition/qicore-encounter" ]
      },
      "status": "finished",
      "class": {
        "system": "http://terminology.hl7.org/CodeSystem/v3-ActCode",
        "code": "AMB",
        "display": "ambulatory"
      },
      "type": [ {
        "coding": [ {
          "system": "http://www.ama-assn.org/go/cpt",
          "code": "99203",
          "display": "Office or other outpatient visit for the evaluation and management of a new patient, which requires a medically appropriate history and/or examination and low level of medical decision making. When using time for code selection, 30-44 minutes of total time is spent on the date of the encounter."
        } ]
      } ],
      "subject": {
        "reference": "Patient/783dd9e1-3ed1-4596-be13-2e8f87ebecc9"
      },
      "period": {
        "start": "2026-01-04T08:00:00.000+00:00",
        "end": "2026-01-04T08:00:00.000+00:00"
      }
    },
    "request": {
      "method": "PUT",
      "url": "Encounter/ed9594ce-af6b-4c10-ad8b-f0369d3d4503"
    }
  }, {
    "fullUrl": "https://madie.cms.gov/Observation/13501369-26d5-42dd-90fb-0be60b0e79fe",
    "resource": {
      "resourceType": "Observation",
      "id": "13501369-26d5-42dd-90fb-0be60b0e79fe",
      "meta": {
        "profile": [ "http://hl7.org/fhir/us/core/StructureDefinition/us-core-bmi" ]
      },
      "status": "final",
      "category": [ {
        "coding": [ {
          "system": "http://terminology.hl7.org/CodeSystem/observation-category",
          "code": "vital-signs",
          "display": "Vital Signs"
        } ]
      } ],
      "code": {
        "coding": [ {
          "system": "http://loinc.org",
          "code": "39156-5",
          "display": "Body mass index (BMI) [Ratio]"
        } ]
      },
      "subject": {
        "reference": "Patient/783dd9e1-3ed1-4596-be13-2e8f87ebecc9"
      },
      "effectiveDateTime": "2026-01-04T08:00:00.000+00:00",
      "issued": "2026-01-04T08:00:00.000+00:00",
      "valueQuantity": {
        "value": 23,
        "unit": "kg/m2",
        "system": "http://unitsofmeasure.org",
        "code": "kg/m2"
      }
    },
    "request": {
      "method": "PUT",
      "url": "Observation/13501369-26d5-42dd-90fb-0be60b0e79fe"
    }
  }, {
    "fullUrl": "https://madie.cms.gov/Condition/38859cb4-d798-41f8-89b9-79aa67eae2f3",
    "resource": {
      "resourceType": "Condition",
      "id": "38859cb4-d798-41f8-89b9-79aa67eae2f3",
      "meta": {
        "profile": [ "http://hl7.org/fhir/us/qicore/StructureDefinition/qicore-condition-problems-health-concerns" ]
      },
      "clinicalStatus": {
        "coding": [ {
          "system": "http://terminology.hl7.org/CodeSystem/condition-clinical",
          "code": "active",
          "display": "active",
          "userSelected": true
        } ]
      },
      "category": [ {
        "coding": [ {
          "system": "http://terminology.hl7.org/CodeSystem/condition-category",
          "code": "problem-list-item",
          "display": "Problem List Item"
        } ]
      } ],
      "code": {
        "coding": [ {
          "system": "http://snomed.info/sct",
          "code": "714628002"
        } ]
      },
      "subject": {
        "reference": "Patient/783dd9e1-3ed1-4596-be13-2e8f87ebecc9"
      },
      "onsetDateTime": "2026-01-01T00:00:00.000+00:00"
    },
    "request": {
      "method": "PUT",
      "url": "Condition/38859cb4-d798-41f8-89b9-79aa67eae2f3"
    }
  }, {
    "fullUrl": "https://madie.cms.gov/MeasureReport/1a1a34e5-d15f-40c5-b65f-95d6157239f5",
    "resource": {
      "resourceType": "MeasureReport",
      "id": "1a1a34e5-d15f-40c5-b65f-95d6157239f5",
      "meta": {
        "profile": [ "http://hl7.org/fhir/us/cqfmeasures/StructureDefinition/test-case-cqfm" ]
      },
      "contained": [ {
        "resourceType": "Parameters",
        "id": "448b1e99-7bee-4586-a104-71691d697719-parameters",
        "parameter": [ {
          "name": "subject",
          "valueString": "783dd9e1-3ed1-4596-be13-2e8f87ebecc9"
        } ]
      } ],
      "extension": [ {
        "url": "http://hl7.org/fhir/StructureDefinition/cqf-inputParameters",
        "valueReference": {
          "reference": "#448b1e99-7bee-4586-a104-71691d697719-parameters"
        }
      }, {
        "url": "http://hl7.org/fhir/us/cqfmeasures/StructureDefinition/cqfm-testCaseDescription",
        "valueMarkdown": "DEN-prediabetes-diagnosis-dayoftestJan1"
      } ],
      "modifierExtension": [ {
        "url": "http://hl7.org/fhir/us/cqfmeasures/StructureDefinition/cqfm-isTestCase",
        "valueBoolean": true
      } ],
      "status": "complete",
      "type": "individual",
      "measure": "https://madie.cms.gov/Measure/CMS1154ScreeningPrediabetesFHIR",
      "period": {
        "start": "2026-01-01",
        "end": "2026-12-31"
      },
      "group": [ {
        "id": "Group_1",
        "population": [ {
          "id": "InitialPopulation_1",
          "code": {
            "coding": [ {
              "system": "http://terminology.hl7.org/CodeSystem/measure-population",
              "code": "initial-population",
              "display": "Initial Population"
            } ]
          },
          "count": 1
        }, {
          "id": "Denominator_1",
          "code": {
            "coding": [ {
              "system": "http://terminology.hl7.org/CodeSystem/measure-population",
              "code": "denominator",
              "display": "Denominator"
            } ]
          },
          "count": 1
        }, {
          "id": "DenominatorExclusion_1",
          "code": {
            "coding": [ {
              "system": "http://terminology.hl7.org/CodeSystem/measure-population",
              "code": "denominator-exclusion",
              "display": "Denominator Exclusion"
            } ]
          },
          "count": 0
        }, {
          "id": "Numerator_1",
          "code": {
            "coding": [ {
              "system": "http://terminology.hl7.org/CodeSystem/measure-population",
              "code": "numerator",
              "display": "Numerator"
            } ]
          },
          "count": 0
        } ],
        "measureScore": {
          "value": 1.0
        }
      } ],
      "evaluatedResource": [ {
        "reference": "Patient/783dd9e1-3ed1-4596-be13-2e8f87ebecc9"
      }, {
        "reference": "Encounter/1869b26d-4272-465f-826d-e78c0a140143"
      }, {
        "reference": "Encounter/ed9594ce-af6b-4c10-ad8b-f0369d3d4503"
      }, {
        "reference": "Observation/13501369-26d5-42dd-90fb-0be60b0e79fe"
      }, {
        "reference": "Condition/38859cb4-d798-41f8-89b9-79aa67eae2f3"
      } ]
    },
    "request": {
      "method": "PUT",
      "url": "MeasureReport/1a1a34e5-d15f-40c5-b65f-95d6157239f5"
    }
  } ]
}