{
  "resourceType": "Bundle",
  "id": "64945a33d09ece2c2e9bf8ff",
  "type": "collection",
  "entry": [ {
    "fullUrl": "https://madie.cms.gov/Patient/3f811af5-90e9-4f13-b353-6404559e2344",
    "resource": {
      "resourceType": "Patient",
      "id": "3f811af5-90e9-4f13-b353-6404559e2344",
      "meta": {
        "profile": [ "http://hl7.org/fhir/us/qicore/StructureDefinition/qicore-patient" ]
      },
      "extension": [ {
        "url": "http://hl7.org/fhir/us/core/StructureDefinition/us-core-race",
        "extension": [ {
          "url": "ombCategory",
          "valueCoding": {
            "system": "urn:oid:2.16.840.1.113883.6.238",
            "code": "2106-3",
            "display": "White",
            "userSelected": true
          }
        }, {
          "url": "text",
          "valueString": "White"
        } ]
      }, {
        "url": "http://hl7.org/fhir/us/core/StructureDefinition/us-core-ethnicity",
        "extension": [ {
          "url": "ombCategory",
          "valueCoding": {
            "system": "urn:oid:2.16.840.1.113883.6.238",
            "code": "2186-5",
            "display": "Not Hispanic or Latino",
            "userSelected": true
          }
        }, {
          "url": "text",
          "valueString": "Not Hispanic or Latino"
        } ]
      } ],
      "identifier": [ {
        "type": {
          "coding": [ {
            "system": "http://terminology.hl7.org/CodeSystem/v2-0203",
            "code": "MR"
          } ]
        },
        "system": "https://bonnie-fhir.healthit.gov/",
        "value": "64945a33d09ece2c2e9bf8ff"
      } ],
      "name": [ {
        "family": "5NumFail",
        "given": [ "EncInMPVLafterMP" ]
      } ],
      "gender": "male",
      "birthDate": "1991-05-08"
    }
  }, {
    "fullUrl": "https://madie.cms.gov/Condition/20c52c69-3adf-4920-8502-2af89d363b11",
    "resource": {
      "resourceType": "Condition",
      "id": "20c52c69-3adf-4920-8502-2af89d363b11",
      "meta": {
        "profile": [ "http://hl7.org/fhir/us/qicore/StructureDefinition/qicore-condition-problems-health-concerns" ]
      },
      "clinicalStatus": {
        "coding": [ {
          "system": "http://terminology.hl7.org/CodeSystem/condition-clinical",
          "code": "active",
          "display": "active",
          "userSelected": true
        } ]
      },
      "category": [ {
        "coding": [ {
          "system": "http://terminology.hl7.org/CodeSystem/condition-category",
          "code": "problem-list-item",
          "display": "Problem List Item"
        } ]
      } ],
      "code": {
        "coding": [ {
          "system": "http://hl7.org/fhir/sid/icd-9-cm",
          "version": "2013",
          "code": "042",
          "display": "Human immunodeficiency virus [HIV] disease",
          "userSelected": true
        }, {
          "system": "http://snomed.info/sct",
          "version": "http://snomed.info/sct/731000124108/version/20250301",
          "code": "165816005",
          "userSelected": true
        } ]
      },
      "subject": {
        "reference": "Patient/3f811af5-90e9-4f13-b353-6404559e2344"
      },
      "onsetDateTime": "2002-06-08T08:00:00.000+00:00",
      "recordedDate": "2002-06-08T08:00:00.000+00:00"
    }
  }, {
    "fullUrl": "https://madie.cms.gov/Encounter/55cb19d2-9136-43ce-b021-417a85ffbfed",
    "resource": {
      "resourceType": "Encounter",
      "id": "55cb19d2-9136-43ce-b021-417a85ffbfed",
      "meta": {
        "profile": [ "http://hl7.org/fhir/us/qicore/StructureDefinition/qicore-encounter" ]
      },
      "status": "finished",
      "class": {
        "system": "http://terminology.hl7.org/CodeSystem/v3-ActCode",
        "code": "AMB",
        "display": "ambulatory"
      },
      "type": [ {
        "coding": [ {
          "system": "http://snomed.info/sct",
          "version": "2022-09",
          "code": "444971000124105",
          "display": "Annual wellness visit (procedure)",
          "userSelected": true
        } ]
      } ],
      "subject": {
        "reference": "Patient/3f811af5-90e9-4f13-b353-6404559e2344"
      },
      "period": {
        "start": "2026-02-01T08:00:00.000+00:00",
        "end": "2026-02-01T08:35:00.000+00:00"
      }
    }
  }, {
    "fullUrl": "https://madie.cms.gov/Observation/0bfb232d-2622-45db-92cc-f48ce7f589f9",
    "resource": {
      "resourceType": "Observation",
      "id": "0bfb232d-2622-45db-92cc-f48ce7f589f9",
      "meta": {
        "profile": [ "http://hl7.org/fhir/us/qicore/StructureDefinition/qicore-observation-lab" ]
      },
      "status": "final",
      "category": [ {
        "coding": [ {
          "system": "http://terminology.hl7.org/CodeSystem/observation-category",
          "code": "laboratory",
          "display": "Laboratory"
        } ]
      }, {
        "coding": [ {
          "system": "http://terminology.hl7.org/CodeSystem/observation-category",
          "code": "survey"
        } ]
      } ],
      "code": {
        "coding": [ {
          "system": "http://loinc.org",
          "version": "2.73",
          "code": "10351-5",
          "display": "HIV 1 RNA [Units/volume] (viral load) in Serum or Plasma by Probe with amplification",
          "userSelected": true
        }, {
          "system": "http://loinc.org",
          "code": "21333-0",
          "userSelected": true
        } ]
      },
      "subject": {
        "reference": "Patient/3f811af5-90e9-4f13-b353-6404559e2344"
      },
      "issued": "2026-02-01T08:00:00.000+00:00",
      "dataAbsentReason": {
        "coding": [ {
          "system": "http://terminology.hl7.org/CodeSystem/data-absent-reason",
          "code": "unknown",
          "display": "Unknown"
        } ]
      }
    }
  }, {
    "fullUrl": "https://madie.cms.gov/Observation/eb5dfeac-cd32-4072-ae0c-d2b6d6a13443",
    "resource": {
      "resourceType": "Observation",
      "id": "eb5dfeac-cd32-4072-ae0c-d2b6d6a13443",
      "meta": {
        "profile": [ "http://hl7.org/fhir/us/qicore/StructureDefinition/qicore-observation-lab" ]
      },
      "status": "final",
      "category": [ {
        "coding": [ {
          "system": "http://terminology.hl7.org/CodeSystem/observation-category",
          "code": "laboratory",
          "display": "Laboratory"
        } ]
      }, {
        "coding": [ {
          "system": "http://terminology.hl7.org/CodeSystem/observation-category",
          "code": "survey"
        } ]
      } ],
      "code": {
        "coding": [ {
          "system": "http://loinc.org",
          "version": "2.73",
          "code": "10351-5",
          "display": "HIV 1 RNA [Units/volume] (viral load) in Serum or Plasma by Probe with amplification",
          "userSelected": true
        } ]
      },
      "subject": {
        "reference": "Patient/3f811af5-90e9-4f13-b353-6404559e2344"
      },
      "issued": "2026-02-01T08:00:00.000+00:00",
      "dataAbsentReason": {
        "coding": [ {
          "system": "http://terminology.hl7.org/CodeSystem/data-absent-reason",
          "code": "unknown",
          "display": "Unknown"
        } ]
      }
    }
  }, {
    "fullUrl": "https://madie.cms.gov/Coverage/c859cbfe-d006-41d5-908c-33570839d723",
    "resource": {
      "resourceType": "Coverage",
      "id": "c859cbfe-d006-41d5-908c-33570839d723",
      "meta": {
        "profile": [ "http://hl7.org/fhir/us/qicore/StructureDefinition/qicore-coverage" ]
      },
      "status": "active",
      "subscriberId": "123456",
      "beneficiary": {
        "reference": "Patient/3f811af5-90e9-4f13-b353-6404559e2344"
      },
      "relationship": {
        "coding": [ {
          "system": "http://terminology.hl7.org/CodeSystem/subscriber-relationship",
          "code": "self",
          "display": "Self"
        } ]
      },
      "payor": [ {
        "reference": "Organization/a8cefa8c-1ce1-4288-82a7-c076ac8c639a"
      } ]
    }
  }, {
    "fullUrl": "https://madie.cms.gov/Organization/a8cefa8c-1ce1-4288-82a7-c076ac8c639a",
    "resource": {
      "resourceType": "Organization",
      "id": "a8cefa8c-1ce1-4288-82a7-c076ac8c639a",
      "meta": {
        "profile": [ "http://hl7.org/fhir/us/qicore/StructureDefinition/qicore-organization" ]
      },
      "identifier": [ {
        "use": "temp",
        "system": "urn:oid:2.16.840.1.113883.4.4",
        "value": "21-3259825"
      } ],
      "active": true,
      "type": [ {
        "coding": [ {
          "system": "http://terminology.hl7.org/CodeSystem/organization-type",
          "code": "pay",
          "display": "Payer"
        } ]
      } ],
      "name": "Blue Cross Blue Shield of Texas",
      "telecom": [ {
        "system": "phone",
        "value": "(+1) 972-766-6900"
      } ],
      "address": [ {
        "use": "billing",
        "type": "postal",
        "line": [ "P.O. Box 660044" ],
        "city": "Dallas",
        "state": "TX",
        "postalCode": "75266-0044",
        "country": "USA"
      } ]
    }
  }, {
    "fullUrl": "https://madie.cms.gov/Practitioner/f330165e-cee0-4f4b-9346-14669fde95f6",
    "resource": {
      "resourceType": "Practitioner",
      "id": "f330165e-cee0-4f4b-9346-14669fde95f6",
      "meta": {
        "profile": [ "http://hl7.org/fhir/us/qicore/StructureDefinition/qicore-practitioner" ]
      },
      "identifier": [ {
        "system": "http://hl7.org/fhir/sid/us-npi",
        "value": "1689411712"
      } ],
      "name": [ {
        "family": "Evil",
        "prefix": [ "Dr" ]
      } ]
    }
  }, {
    "fullUrl": "https://madie.cms.gov/MeasureReport/b6df84c1-d78d-4ecc-8b35-eb09924709fe",
    "resource": {
      "resourceType": "MeasureReport",
      "id": "b6df84c1-d78d-4ecc-8b35-eb09924709fe",
      "meta": {
        "profile": [ "http://hl7.org/fhir/us/cqfmeasures/StructureDefinition/test-case-cqfm" ]
      },
      "contained": [ {
        "resourceType": "Parameters",
        "id": "330a6016-7340-4700-ae0f-35dd4aeedb56-parameters",
        "parameter": [ {
          "name": "subject",
          "valueString": "3f811af5-90e9-4f13-b353-6404559e2344"
        } ]
      } ],
      "extension": [ {
        "url": "http://hl7.org/fhir/StructureDefinition/cqf-inputParameters",
        "valueReference": {
          "reference": "#330a6016-7340-4700-ae0f-35dd4aeedb56-parameters"
        }
      }, {
        "url": "http://hl7.org/fhir/us/cqfmeasures/StructureDefinition/cqfm-testCaseDescription",
        "valueMarkdown": "Patient with HIV diagnosed After Encounter (IP Enc, not num)"
      } ],
      "modifierExtension": [ {
        "url": "http://hl7.org/fhir/us/cqfmeasures/StructureDefinition/cqfm-isTestCase",
        "valueBoolean": true
      } ],
      "status": "complete",
      "type": "individual",
      "measure": "https://madie.cms.gov/Measure/CMS1157FHIRHIVRetention",
      "period": {
        "start": "2026-01-01",
        "end": "2026-12-31"
      },
      "group": [ {
        "id": "Group_1",
        "population": [ {
          "id": "InitialPopulation_1",
          "code": {
            "coding": [ {
              "system": "http://terminology.hl7.org/CodeSystem/measure-population",
              "code": "initial-population",
              "display": "Initial Population"
            } ]
          },
          "count": 1
        }, {
          "id": "Denominator_1",
          "code": {
            "coding": [ {
              "system": "http://terminology.hl7.org/CodeSystem/measure-population",
              "code": "denominator",
              "display": "Denominator"
            } ]
          },
          "count": 1
        }, {
          "id": "Numerator_1",
          "code": {
            "coding": [ {
              "system": "http://terminology.hl7.org/CodeSystem/measure-population",
              "code": "numerator",
              "display": "Numerator"
            } ]
          },
          "count": 0
        } ],
        "measureScore": {
          "value": 1.0
        }
      } ],
      "evaluatedResource": [ {
        "reference": "Patient/3f811af5-90e9-4f13-b353-6404559e2344"
      }, {
        "reference": "Condition/20c52c69-3adf-4920-8502-2af89d363b11"
      }, {
        "reference": "Encounter/55cb19d2-9136-43ce-b021-417a85ffbfed"
      }, {
        "reference": "Observation/0bfb232d-2622-45db-92cc-f48ce7f589f9"
      }, {
        "reference": "Observation/eb5dfeac-cd32-4072-ae0c-d2b6d6a13443"
      }, {
        "reference": "Coverage/c859cbfe-d006-41d5-908c-33570839d723"
      }, {
        "reference": "Organization/a8cefa8c-1ce1-4288-82a7-c076ac8c639a"
      }, {
        "reference": "Practitioner/f330165e-cee0-4f4b-9346-14669fde95f6"
      } ]
    }
  } ]
}