{
  "resourceType": "Bundle",
  "id": "63487c2d0968f80122540162",
  "type": "transaction",
  "entry": [ {
    "fullUrl": "https://madie.cms.gov/Patient/6db9ecfd-1392-480d-b0f7-4e81ebfdd335",
    "resource": {
      "resourceType": "Patient",
      "id": "6db9ecfd-1392-480d-b0f7-4e81ebfdd335",
      "meta": {
        "profile": [ "http://hl7.org/fhir/us/qicore/StructureDefinition/qicore-patient" ]
      },
      "text": {
        "status": "generated",
        "div": "<div xmlns=\"http://www.w3.org/1999/xhtml\"><div class=\"hapiHeaderText\">AssessTerm0RelDtTimeAfterTimeOfDeliv<b>DENOMFail</b></div><table class=\"hapiPropertyTable\"><tbody><tr><td>Identifier</td><td>9dd5eff54ec482e8a14c14f22d39e4cf5c39ca73f868e5a54dc34c2817f3dd51</td></tr><tr><td>Date of birth</td><td><span>14 February 1985</span></td></tr></tbody></table></div>"
      },
      "extension": [ {
        "url": "http://hl7.org/fhir/us/core/StructureDefinition/us-core-race",
        "extension": [ {
          "url": "ombCategory",
          "valueCoding": {
            "system": "urn:oid:2.16.840.1.113883.6.238",
            "code": "1002-5",
            "display": "American Indian or Alaska Native",
            "userSelected": true
          }
        }, {
          "url": "text",
          "valueString": "American Indian or Alaska Native"
        } ]
      }, {
        "url": "http://hl7.org/fhir/us/core/StructureDefinition/us-core-ethnicity",
        "extension": [ {
          "url": "ombCategory",
          "valueCoding": {
            "system": "urn:oid:2.16.840.1.113883.6.238",
            "code": "2135-2",
            "display": "Hispanic or Latino",
            "userSelected": true
          }
        }, {
          "url": "text",
          "valueString": "Hispanic or Latino"
        } ]
      } ],
      "identifier": [ {
        "type": {
          "coding": [ {
            "system": "http://terminology.hl7.org/CodeSystem/v2-0203",
            "code": "MR"
          } ]
        },
        "system": "https://bonnie-fhir.healthit.gov/",
        "value": "63487c2d0968f80122540162"
      } ],
      "active": true,
      "name": [ {
        "use": "usual",
        "family": "DENOMFail",
        "given": [ "AssessTerm0RelDtTimeAfterTimeOfDeliv" ]
      } ],
      "gender": "female",
      "birthDate": "1998-02-14"
    },
    "request": {
      "method": "PUT",
      "url": "Patient/6db9ecfd-1392-480d-b0f7-4e81ebfdd335"
    }
  }, {
    "fullUrl": "https://madie.cms.gov/Observation/cb652603-180b-4e81-a975-180660b476b4",
    "resource": {
      "resourceType": "Observation",
      "id": "cb652603-180b-4e81-a975-180660b476b4",
      "meta": {
        "profile": [ "http://hl7.org/fhir/us/qicore/StructureDefinition/qicore-simple-observation" ]
      },
      "status": "final",
      "category": [ {
        "coding": [ {
          "system": "http://terminology.hl7.org/CodeSystem/observation-category",
          "code": "exam",
          "display": "exam",
          "userSelected": true
        } ]
      } ],
      "code": {
        "coding": [ {
          "system": "http://loinc.org",
          "code": "11637-6"
        } ]
      },
      "subject": {
        "reference": "Patient/6db9ecfd-1392-480d-b0f7-4e81ebfdd335"
      },
      "effectiveDateTime": "2025-09-19T09:00:00.000+00:00",
      "valueInteger": 0
    },
    "request": {
      "method": "PUT",
      "url": "Observation/cb652603-180b-4e81-a975-180660b476b4"
    }
  }, {
    "fullUrl": "https://madie.cms.gov/Observation/2aef8cf5-0086-4397-9bfc-2c6cf62a143e",
    "resource": {
      "resourceType": "Observation",
      "id": "2aef8cf5-0086-4397-9bfc-2c6cf62a143e",
      "meta": {
        "profile": [ "http://hl7.org/fhir/us/qicore/StructureDefinition/qicore-simple-observation" ]
      },
      "status": "final",
      "category": [ {
        "coding": [ {
          "system": "http://terminology.hl7.org/CodeSystem/observation-category",
          "code": "exam",
          "display": "exam",
          "userSelected": true
        } ]
      } ],
      "code": {
        "coding": [ {
          "system": "http://loinc.org",
          "code": "11884-4"
        } ]
      },
      "subject": {
        "reference": "Patient/6db9ecfd-1392-480d-b0f7-4e81ebfdd335"
      },
      "effectiveDateTime": "2026-06-08T20:00:00.000+00:00",
      "valueQuantity": {
        "value": 37,
        "system": "http://unitsofmeasure.org",
        "code": "wk"
      }
    },
    "request": {
      "method": "PUT",
      "url": "Observation/2aef8cf5-0086-4397-9bfc-2c6cf62a143e"
    }
  }, {
    "fullUrl": "https://madie.cms.gov/Observation/c6319077-4449-4f3c-88b6-87672a13354a",
    "resource": {
      "resourceType": "Observation",
      "id": "c6319077-4449-4f3c-88b6-87672a13354a",
      "meta": {
        "profile": [ "http://hl7.org/fhir/us/qicore/StructureDefinition/qicore-simple-observation" ]
      },
      "status": "final",
      "category": [ {
        "coding": [ {
          "system": "http://terminology.hl7.org/CodeSystem/observation-category",
          "code": "exam",
          "display": "exam",
          "userSelected": true
        } ]
      } ],
      "code": {
        "coding": [ {
          "system": "http://loinc.org",
          "code": "11639-2"
        } ]
      },
      "subject": {
        "reference": "Patient/6db9ecfd-1392-480d-b0f7-4e81ebfdd335"
      },
      "effectiveDateTime": "2026-06-08T21:00:00.000+00:00",
      "valueInteger": 0
    },
    "request": {
      "method": "PUT",
      "url": "Observation/c6319077-4449-4f3c-88b6-87672a13354a"
    }
  }, {
    "fullUrl": "https://madie.cms.gov/Observation/4dc5678e-a40d-4353-af64-254a2a092c2a",
    "resource": {
      "resourceType": "Observation",
      "id": "4dc5678e-a40d-4353-af64-254a2a092c2a",
      "meta": {
        "profile": [ "http://hl7.org/fhir/us/qicore/StructureDefinition/qicore-simple-observation" ]
      },
      "status": "final",
      "category": [ {
        "coding": [ {
          "system": "http://terminology.hl7.org/CodeSystem/observation-category",
          "code": "exam",
          "display": "exam",
          "userSelected": true
        } ]
      } ],
      "code": {
        "coding": [ {
          "system": "http://loinc.org",
          "code": "93857-1"
        } ]
      },
      "subject": {
        "reference": "Patient/6db9ecfd-1392-480d-b0f7-4e81ebfdd335"
      },
      "effectiveDateTime": "2026-06-08T20:00:00.000+00:00",
      "valueDateTime": "2026-06-08T20:00:00.000+00:00"
    },
    "request": {
      "method": "PUT",
      "url": "Observation/4dc5678e-a40d-4353-af64-254a2a092c2a"
    }
  }, {
    "fullUrl": "https://madie.cms.gov/Encounter/a2401d2a-1bbc-4e6a-a90a-20932d1f5d3b",
    "resource": {
      "resourceType": "Encounter",
      "id": "a2401d2a-1bbc-4e6a-a90a-20932d1f5d3b",
      "meta": {
        "profile": [ "http://hl7.org/fhir/us/qicore/StructureDefinition/qicore-encounter" ]
      },
      "status": "finished",
      "class": {
        "system": "http://terminology.hl7.org/CodeSystem/v3-ActCode",
        "code": "IMP",
        "display": "inpatient encounter"
      },
      "type": [ {
        "coding": [ {
          "system": "http://snomed.info/sct",
          "code": "8715000"
        } ]
      } ],
      "subject": {
        "reference": "Patient/6db9ecfd-1392-480d-b0f7-4e81ebfdd335"
      },
      "period": {
        "start": "2026-06-08T08:00:00.000+00:00",
        "end": "2026-06-10T08:15:00.000+00:00"
      },
      "length": {
        "value": 2,
        "unit": "days"
      },
      "reasonReference": [ {
        "reference": "Condition/94c9b7ea-7a6d-4975-9280-68959083dd3e"
      } ]
    },
    "request": {
      "method": "PUT",
      "url": "Encounter/a2401d2a-1bbc-4e6a-a90a-20932d1f5d3b"
    }
  }, {
    "fullUrl": "https://madie.cms.gov/Procedure/a3786912-d878-4ea4-80a4-6b48febc6183",
    "resource": {
      "resourceType": "Procedure",
      "id": "a3786912-d878-4ea4-80a4-6b48febc6183",
      "meta": {
        "profile": [ "http://hl7.org/fhir/us/qicore/StructureDefinition/qicore-procedure" ]
      },
      "extension": [ {
        "url": "http://hl7.org/fhir/us/qicore/StructureDefinition/qicore-recorded",
        "valueDateTime": "2014-04-05T13:35:00.000+00:00"
      } ],
      "status": "completed",
      "code": {
        "coding": [ {
          "system": "http://www.cms.gov/Medicare/Coding/ICD10",
          "code": "10D00Z0"
        }, {
          "system": "http://snomed.info/sct",
          "code": "4504004"
        } ]
      },
      "subject": {
        "reference": "Patient/6db9ecfd-1392-480d-b0f7-4e81ebfdd335"
      },
      "performedPeriod": {
        "start": "2026-06-08T20:00:00.000+00:00",
        "end": "2026-06-08T20:15:00.000+00:00"
      }
    },
    "request": {
      "method": "PUT",
      "url": "Procedure/a3786912-d878-4ea4-80a4-6b48febc6183"
    }
  }, {
    "fullUrl": "https://madie.cms.gov/Condition/94c9b7ea-7a6d-4975-9280-68959083dd3e",
    "resource": {
      "resourceType": "Condition",
      "id": "94c9b7ea-7a6d-4975-9280-68959083dd3e",
      "meta": {
        "profile": [ "http://hl7.org/fhir/us/qicore/StructureDefinition/qicore-condition-encounter-diagnosis" ]
      },
      "category": [ {
        "coding": [ {
          "system": "http://terminology.hl7.org/CodeSystem/condition-category",
          "code": "encounter-diagnosis",
          "display": "Encounter Diagnosis"
        } ]
      } ],
      "code": {
        "coding": [ {
          "system": "http://snomed.info/sct",
          "version": "2022-09",
          "code": "169826009",
          "display": "Single live birth from singleton pregnancy (finding)",
          "userSelected": true
        } ]
      },
      "subject": {
        "reference": "Patient/6db9ecfd-1392-480d-b0f7-4e81ebfdd335"
      },
      "encounter": {
        "reference": "Encounter/a2401d2a-1bbc-4e6a-a90a-20932d1f5d3b"
      },
      "recordedDate": "2026-10-21T08:00:00.000+00:00"
    },
    "request": {
      "method": "PUT",
      "url": "Condition/94c9b7ea-7a6d-4975-9280-68959083dd3e"
    }
  }, {
    "fullUrl": "https://madie.cms.gov/Coverage/95e34ff7-00d7-43f8-b549-c7ec9acf8459",
    "resource": {
      "resourceType": "Coverage",
      "id": "95e34ff7-00d7-43f8-b549-c7ec9acf8459",
      "meta": {
        "profile": [ "http://hl7.org/fhir/us/qicore/StructureDefinition/qicore-coverage" ]
      },
      "status": "active",
      "subscriberId": "523435",
      "beneficiary": {
        "reference": "Patient/6db9ecfd-1392-480d-b0f7-4e81ebfdd335"
      },
      "relationship": {
        "coding": [ {
          "system": "http://terminology.hl7.org/CodeSystem/subscriber-relationship",
          "code": "self"
        } ]
      },
      "payor": [ {
        "reference": "Organization/85758f96-d14d-4063-b6e7-5fe0091c3230"
      } ]
    },
    "request": {
      "method": "PUT",
      "url": "Coverage/95e34ff7-00d7-43f8-b549-c7ec9acf8459"
    }
  }, {
    "fullUrl": "https://madie.cms.gov/Organization/85758f96-d14d-4063-b6e7-5fe0091c3230",
    "resource": {
      "resourceType": "Organization",
      "id": "85758f96-d14d-4063-b6e7-5fe0091c3230",
      "meta": {
        "profile": [ "http://hl7.org/fhir/us/qicore/StructureDefinition/qicore-organization" ]
      },
      "identifier": [ {
        "use": "temp",
        "system": "urn:oid:2.16.840.1.113883.4.4",
        "value": "21-3259825"
      } ],
      "active": true,
      "type": [ {
        "coding": [ {
          "system": "http://terminology.hl7.org/CodeSystem/organization-type",
          "code": "pay",
          "display": "Payer"
        } ]
      } ],
      "name": "Blue Cross Blue Shield of Texas",
      "telecom": [ {
        "system": "phone",
        "value": "(+1) 972-766-6900"
      } ],
      "address": [ {
        "use": "billing",
        "type": "postal",
        "line": [ "P.O. Box 660044" ],
        "city": "Dallas",
        "state": "TX",
        "postalCode": "75266-0044",
        "country": "USA"
      } ]
    },
    "request": {
      "method": "PUT",
      "url": "Organization/85758f96-d14d-4063-b6e7-5fe0091c3230"
    }
  }, {
    "fullUrl": "https://madie.cms.gov/Practitioner/92986d64-b6e6-4ee9-9c53-bd7a80e27a69",
    "resource": {
      "resourceType": "Practitioner",
      "id": "92986d64-b6e6-4ee9-9c53-bd7a80e27a69",
      "meta": {
        "profile": [ "http://hl7.org/fhir/us/qicore/StructureDefinition/qicore-practitioner" ]
      },
      "identifier": [ {
        "system": "http://hl7.org/fhir/sid/us-npi",
        "value": "1234567890"
      } ],
      "name": [ {
        "family": "Evil",
        "prefix": [ "Dr" ]
      } ]
    },
    "request": {
      "method": "PUT",
      "url": "Practitioner/92986d64-b6e6-4ee9-9c53-bd7a80e27a69"
    }
  }, {
    "fullUrl": "https://madie.cms.gov/MeasureReport/b9746983-f195-45e0-97cc-63adc9a7765a",
    "resource": {
      "resourceType": "MeasureReport",
      "id": "b9746983-f195-45e0-97cc-63adc9a7765a",
      "meta": {
        "profile": [ "http://hl7.org/fhir/us/cqfmeasures/StructureDefinition/test-case-cqfm" ]
      },
      "contained": [ {
        "resourceType": "Parameters",
        "id": "e437e890-94f4-4322-af48-99530542ed40-parameters",
        "parameter": [ {
          "name": "subject",
          "valueString": "6db9ecfd-1392-480d-b0f7-4e81ebfdd335"
        } ]
      } ],
      "extension": [ {
        "url": "http://hl7.org/fhir/StructureDefinition/cqf-inputParameters",
        "valueReference": {
          "reference": "#e437e890-94f4-4322-af48-99530542ed40-parameters"
        }
      }, {
        "url": "http://hl7.org/fhir/us/cqfmeasures/StructureDefinition/cqfm-testCaseDescription",
        "valueMarkdown": "\"Preterm Births=0, authored < 42weeks prior to Asse delivery\nTerm Newborn=0, authored  1 hour after Asse delivery datetime\ntiming logic needed to constrain the author time to no later than the time of delivery, DENOM fail\"\n"
      } ],
      "modifierExtension": [ {
        "url": "http://hl7.org/fhir/us/cqfmeasures/StructureDefinition/cqfm-isTestCase",
        "valueBoolean": true
      } ],
      "status": "complete",
      "type": "individual",
      "measure": "https://madie.cms.gov/Measure/CMS0334FHIRPCCesareanBirth",
      "period": {
        "start": "2026-01-01",
        "end": "2026-12-31"
      },
      "group": [ {
        "id": "Group_1",
        "population": [ {
          "id": "InitialPopulation_1",
          "code": {
            "coding": [ {
              "system": "http://terminology.hl7.org/CodeSystem/measure-population",
              "code": "initial-population",
              "display": "Initial Population"
            } ]
          },
          "count": 1
        }, {
          "id": "Denominator_1",
          "code": {
            "coding": [ {
              "system": "http://terminology.hl7.org/CodeSystem/measure-population",
              "code": "denominator",
              "display": "Denominator"
            } ]
          },
          "count": 0
        }, {
          "id": "DenominatorExclusion_1",
          "code": {
            "coding": [ {
              "system": "http://terminology.hl7.org/CodeSystem/measure-population",
              "code": "denominator-exclusion",
              "display": "Denominator Exclusion"
            } ]
          },
          "count": 0
        }, {
          "id": "Numerator_1",
          "code": {
            "coding": [ {
              "system": "http://terminology.hl7.org/CodeSystem/measure-population",
              "code": "numerator",
              "display": "Numerator"
            } ]
          },
          "count": 0
        } ],
        "measureScore": {
          "value": 0.0
        }
      } ],
      "evaluatedResource": [ {
        "reference": "Patient/6db9ecfd-1392-480d-b0f7-4e81ebfdd335"
      }, {
        "reference": "Observation/cb652603-180b-4e81-a975-180660b476b4"
      }, {
        "reference": "Observation/2aef8cf5-0086-4397-9bfc-2c6cf62a143e"
      }, {
        "reference": "Observation/c6319077-4449-4f3c-88b6-87672a13354a"
      }, {
        "reference": "Observation/4dc5678e-a40d-4353-af64-254a2a092c2a"
      }, {
        "reference": "Encounter/a2401d2a-1bbc-4e6a-a90a-20932d1f5d3b"
      }, {
        "reference": "Procedure/a3786912-d878-4ea4-80a4-6b48febc6183"
      }, {
        "reference": "Condition/94c9b7ea-7a6d-4975-9280-68959083dd3e"
      }, {
        "reference": "Coverage/95e34ff7-00d7-43f8-b549-c7ec9acf8459"
      }, {
        "reference": "Organization/85758f96-d14d-4063-b6e7-5fe0091c3230"
      }, {
        "reference": "Practitioner/92986d64-b6e6-4ee9-9c53-bd7a80e27a69"
      } ]
    },
    "request": {
      "method": "PUT",
      "url": "MeasureReport/b9746983-f195-45e0-97cc-63adc9a7765a"
    }
  } ]
}