{
  "resourceType": "Bundle",
  "id": "62f65ba65efef5272905e708",
  "type": "collection",
  "entry": [ {
    "fullUrl": "https://madie.cms.gov/Patient/a09d5edf-2c0a-4b39-86bf-312109f357c0",
    "resource": {
      "resourceType": "Patient",
      "id": "a09d5edf-2c0a-4b39-86bf-312109f357c0",
      "meta": {
        "profile": [ "http://hl7.org/fhir/us/qicore/StructureDefinition/qicore-patient" ]
      },
      "extension": [ {
        "url": "http://hl7.org/fhir/us/core/StructureDefinition/us-core-race",
        "extension": [ {
          "url": "ombCategory",
          "valueCoding": {
            "system": "urn:oid:2.16.840.1.113883.6.238",
            "code": "1002-5",
            "display": "American Indian or Alaska Native",
            "userSelected": true
          }
        }, {
          "url": "text",
          "valueString": "American Indian or Alaska Native"
        } ]
      }, {
        "url": "http://hl7.org/fhir/us/core/StructureDefinition/us-core-ethnicity",
        "extension": [ {
          "url": "ombCategory",
          "valueCoding": {
            "system": "urn:oid:2.16.840.1.113883.6.238",
            "code": "2135-2",
            "display": "Hispanic or Latino",
            "userSelected": true
          }
        }, {
          "url": "text",
          "valueString": "Hispanic or Latino"
        } ]
      }, {
        "url": "http://hl7.org/fhir/us/core/StructureDefinition/us-core-sex",
        "valueCode": "248153007"
      } ],
      "identifier": [ {
        "type": {
          "coding": [ {
            "system": "http://terminology.hl7.org/CodeSystem/v2-0203",
            "code": "MR"
          } ]
        },
        "system": "https://bonnie-fhir.healthit.gov/",
        "value": "62f65ba65efef5272905e708"
      } ],
      "name": [ {
        "family": "DENEXCEPFail",
        "given": [ "AdolPtReasonForNoDepScreenandHadDepScreenAWeekAgo" ]
      } ],
      "gender": "male",
      "birthDate": "2014-01-01"
    }
  }, {
    "fullUrl": "https://madie.cms.gov/Encounter/d6d61cd9-c803-4664-a982-cfd0cb1eb2e6",
    "resource": {
      "resourceType": "Encounter",
      "id": "d6d61cd9-c803-4664-a982-cfd0cb1eb2e6",
      "meta": {
        "profile": [ "http://hl7.org/fhir/us/qicore/StructureDefinition/qicore-encounter" ]
      },
      "status": "finished",
      "class": {
        "system": "http://terminology.hl7.org/CodeSystem/v3-ActCode",
        "code": "AMB",
        "display": "ambulatory"
      },
      "type": [ {
        "coding": [ {
          "system": "http://snomed.info/sct",
          "code": "10197000",
          "display": "Psychiatric interview and evaluation (procedure)",
          "userSelected": true
        } ]
      } ],
      "subject": {
        "reference": "Patient/a09d5edf-2c0a-4b39-86bf-312109f357c0"
      },
      "period": {
        "start": "2026-06-28T08:00:00.000Z",
        "end": "2026-06-28T08:15:00.000Z"
      }
    }
  }, {
    "fullUrl": "https://madie.cms.gov/Observation/c637d8f0-f6f3-4fd2-922b-e370c71ed5bd",
    "resource": {
      "resourceType": "Observation",
      "id": "c637d8f0-f6f3-4fd2-922b-e370c71ed5bd",
      "meta": {
        "profile": [ "http://hl7.org/fhir/us/qicore/StructureDefinition/qicore-observationcancelled" ]
      },
      "extension": [ {
        "url": "http://hl7.org/fhir/us/qicore/StructureDefinition/qicore-notDoneReason",
        "valueCodeableConcept": {
          "coding": [ {
            "system": "http://snomed.info/sct",
            "code": "720834000",
            "display": "Depression screening declined (situation)",
            "userSelected": true
          } ]
        }
      } ],
      "status": "cancelled",
      "category": [ {
        "coding": [ {
          "system": "http://terminology.hl7.org/CodeSystem/observation-category",
          "code": "procedure",
          "display": "Procedure"
        } ]
      } ],
      "code": {
        "coding": [ {
          "system": "http://loinc.org",
          "code": "73831-0",
          "display": "Adolescent depression screening assessment",
          "userSelected": true
        } ]
      },
      "subject": {
        "reference": "Patient/a09d5edf-2c0a-4b39-86bf-312109f357c0"
      },
      "issued": "2026-06-28T08:00:00.000Z",
      "valueBoolean": true
    }
  }, {
    "fullUrl": "https://madie.cms.gov/Observation/37dd9b42-44f3-4e85-a222-7bfd6c3b4aca",
    "resource": {
      "resourceType": "Observation",
      "id": "37dd9b42-44f3-4e85-a222-7bfd6c3b4aca",
      "meta": {
        "profile": [ "http://hl7.org/fhir/us/qicore/StructureDefinition/qicore-observation-screening-assessment" ]
      },
      "status": "final",
      "category": [ {
        "coding": [ {
          "system": "http://terminology.hl7.org/CodeSystem/observation-category",
          "code": "procedure",
          "display": "Procedure"
        } ]
      }, {
        "coding": [ {
          "system": "http://terminology.hl7.org/CodeSystem/observation-category",
          "code": "survey",
          "display": "Survey"
        } ]
      } ],
      "code": {
        "coding": [ {
          "system": "http://loinc.org",
          "code": "73831-0",
          "display": "Adolescent depression screening assessment",
          "userSelected": true
        } ]
      },
      "subject": {
        "reference": "Patient/a09d5edf-2c0a-4b39-86bf-312109f357c0"
      },
      "effectiveDateTime": "2026-06-21T08:00:00.000Z",
      "issued": "2026-06-20T08:00:00.000Z",
      "valueBoolean": true
    }
  }, {
    "fullUrl": "https://madie.cms.gov/Coverage/c5405624-82f7-40fa-9357-7328063a3523",
    "resource": {
      "resourceType": "Coverage",
      "id": "c5405624-82f7-40fa-9357-7328063a3523",
      "meta": {
        "profile": [ "http://hl7.org/fhir/us/qicore/StructureDefinition/qicore-coverage" ]
      },
      "status": "active",
      "type": {
        "coding": [ {
          "system": "https://nahdo.org/sopt",
          "code": "12",
          "display": "Medicare (Non-managed Care)",
          "userSelected": true
        } ]
      },
      "subscriberId": "123456789",
      "beneficiary": {
        "reference": "Patient/a09d5edf-2c0a-4b39-86bf-312109f357c0"
      },
      "relationship": {
        "coding": [ {
          "system": "http://terminology.hl7.org/CodeSystem/subscriber-relationship",
          "code": "self",
          "display": "Self",
          "userSelected": true
        } ]
      },
      "period": {
        "start": "2021-06-28T08:00:00.000Z",
        "end": "2026-06-28T08:15:00.000Z"
      },
      "payor": [ {
        "reference": "Organization/1b7f5399-974b-4b62-8bb0-0eb1eed77562"
      } ]
    }
  }, {
    "fullUrl": "https://madie.cms.gov/Organization/1b7f5399-974b-4b62-8bb0-0eb1eed77562",
    "resource": {
      "resourceType": "Organization",
      "id": "1b7f5399-974b-4b62-8bb0-0eb1eed77562",
      "meta": {
        "profile": [ "http://hl7.org/fhir/us/qicore/StructureDefinition/qicore-organization" ]
      },
      "identifier": [ {
        "use": "temp",
        "system": "urn:oid:2.16.840.1.113883.4.4",
        "value": "21-3259825"
      } ],
      "active": true,
      "type": [ {
        "coding": [ {
          "system": "http://terminology.hl7.org/CodeSystem/organization-type",
          "code": "pay",
          "display": "Payer"
        } ]
      } ],
      "name": "Blue Cross Blue Shield of Texas",
      "telecom": [ {
        "system": "phone",
        "value": "(+1) 972-766-6900"
      } ],
      "address": [ {
        "use": "billing",
        "type": "postal",
        "line": [ "P.O. Box 660044" ],
        "city": "Dallas",
        "state": "TX",
        "postalCode": "75266-0044",
        "country": "USA"
      } ]
    }
  }, {
    "fullUrl": "https://madie.cms.gov/Practitioner/0f8a8511-ac29-42f1-a080-3a7e249b731f",
    "resource": {
      "resourceType": "Practitioner",
      "id": "0f8a8511-ac29-42f1-a080-3a7e249b731f",
      "meta": {
        "profile": [ "http://hl7.org/fhir/us/qicore/StructureDefinition/qicore-practitioner" ]
      },
      "identifier": [ {
        "system": "http://hl7.org/fhir/sid/us-npi",
        "value": "1234567893"
      } ],
      "name": [ {
        "family": "Evil",
        "prefix": [ "Dr" ]
      } ]
    }
  }, {
    "fullUrl": "https://madie.cms.gov/MeasureReport/a16ab9f2-0d95-4c0c-a468-b3a7d599e46a",
    "resource": {
      "resourceType": "MeasureReport",
      "id": "a16ab9f2-0d95-4c0c-a468-b3a7d599e46a",
      "meta": {
        "profile": [ "http://hl7.org/fhir/us/cqfmeasures/StructureDefinition/test-case-cqfm" ]
      },
      "contained": [ {
        "resourceType": "Parameters",
        "id": "a47d2849-ecb8-443a-9558-2d63de41fba8-parameters",
        "parameter": [ {
          "name": "subject",
          "valueString": "a09d5edf-2c0a-4b39-86bf-312109f357c0"
        } ]
      } ],
      "extension": [ {
        "url": "http://hl7.org/fhir/StructureDefinition/cqf-inputParameters",
        "valueReference": {
          "reference": "#a47d2849-ecb8-443a-9558-2d63de41fba8-parameters"
        }
      }, {
        "url": "http://hl7.org/fhir/us/cqfmeasures/StructureDefinition/cqfm-testCaseDescription",
        "valueMarkdown": "12 yo male with patient reason for not screening for depression and had screening done a week ago"
      } ],
      "modifierExtension": [ {
        "url": "http://hl7.org/fhir/us/cqfmeasures/StructureDefinition/cqfm-isTestCase",
        "valueBoolean": true
      } ],
      "status": "complete",
      "type": "individual",
      "measure": "https://madie.cms.gov/Measure/CMS2FHIRPCSDepScreenAndFollowUp",
      "period": {
        "start": "2026-01-01",
        "end": "2026-12-31"
      },
      "group": [ {
        "id": "Group_1",
        "population": [ {
          "id": "InitialPopulation_1",
          "code": {
            "coding": [ {
              "system": "http://terminology.hl7.org/CodeSystem/measure-population",
              "code": "initial-population",
              "display": "Initial Population"
            } ]
          },
          "count": 1
        }, {
          "id": "Denominator_1",
          "code": {
            "coding": [ {
              "system": "http://terminology.hl7.org/CodeSystem/measure-population",
              "code": "denominator",
              "display": "Denominator"
            } ]
          },
          "count": 1
        }, {
          "id": "DenominatorExclusion_1",
          "code": {
            "coding": [ {
              "system": "http://terminology.hl7.org/CodeSystem/measure-population",
              "code": "denominator-exclusion",
              "display": "Denominator Exclusion"
            } ]
          },
          "count": 0
        }, {
          "id": "Numerator_1",
          "code": {
            "coding": [ {
              "system": "http://terminology.hl7.org/CodeSystem/measure-population",
              "code": "numerator",
              "display": "Numerator"
            } ]
          },
          "count": 0
        }, {
          "id": "DenominatorException_1",
          "code": {
            "coding": [ {
              "system": "http://terminology.hl7.org/CodeSystem/measure-population",
              "code": "denominator-exception",
              "display": "Denominator Exception"
            } ]
          },
          "count": 0
        } ],
        "measureScore": {
          "value": 1.0
        }
      } ],
      "evaluatedResource": [ {
        "reference": "Patient/a09d5edf-2c0a-4b39-86bf-312109f357c0"
      }, {
        "reference": "Encounter/d6d61cd9-c803-4664-a982-cfd0cb1eb2e6"
      }, {
        "reference": "Observation/c637d8f0-f6f3-4fd2-922b-e370c71ed5bd"
      }, {
        "reference": "Observation/37dd9b42-44f3-4e85-a222-7bfd6c3b4aca"
      }, {
        "reference": "Coverage/c5405624-82f7-40fa-9357-7328063a3523"
      }, {
        "reference": "Organization/1b7f5399-974b-4b62-8bb0-0eb1eed77562"
      }, {
        "reference": "Practitioner/0f8a8511-ac29-42f1-a080-3a7e249b731f"
      } ]
    }
  } ]
}