{
  "resourceType": "Bundle",
  "id": "62b1e0113968556e5150cf36",
  "type": "collection",
  "entry": [ {
    "fullUrl": "https://madie.cms.gov/Patient/ff6f7416-7e1d-4712-b4f5-aab79b2a7c01",
    "resource": {
      "resourceType": "Patient",
      "id": "ff6f7416-7e1d-4712-b4f5-aab79b2a7c01",
      "meta": {
        "profile": [ "http://hl7.org/fhir/us/qicore/StructureDefinition/qicore-patient" ]
      },
      "extension": [ {
        "url": "http://hl7.org/fhir/us/core/StructureDefinition/us-core-race",
        "extension": [ {
          "url": "ombCategory",
          "valueCoding": {
            "system": "urn:oid:2.16.840.1.113883.6.238",
            "code": "1002-5",
            "display": "American Indian or Alaska Native",
            "userSelected": true
          }
        }, {
          "url": "text",
          "valueString": "American Indian or Alaska Native"
        } ]
      }, {
        "url": "http://hl7.org/fhir/us/core/StructureDefinition/us-core-ethnicity",
        "extension": [ {
          "url": "ombCategory",
          "valueCoding": {
            "system": "urn:oid:2.16.840.1.113883.6.238",
            "code": "2135-2",
            "display": "Hispanic or Latino",
            "userSelected": true
          }
        }, {
          "url": "text",
          "valueString": "Hispanic or Latino"
        } ]
      }, {
        "url": "http://hl7.org/fhir/us/core/StructureDefinition/us-core-sex",
        "valueCode": "248153007"
      } ],
      "identifier": [ {
        "type": {
          "coding": [ {
            "system": "http://terminology.hl7.org/CodeSystem/v2-0203",
            "code": "MR"
          } ]
        },
        "system": "https://bonnie-fhir.healthit.gov/",
        "value": "62b1e0113968556e5150cf36"
      } ],
      "name": [ {
        "family": "NUMERPass",
        "given": [ "17yoPositiveAdolescentDepressionScreeningandMedsActive" ]
      } ],
      "gender": "male",
      "birthDate": "2009-01-01"
    }
  }, {
    "fullUrl": "https://madie.cms.gov/Encounter/55eb9dc2-948c-470b-8bf5-fa37b01352a7",
    "resource": {
      "resourceType": "Encounter",
      "id": "55eb9dc2-948c-470b-8bf5-fa37b01352a7",
      "meta": {
        "profile": [ "http://hl7.org/fhir/us/qicore/StructureDefinition/qicore-encounter" ]
      },
      "status": "finished",
      "class": {
        "system": "http://terminology.hl7.org/CodeSystem/v3-ActCode",
        "code": "AMB",
        "display": "ambulatory"
      },
      "type": [ {
        "coding": [ {
          "system": "http://snomed.info/sct",
          "code": "10197000",
          "display": "Psychiatric interview and evaluation (procedure)",
          "userSelected": true
        } ]
      } ],
      "subject": {
        "reference": "Patient/ff6f7416-7e1d-4712-b4f5-aab79b2a7c01"
      },
      "period": {
        "start": "2026-06-21T08:00:00.000Z",
        "end": "2026-06-21T08:15:00.000Z"
      }
    }
  }, {
    "fullUrl": "https://madie.cms.gov/Observation/e069a2e3-5edf-4ebf-b20a-547923fb3b00",
    "resource": {
      "resourceType": "Observation",
      "id": "e069a2e3-5edf-4ebf-b20a-547923fb3b00",
      "meta": {
        "profile": [ "http://hl7.org/fhir/us/qicore/StructureDefinition/qicore-observation-screening-assessment" ]
      },
      "status": "final",
      "category": [ {
        "coding": [ {
          "system": "http://terminology.hl7.org/CodeSystem/observation-category",
          "code": "procedure",
          "display": "Procedure"
        } ]
      }, {
        "coding": [ {
          "system": "http://terminology.hl7.org/CodeSystem/observation-category",
          "code": "survey",
          "display": "Survey"
        } ]
      } ],
      "code": {
        "coding": [ {
          "system": "http://loinc.org",
          "code": "73831-0",
          "display": "Adolescent depression screening assessment",
          "userSelected": true
        } ]
      },
      "subject": {
        "reference": "Patient/ff6f7416-7e1d-4712-b4f5-aab79b2a7c01"
      },
      "effectiveDateTime": "2026-06-15T08:00:00.000Z",
      "valueCodeableConcept": {
        "coding": [ {
          "system": "http://snomed.info/sct",
          "code": "428181000124104",
          "display": "Depression screening positive (finding)",
          "userSelected": true
        } ]
      }
    }
  }, {
    "fullUrl": "https://madie.cms.gov/MedicationRequest/d52ebbdf-7083-4187-b492-0fc50bac6c89",
    "resource": {
      "resourceType": "MedicationRequest",
      "id": "d52ebbdf-7083-4187-b492-0fc50bac6c89",
      "meta": {
        "profile": [ "http://hl7.org/fhir/us/qicore/StructureDefinition/qicore-medicationrequest" ]
      },
      "status": "active",
      "intent": "order",
      "doNotPerform": false,
      "medicationCodeableConcept": {
        "coding": [ {
          "system": "http://www.nlm.nih.gov/research/umls/rxnorm",
          "code": "1190110",
          "display": "fluoxetine 60 MG Oral Tablet",
          "userSelected": true
        } ]
      },
      "subject": {
        "reference": "Patient/ff6f7416-7e1d-4712-b4f5-aab79b2a7c01"
      },
      "authoredOn": "2026-06-21T08:00:00.000Z",
      "requester": {
        "reference": "Practitioner/123456"
      },
      "dispenseRequest": {
        "expectedSupplyDuration": {
          "value": 30,
          "system": "http://unitsofmeasure.org",
          "code": "days"
        }
      }
    }
  }, {
    "fullUrl": "https://madie.cms.gov/Coverage/1badd0b3-257c-4ac5-b674-5c763daa40aa",
    "resource": {
      "resourceType": "Coverage",
      "id": "1badd0b3-257c-4ac5-b674-5c763daa40aa",
      "meta": {
        "profile": [ "http://hl7.org/fhir/us/qicore/StructureDefinition/qicore-coverage" ]
      },
      "status": "active",
      "type": {
        "coding": [ {
          "system": "https://nahdo.org/sopt",
          "code": "112",
          "display": "Medicare PPO",
          "userSelected": true
        } ]
      },
      "subscriberId": "123456789",
      "beneficiary": {
        "reference": "Patient/ff6f7416-7e1d-4712-b4f5-aab79b2a7c01"
      },
      "relationship": {
        "coding": [ {
          "system": "http://terminology.hl7.org/CodeSystem/subscriber-relationship",
          "code": "self",
          "display": "Self",
          "userSelected": true
        } ]
      },
      "period": {
        "start": "2021-06-21T08:00:00.000Z",
        "end": "2026-06-21T08:15:00.000Z"
      },
      "payor": [ {
        "reference": "Organization/032a9154-69bc-4383-a9b2-1fc5e147e21a"
      } ]
    }
  }, {
    "fullUrl": "https://madie.cms.gov/Organization/032a9154-69bc-4383-a9b2-1fc5e147e21a",
    "resource": {
      "resourceType": "Organization",
      "id": "032a9154-69bc-4383-a9b2-1fc5e147e21a",
      "meta": {
        "profile": [ "http://hl7.org/fhir/us/qicore/StructureDefinition/qicore-organization" ]
      },
      "identifier": [ {
        "use": "temp",
        "system": "urn:oid:2.16.840.1.113883.4.4",
        "value": "21-3259825"
      } ],
      "active": true,
      "type": [ {
        "coding": [ {
          "system": "http://terminology.hl7.org/CodeSystem/organization-type",
          "code": "pay",
          "display": "Payer"
        } ]
      } ],
      "name": "Blue Cross Blue Shield of Texas",
      "telecom": [ {
        "system": "phone",
        "value": "(+1) 972-766-6900"
      } ],
      "address": [ {
        "use": "billing",
        "type": "postal",
        "line": [ "P.O. Box 660044" ],
        "city": "Dallas",
        "state": "TX",
        "postalCode": "75266-0044",
        "country": "USA"
      } ]
    }
  }, {
    "fullUrl": "https://madie.cms.gov/Practitioner/090294e6-8629-4179-89b0-d4cb1f526697",
    "resource": {
      "resourceType": "Practitioner",
      "id": "090294e6-8629-4179-89b0-d4cb1f526697",
      "meta": {
        "profile": [ "http://hl7.org/fhir/us/qicore/StructureDefinition/qicore-practitioner" ]
      },
      "identifier": [ {
        "system": "http://hl7.org/fhir/sid/us-npi",
        "value": "1234567893"
      } ],
      "name": [ {
        "family": "Evil",
        "prefix": [ "Dr" ]
      } ]
    }
  }, {
    "fullUrl": "https://madie.cms.gov/MeasureReport/ff5cd138-335a-4186-a4bc-25cc1e6b91aa",
    "resource": {
      "resourceType": "MeasureReport",
      "id": "ff5cd138-335a-4186-a4bc-25cc1e6b91aa",
      "meta": {
        "profile": [ "http://hl7.org/fhir/us/cqfmeasures/StructureDefinition/test-case-cqfm" ]
      },
      "contained": [ {
        "resourceType": "Parameters",
        "id": "e552a08b-84a0-4bb0-b64a-5c9f16d01702-parameters",
        "parameter": [ {
          "name": "subject",
          "valueString": "ff6f7416-7e1d-4712-b4f5-aab79b2a7c01"
        } ]
      } ],
      "extension": [ {
        "url": "http://hl7.org/fhir/StructureDefinition/cqf-inputParameters",
        "valueReference": {
          "reference": "#e552a08b-84a0-4bb0-b64a-5c9f16d01702-parameters"
        }
      }, {
        "url": "http://hl7.org/fhir/us/cqfmeasures/StructureDefinition/cqfm-testCaseDescription",
        "valueMarkdown": "17yo with previous positive adolescent depression screening and medication active"
      } ],
      "modifierExtension": [ {
        "url": "http://hl7.org/fhir/us/cqfmeasures/StructureDefinition/cqfm-isTestCase",
        "valueBoolean": true
      } ],
      "status": "complete",
      "type": "individual",
      "measure": "https://madie.cms.gov/Measure/CMS2FHIRPCSDepScreenAndFollowUp",
      "period": {
        "start": "2026-01-01",
        "end": "2026-12-31"
      },
      "group": [ {
        "id": "Group_1",
        "population": [ {
          "id": "InitialPopulation_1",
          "code": {
            "coding": [ {
              "system": "http://terminology.hl7.org/CodeSystem/measure-population",
              "code": "initial-population",
              "display": "Initial Population"
            } ]
          },
          "count": 1
        }, {
          "id": "Denominator_1",
          "code": {
            "coding": [ {
              "system": "http://terminology.hl7.org/CodeSystem/measure-population",
              "code": "denominator",
              "display": "Denominator"
            } ]
          },
          "count": 1
        }, {
          "id": "DenominatorExclusion_1",
          "code": {
            "coding": [ {
              "system": "http://terminology.hl7.org/CodeSystem/measure-population",
              "code": "denominator-exclusion",
              "display": "Denominator Exclusion"
            } ]
          },
          "count": 0
        }, {
          "id": "Numerator_1",
          "code": {
            "coding": [ {
              "system": "http://terminology.hl7.org/CodeSystem/measure-population",
              "code": "numerator",
              "display": "Numerator"
            } ]
          },
          "count": 1
        }, {
          "id": "DenominatorException_1",
          "code": {
            "coding": [ {
              "system": "http://terminology.hl7.org/CodeSystem/measure-population",
              "code": "denominator-exception",
              "display": "Denominator Exception"
            } ]
          },
          "count": 0
        } ],
        "measureScore": {
          "value": 1.0
        }
      } ],
      "evaluatedResource": [ {
        "reference": "Patient/ff6f7416-7e1d-4712-b4f5-aab79b2a7c01"
      }, {
        "reference": "Encounter/55eb9dc2-948c-470b-8bf5-fa37b01352a7"
      }, {
        "reference": "Observation/e069a2e3-5edf-4ebf-b20a-547923fb3b00"
      }, {
        "reference": "MedicationRequest/d52ebbdf-7083-4187-b492-0fc50bac6c89"
      }, {
        "reference": "Coverage/1badd0b3-257c-4ac5-b674-5c763daa40aa"
      }, {
        "reference": "Organization/032a9154-69bc-4383-a9b2-1fc5e147e21a"
      }, {
        "reference": "Practitioner/090294e6-8629-4179-89b0-d4cb1f526697"
      } ]
    }
  } ]
}