{
  "resourceType": "Bundle",
  "id": "612e6ead02c62a011f2ef3a8",
  "type": "transaction",
  "entry": [ {
    "fullUrl": "https://madie.cms.gov/Patient/4b2aa517-ae2b-4419-9c13-4294295eef9a",
    "resource": {
      "resourceType": "Patient",
      "id": "4b2aa517-ae2b-4419-9c13-4294295eef9a",
      "meta": {
        "profile": [ "http://hl7.org/fhir/us/qicore/StructureDefinition/qicore-patient" ]
      },
      "text": {
        "status": "generated",
        "div": "<div xmlns=\"http://www.w3.org/1999/xhtml\"><div class=\"hapiHeaderText\">FactorXaDuring2ndICU <b>DENOMPASS </b></div><table class=\"hapiPropertyTable\"><tbody><tr><td>Identifier</td><td>6d76be9baa47bc8df50fa14784b8bb58</td></tr><tr><td>Date of birth</td><td><span>03 March 1974</span></td></tr></tbody></table></div>"
      },
      "extension": [ {
        "url": "http://hl7.org/fhir/us/core/StructureDefinition/us-core-race",
        "extension": [ {
          "url": "ombCategory",
          "valueCoding": {
            "system": "urn:oid:2.16.840.1.113883.6.238",
            "code": "1002-5",
            "display": "American Indian or Alaska Native",
            "userSelected": true
          }
        }, {
          "url": "text",
          "valueString": "American Indian or Alaska Native"
        } ]
      }, {
        "url": "http://hl7.org/fhir/us/core/StructureDefinition/us-core-ethnicity",
        "extension": [ {
          "url": "ombCategory",
          "valueCoding": {
            "system": "urn:oid:2.16.840.1.113883.6.238",
            "code": "2135-2",
            "display": "Hispanic or Latino",
            "userSelected": true
          }
        }, {
          "url": "text",
          "valueString": "Hispanic or Latino"
        } ]
      } ],
      "identifier": [ {
        "type": {
          "coding": [ {
            "system": "http://terminology.hl7.org/CodeSystem/v2-0203",
            "code": "MR"
          } ]
        },
        "system": "https://bonnie-fhir.healthit.gov/",
        "value": "612e6ead02c62a011f2ef3a8"
      } ],
      "active": true,
      "name": [ {
        "use": "usual",
        "family": "DENOMPass",
        "given": [ "FactorXaDuring2ndICU" ]
      } ],
      "gender": "female",
      "birthDate": "1975-03-03"
    },
    "request": {
      "method": "PUT",
      "url": "Patient/4b2aa517-ae2b-4419-9c13-4294295eef9a"
    }
  }, {
    "fullUrl": "https://madie.cms.gov/Encounter/bc5a19c1-5d6c-431d-9d87-e1683fa9a2a4",
    "resource": {
      "resourceType": "Encounter",
      "id": "bc5a19c1-5d6c-431d-9d87-e1683fa9a2a4",
      "meta": {
        "profile": [ "http://hl7.org/fhir/us/qicore/StructureDefinition/qicore-encounter" ]
      },
      "status": "finished",
      "class": {
        "system": "http://terminology.hl7.org/CodeSystem/v3-ActCode",
        "code": "IMP",
        "display": "inpatient encounter"
      },
      "type": [ {
        "coding": [ {
          "system": "http://snomed.info/sct",
          "code": "8715000",
          "display": "Hospital admission, elective (procedure)"
        } ]
      } ],
      "subject": {
        "reference": "Patient/4b2aa517-ae2b-4419-9c13-4294295eef9a"
      },
      "period": {
        "start": "2026-12-04T08:00:00.000+00:00",
        "end": "2026-12-30T08:15:00.000+00:00"
      },
      "length": {
        "value": 26.0,
        "unit": "days"
      },
      "location": [ {
        "location": {
          "reference": "Location/70027ee0-3a84-4c44-94f4-be24e3531173"
        },
        "period": {
          "start": "2026-12-06T08:00:00.000+00:00",
          "end": "2026-12-08T08:15:00.000+00:00"
        }
      }, {
        "location": {
          "reference": "Location/b8f2fb70-2867-444f-b667-c7f65836bdbc"
        },
        "period": {
          "start": "2026-12-31T08:00:00.000+00:00",
          "end": "2026-12-31T08:15:00.000+00:00"
        }
      } ]
    },
    "request": {
      "method": "PUT",
      "url": "Encounter/bc5a19c1-5d6c-431d-9d87-e1683fa9a2a4"
    }
  }, {
    "fullUrl": "https://madie.cms.gov/MedicationAdministration/067c455d-aadd-4c1f-8698-b3d9f8b91108",
    "resource": {
      "resourceType": "MedicationAdministration",
      "id": "067c455d-aadd-4c1f-8698-b3d9f8b91108",
      "meta": {
        "profile": [ "http://hl7.org/fhir/us/qicore/StructureDefinition/qicore-medicationadministration" ]
      },
      "status": "completed",
      "medicationCodeableConcept": {
        "coding": [ {
          "system": "http://www.nlm.nih.gov/research/umls/rxnorm",
          "code": "861356"
        } ]
      },
      "subject": {
        "reference": "Patient/4b2aa517-ae2b-4419-9c13-4294295eef9a"
      },
      "effectiveDateTime": "2026-12-31T08:05:00.000+00:00"
    },
    "request": {
      "method": "PUT",
      "url": "MedicationAdministration/067c455d-aadd-4c1f-8698-b3d9f8b91108"
    }
  }, {
    "fullUrl": "https://madie.cms.gov/Coverage/920a3e11-7114-4b81-8886-572eea6a62b5",
    "resource": {
      "resourceType": "Coverage",
      "id": "920a3e11-7114-4b81-8886-572eea6a62b5",
      "status": "active",
      "beneficiary": {
        "reference": "Patient/4b2aa517-ae2b-4419-9c13-4294295eef9a"
      },
      "period": {
        "start": "1975-03-03T08:00:00.000+00:00"
      },
      "payor": [ {
        "reference": "Organization/a029ebb5-a085-402d-b9cc-97f1c553cd31"
      } ]
    },
    "request": {
      "method": "PUT",
      "url": "Coverage/920a3e11-7114-4b81-8886-572eea6a62b5"
    }
  }, {
    "fullUrl": "https://madie.cms.gov/Location/70027ee0-3a84-4c44-94f4-be24e3531173",
    "resource": {
      "resourceType": "Location",
      "id": "70027ee0-3a84-4c44-94f4-be24e3531173",
      "meta": {
        "profile": [ "http://hl7.org/fhir/us/qicore/StructureDefinition/qicore-location" ]
      },
      "identifier": [ {
        "use": "usual",
        "system": "http://exampleoflocation.com",
        "value": "B1-S.F2"
      } ],
      "name": "Medical Surgical East, first floor",
      "type": [ {
        "coding": [ {
          "system": "https://www.cdc.gov/nhsn/cdaportal/terminology/codesystem/hsloc.html",
          "version": "2020",
          "code": "1025-6",
          "display": "Trauma Critical Care",
          "userSelected": true
        } ]
      } ]
    },
    "request": {
      "method": "PUT",
      "url": "Location/70027ee0-3a84-4c44-94f4-be24e3531173"
    }
  }, {
    "fullUrl": "https://madie.cms.gov/Location/b8f2fb70-2867-444f-b667-c7f65836bdbc",
    "resource": {
      "resourceType": "Location",
      "id": "b8f2fb70-2867-444f-b667-c7f65836bdbc",
      "meta": {
        "profile": [ "http://hl7.org/fhir/us/qicore/StructureDefinition/qicore-location" ]
      },
      "identifier": [ {
        "use": "usual",
        "system": "http://exampleoflocation.com",
        "value": "A1-S.F2"
      } ],
      "name": "Medical Surgical West, first floor",
      "type": [ {
        "coding": [ {
          "system": "https://www.cdc.gov/nhsn/cdaportal/terminology/codesystem/hsloc.html",
          "version": "2020",
          "code": "1025-6",
          "display": "Trauma Critical Care",
          "userSelected": true
        } ]
      } ]
    },
    "request": {
      "method": "PUT",
      "url": "Location/b8f2fb70-2867-444f-b667-c7f65836bdbc"
    }
  }, {
    "fullUrl": "https://madie.cms.gov/Organization/a029ebb5-a085-402d-b9cc-97f1c553cd31",
    "resource": {
      "resourceType": "Organization",
      "id": "a029ebb5-a085-402d-b9cc-97f1c553cd31",
      "meta": {
        "profile": [ "http://hl7.org/fhir/us/qicore/StructureDefinition/qicore-organization" ]
      },
      "identifier": [ {
        "use": "temp",
        "system": "urn:oid:2.16.840.1.113883.4.4",
        "value": "21-3259825"
      } ],
      "active": true,
      "type": [ {
        "coding": [ {
          "system": "http://terminology.hl7.org/CodeSystem/organization-type",
          "code": "pay",
          "display": "Payer"
        } ]
      } ],
      "name": "Blue Cross Blue Shield of Texas",
      "telecom": [ {
        "system": "phone",
        "value": "(+1) 972-766-6900"
      } ],
      "address": [ {
        "use": "billing",
        "type": "postal",
        "line": [ "P.O. Box 660044" ],
        "city": "Dallas",
        "state": "TX",
        "postalCode": "75266-0044",
        "country": "USA"
      } ]
    },
    "request": {
      "method": "PUT",
      "url": "Organization/a029ebb5-a085-402d-b9cc-97f1c553cd31"
    }
  }, {
    "fullUrl": "https://madie.cms.gov/MeasureReport/c3014fdc-5ea8-4b91-9828-983b9de8e0bc",
    "resource": {
      "resourceType": "MeasureReport",
      "id": "c3014fdc-5ea8-4b91-9828-983b9de8e0bc",
      "meta": {
        "profile": [ "http://hl7.org/fhir/us/cqfmeasures/StructureDefinition/test-case-cqfm" ]
      },
      "contained": [ {
        "resourceType": "Parameters",
        "id": "21b609d6-b54a-4a70-a8fd-b8c1b9e51e94-parameters",
        "parameter": [ {
          "name": "subject",
          "valueString": "4b2aa517-ae2b-4419-9c13-4294295eef9a"
        } ]
      } ],
      "extension": [ {
        "url": "http://hl7.org/fhir/StructureDefinition/cqf-inputParameters",
        "valueReference": {
          "reference": "#21b609d6-b54a-4a70-a8fd-b8c1b9e51e94-parameters"
        }
      }, {
        "url": "http://hl7.org/fhir/us/cqfmeasures/StructureDefinition/cqfm-testCaseDescription",
        "valueMarkdown": "Patient gets VTE prophylaxis on the second ICU admission during the inpatient encounter.\n"
      } ],
      "modifierExtension": [ {
        "url": "http://hl7.org/fhir/us/cqfmeasures/StructureDefinition/cqfm-isTestCase",
        "valueBoolean": true
      } ],
      "status": "complete",
      "type": "individual",
      "measure": "https://madie.cms.gov/Measure/CMS190FHIRVTEProphylaxisICU",
      "period": {
        "start": "2026-01-01",
        "end": "2026-12-31"
      },
      "group": [ {
        "id": "Group_1",
        "population": [ {
          "id": "InitialPopulation_1",
          "code": {
            "coding": [ {
              "system": "http://terminology.hl7.org/CodeSystem/measure-population",
              "code": "initial-population",
              "display": "Initial Population"
            } ]
          },
          "count": 1
        }, {
          "id": "Denominator_1",
          "code": {
            "coding": [ {
              "system": "http://terminology.hl7.org/CodeSystem/measure-population",
              "code": "denominator",
              "display": "Denominator"
            } ]
          },
          "count": 1
        }, {
          "id": "DenominatorExclusion_1",
          "code": {
            "coding": [ {
              "system": "http://terminology.hl7.org/CodeSystem/measure-population",
              "code": "denominator-exclusion",
              "display": "Denominator Exclusion"
            } ]
          },
          "count": 0
        }, {
          "id": "Numerator_1",
          "code": {
            "coding": [ {
              "system": "http://terminology.hl7.org/CodeSystem/measure-population",
              "code": "numerator",
              "display": "Numerator"
            } ]
          },
          "count": 0
        }, {
          "id": "DenominatorException_1",
          "code": {
            "coding": [ {
              "system": "http://terminology.hl7.org/CodeSystem/measure-population",
              "code": "denominator-exception",
              "display": "Denominator Exception"
            } ]
          },
          "count": 0
        } ],
        "measureScore": {
          "value": 0.0
        }
      } ],
      "evaluatedResource": [ {
        "reference": "Patient/4b2aa517-ae2b-4419-9c13-4294295eef9a"
      }, {
        "reference": "Encounter/bc5a19c1-5d6c-431d-9d87-e1683fa9a2a4"
      }, {
        "reference": "MedicationAdministration/067c455d-aadd-4c1f-8698-b3d9f8b91108"
      }, {
        "reference": "Coverage/920a3e11-7114-4b81-8886-572eea6a62b5"
      }, {
        "reference": "Location/70027ee0-3a84-4c44-94f4-be24e3531173"
      }, {
        "reference": "Location/b8f2fb70-2867-444f-b667-c7f65836bdbc"
      }, {
        "reference": "Organization/a029ebb5-a085-402d-b9cc-97f1c553cd31"
      } ]
    },
    "request": {
      "method": "PUT",
      "url": "MeasureReport/c3014fdc-5ea8-4b91-9828-983b9de8e0bc"
    }
  } ]
}