{
  "resourceType": "Bundle",
  "id": "612e6a8402c62a011f2ea3c7",
  "type": "transaction",
  "entry": [ {
    "fullUrl": "https://madie.cms.gov/Patient/d8c5ec26-7d98-4461-899e-edfcfed7b058",
    "resource": {
      "resourceType": "Patient",
      "id": "d8c5ec26-7d98-4461-899e-edfcfed7b058",
      "meta": {
        "profile": [ "http://hl7.org/fhir/us/qicore/StructureDefinition/qicore-patient" ]
      },
      "text": {
        "status": "generated",
        "div": "<div xmlns=\"http://www.w3.org/1999/xhtml\"><div class=\"hapiHeaderText\">MedReason_MO_LDUHep_DO_VFP_IPEnc <b>NUMERPASS </b></div><table class=\"hapiPropertyTable\"><tbody><tr><td>Identifier</td><td>cdd1ec13b77c1be95c04b9f3b51d6649</td></tr><tr><td>Date of birth</td><td><span>02 January 1974</span></td></tr></tbody></table></div>"
      },
      "extension": [ {
        "url": "http://hl7.org/fhir/us/core/StructureDefinition/us-core-race",
        "extension": [ {
          "url": "ombCategory",
          "valueCoding": {
            "system": "urn:oid:2.16.840.1.113883.6.238",
            "code": "1002-5",
            "display": "American Indian or Alaska Native",
            "userSelected": true
          }
        }, {
          "url": "text",
          "valueString": "American Indian or Alaska Native"
        } ]
      }, {
        "url": "http://hl7.org/fhir/us/core/StructureDefinition/us-core-ethnicity",
        "extension": [ {
          "url": "ombCategory",
          "valueCoding": {
            "system": "urn:oid:2.16.840.1.113883.6.238",
            "code": "2135-2",
            "display": "Hispanic or Latino",
            "userSelected": true
          }
        }, {
          "url": "text",
          "valueString": "Hispanic or Latino"
        } ]
      } ],
      "identifier": [ {
        "type": {
          "coding": [ {
            "system": "http://terminology.hl7.org/CodeSystem/v2-0203",
            "code": "MR"
          } ]
        },
        "system": "https://bonnie-fhir.healthit.gov/",
        "value": "612e6a8402c62a011f2ea3c7"
      } ],
      "active": true,
      "name": [ {
        "use": "usual",
        "family": "NUMERPass",
        "given": [ "MedReasonMOLDUHepDOVFPIPEnc" ]
      } ],
      "gender": "male",
      "birthDate": "1975-01-02"
    },
    "request": {
      "method": "PUT",
      "url": "Patient/d8c5ec26-7d98-4461-899e-edfcfed7b058"
    }
  }, {
    "fullUrl": "https://madie.cms.gov/Encounter/84a36e5a-c9ff-4b27-9f44-13e578190e2e",
    "resource": {
      "resourceType": "Encounter",
      "id": "84a36e5a-c9ff-4b27-9f44-13e578190e2e",
      "meta": {
        "profile": [ "http://hl7.org/fhir/us/qicore/StructureDefinition/qicore-encounter" ]
      },
      "status": "finished",
      "class": {
        "system": "http://terminology.hl7.org/CodeSystem/v3-ActCode",
        "code": "IMP",
        "display": "inpatient encounter"
      },
      "type": [ {
        "coding": [ {
          "system": "http://snomed.info/sct",
          "code": "8715000"
        } ]
      } ],
      "subject": {
        "reference": "Patient/d8c5ec26-7d98-4461-899e-edfcfed7b058"
      },
      "period": {
        "start": "2026-11-01T08:00:00.000+00:00",
        "end": "2026-11-26T08:15:00.000+00:00"
      },
      "length": {
        "value": 25,
        "unit": "days"
      }
    },
    "request": {
      "method": "PUT",
      "url": "Encounter/84a36e5a-c9ff-4b27-9f44-13e578190e2e"
    }
  }, {
    "fullUrl": "https://madie.cms.gov/Coverage/45b374dc-d49b-4b2b-9ad2-76cf3d666aa5",
    "resource": {
      "resourceType": "Coverage",
      "id": "45b374dc-d49b-4b2b-9ad2-76cf3d666aa5",
      "status": "active",
      "beneficiary": {
        "reference": "Patient/d8c5ec26-7d98-4461-899e-edfcfed7b058"
      },
      "period": {
        "start": "1975-01-02T08:00:00.000+00:00"
      },
      "payor": [ {
        "reference": "Organization/cae59df3-ab29-414a-8ea4-c7d7188bb351"
      } ]
    },
    "request": {
      "method": "PUT",
      "url": "Coverage/45b374dc-d49b-4b2b-9ad2-76cf3d666aa5"
    }
  }, {
    "fullUrl": "https://madie.cms.gov/MedicationRequest/767fdffe-c9e4-4ee4-9a51-f8fb8140613d",
    "resource": {
      "resourceType": "MedicationRequest",
      "id": "767fdffe-c9e4-4ee4-9a51-f8fb8140613d",
      "meta": {
        "profile": [ "http://hl7.org/fhir/us/qicore/StructureDefinition/qicore-medicationnotrequested" ]
      },
      "status": "completed",
      "intent": "order",
      "category": [ {
        "coding": [ {
          "system": "http://terminology.hl7.org/CodeSystem/medicationrequest-category",
          "code": "inpatient"
        } ]
      } ],
      "doNotPerform": true,
      "medicationCodeableConcept": {
        "coding": [ {
          "system": "http://www.nlm.nih.gov/research/umls/rxnorm",
          "code": "1361574"
        } ]
      },
      "subject": {
        "reference": "Patient/d8c5ec26-7d98-4461-899e-edfcfed7b058"
      },
      "authoredOn": "2026-11-01T09:00:00.000+00:00",
      "requester": {
        "reference": "Practitioner/123456"
      },
      "reasonCode": [ {
        "coding": [ {
          "system": "http://snomed.info/sct",
          "code": "183966005",
          "display": "Drug treatment not indicated (situation)"
        } ]
      } ],
      "dosageInstruction": [ {
        "timing": {
          "repeat": {
            "boundsPeriod": {
              "start": "2026-11-01T09:00:00.000+00:00"
            }
          }
        }
      } ]
    },
    "request": {
      "method": "PUT",
      "url": "MedicationRequest/767fdffe-c9e4-4ee4-9a51-f8fb8140613d"
    }
  }, {
    "fullUrl": "https://madie.cms.gov/ServiceRequest/03499f12-674c-491d-bb09-3691c5243ab4",
    "resource": {
      "resourceType": "ServiceRequest",
      "id": "03499f12-674c-491d-bb09-3691c5243ab4",
      "meta": {
        "profile": [ "http://hl7.org/fhir/us/qicore/StructureDefinition/qicore-servicenotrequested" ]
      },
      "extension": [ {
        "url": "http://hl7.org/fhir/us/qicore/StructureDefinition/qicore-doNotPerformReason",
        "valueCodeableConcept": {
          "coding": [ {
            "system": "http://snomed.info/sct",
            "code": "183932001",
            "display": "Procedure contraindicated (situation)"
          } ]
        }
      } ],
      "status": "completed",
      "intent": "order",
      "doNotPerform": true,
      "code": {
        "coding": [ {
          "system": "http://snomed.info/sct",
          "version": "2025-03",
          "code": "442023007",
          "display": "Venous foot pump, device (physical object)",
          "userSelected": true
        } ]
      },
      "subject": {
        "reference": "Patient/d8c5ec26-7d98-4461-899e-edfcfed7b058"
      },
      "authoredOn": "2026-11-01T09:00:00.000+00:00"
    },
    "request": {
      "method": "PUT",
      "url": "ServiceRequest/03499f12-674c-491d-bb09-3691c5243ab4"
    }
  }, {
    "fullUrl": "https://madie.cms.gov/Organization/cae59df3-ab29-414a-8ea4-c7d7188bb351",
    "resource": {
      "resourceType": "Organization",
      "id": "cae59df3-ab29-414a-8ea4-c7d7188bb351",
      "meta": {
        "profile": [ "http://hl7.org/fhir/us/qicore/StructureDefinition/qicore-organization" ]
      },
      "identifier": [ {
        "use": "temp",
        "system": "urn:oid:2.16.840.1.113883.4.4",
        "value": "21-3259825"
      } ],
      "active": true,
      "type": [ {
        "coding": [ {
          "system": "http://terminology.hl7.org/CodeSystem/organization-type",
          "code": "pay",
          "display": "Payer"
        } ]
      } ],
      "name": "Blue Cross Blue Shield of Texas",
      "telecom": [ {
        "system": "phone",
        "value": "(+1) 972-766-6900"
      } ],
      "address": [ {
        "use": "billing",
        "type": "postal",
        "line": [ "P.O. Box 660044" ],
        "city": "Dallas",
        "state": "TX",
        "postalCode": "75266-0044",
        "country": "USA"
      } ]
    },
    "request": {
      "method": "PUT",
      "url": "Organization/cae59df3-ab29-414a-8ea4-c7d7188bb351"
    }
  }, {
    "fullUrl": "https://madie.cms.gov/Practitioner/e4316e52-3b57-47d6-800a-11557137b378",
    "resource": {
      "resourceType": "Practitioner",
      "id": "e4316e52-3b57-47d6-800a-11557137b378",
      "identifier": [ {
        "system": "http://hl7.org/fhir/sid/us-npi",
        "value": "123456"
      } ],
      "name": [ {
        "family": "Evil",
        "prefix": [ "Dr" ]
      } ]
    },
    "request": {
      "method": "PUT",
      "url": "Practitioner/e4316e52-3b57-47d6-800a-11557137b378"
    }
  }, {
    "fullUrl": "https://madie.cms.gov/MeasureReport/18a99b1a-cd03-47f3-9a94-c24fcfc93a81",
    "resource": {
      "resourceType": "MeasureReport",
      "id": "18a99b1a-cd03-47f3-9a94-c24fcfc93a81",
      "meta": {
        "profile": [ "http://hl7.org/fhir/us/cqfmeasures/StructureDefinition/test-case-cqfm" ]
      },
      "contained": [ {
        "resourceType": "Parameters",
        "id": "4e08850d-ae5f-4052-bd58-60f8bf852b2f-parameters",
        "parameter": [ {
          "name": "subject",
          "valueString": "d8c5ec26-7d98-4461-899e-edfcfed7b058"
        } ]
      } ],
      "extension": [ {
        "url": "http://hl7.org/fhir/StructureDefinition/cqf-inputParameters",
        "valueReference": {
          "reference": "#4e08850d-ae5f-4052-bd58-60f8bf852b2f-parameters"
        }
      }, {
        "url": "http://hl7.org/fhir/us/cqfmeasures/StructureDefinition/cqfm-testCaseDescription",
        "valueMarkdown": "venous foot pump not ordered and low dose unfractionated heparin not ordered due to  medical reason <= 1 day after start of IP encounter\n"
      } ],
      "modifierExtension": [ {
        "url": "http://hl7.org/fhir/us/cqfmeasures/StructureDefinition/cqfm-isTestCase",
        "valueBoolean": true
      } ],
      "status": "complete",
      "type": "individual",
      "measure": "https://madie.cms.gov/Measure/CMS108FHIRVTEProphylaxis",
      "period": {
        "start": "2026-01-01",
        "end": "2026-12-31"
      },
      "group": [ {
        "id": "Group_1",
        "population": [ {
          "id": "InitialPopulation_1",
          "code": {
            "coding": [ {
              "system": "http://terminology.hl7.org/CodeSystem/measure-population",
              "code": "initial-population",
              "display": "Initial Population"
            } ]
          },
          "count": 1
        }, {
          "id": "Denominator_1",
          "code": {
            "coding": [ {
              "system": "http://terminology.hl7.org/CodeSystem/measure-population",
              "code": "denominator",
              "display": "Denominator"
            } ]
          },
          "count": 1
        }, {
          "id": "DenominatorExclusion_1",
          "code": {
            "coding": [ {
              "system": "http://terminology.hl7.org/CodeSystem/measure-population",
              "code": "denominator-exclusion",
              "display": "Denominator Exclusion"
            } ]
          },
          "count": 0
        }, {
          "id": "Numerator_1",
          "code": {
            "coding": [ {
              "system": "http://terminology.hl7.org/CodeSystem/measure-population",
              "code": "numerator",
              "display": "Numerator"
            } ]
          },
          "count": 1
        } ],
        "measureScore": {
          "value": 0.0
        }
      } ],
      "evaluatedResource": [ {
        "reference": "Patient/d8c5ec26-7d98-4461-899e-edfcfed7b058"
      }, {
        "reference": "Encounter/84a36e5a-c9ff-4b27-9f44-13e578190e2e"
      }, {
        "reference": "Coverage/45b374dc-d49b-4b2b-9ad2-76cf3d666aa5"
      }, {
        "reference": "MedicationRequest/767fdffe-c9e4-4ee4-9a51-f8fb8140613d"
      }, {
        "reference": "ServiceRequest/03499f12-674c-491d-bb09-3691c5243ab4"
      }, {
        "reference": "Organization/cae59df3-ab29-414a-8ea4-c7d7188bb351"
      }, {
        "reference": "Practitioner/e4316e52-3b57-47d6-800a-11557137b378"
      } ]
    },
    "request": {
      "method": "PUT",
      "url": "MeasureReport/18a99b1a-cd03-47f3-9a94-c24fcfc93a81"
    }
  } ]
}