{
  "resourceType": "Bundle",
  "id": "612e6b0202c62a011f2ec156",
  "type": "transaction",
  "entry": [ {
    "fullUrl": "https://madie.cms.gov/Patient/76f42831-b31b-48f0-9053-60754a77451c",
    "resource": {
      "resourceType": "Patient",
      "id": "76f42831-b31b-48f0-9053-60754a77451c",
      "meta": {
        "profile": [ "http://hl7.org/fhir/us/qicore/StructureDefinition/qicore-patient" ]
      },
      "text": {
        "status": "generated",
        "div": "<div xmlns=\"http://www.w3.org/1999/xhtml\"><div class=\"hapiHeaderText\">HipSurgRank1 <b>DENEXPASS </b></div><table class=\"hapiPropertyTable\"><tbody><tr><td>Identifier</td><td>66c70c125db369967b4b164e75338304</td></tr><tr><td>Date of birth</td><td><span>01 September 2000</span></td></tr></tbody></table></div>"
      },
      "extension": [ {
        "url": "http://hl7.org/fhir/us/core/StructureDefinition/us-core-race",
        "extension": [ {
          "url": "ombCategory",
          "valueCoding": {
            "system": "urn:oid:2.16.840.1.113883.6.238",
            "code": "1002-5",
            "display": "American Indian or Alaska Native",
            "userSelected": true
          }
        }, {
          "url": "text",
          "valueString": "American Indian or Alaska Native"
        } ]
      }, {
        "url": "http://hl7.org/fhir/us/core/StructureDefinition/us-core-ethnicity",
        "extension": [ {
          "url": "ombCategory",
          "valueCoding": {
            "system": "urn:oid:2.16.840.1.113883.6.238",
            "code": "2135-2",
            "display": "Hispanic or Latino",
            "userSelected": true
          }
        }, {
          "url": "text",
          "valueString": "Hispanic or Latino"
        } ]
      } ],
      "identifier": [ {
        "type": {
          "coding": [ {
            "system": "http://terminology.hl7.org/CodeSystem/v2-0203",
            "code": "MR"
          } ]
        },
        "system": "https://bonnie-fhir.healthit.gov/",
        "value": "612e6b0202c62a011f2ec156"
      } ],
      "active": true,
      "name": [ {
        "use": "usual",
        "family": "DENEXPass ",
        "given": [ "HipSurgRank1" ]
      } ],
      "gender": "male",
      "birthDate": "2001-09-01"
    },
    "request": {
      "method": "PUT",
      "url": "Patient/76f42831-b31b-48f0-9053-60754a77451c"
    }
  }, {
    "fullUrl": "https://madie.cms.gov/Encounter/9672204d-509b-44b0-8944-1be4888910a2",
    "resource": {
      "resourceType": "Encounter",
      "id": "9672204d-509b-44b0-8944-1be4888910a2",
      "meta": {
        "profile": [ "http://hl7.org/fhir/us/qicore/StructureDefinition/qicore-encounter" ]
      },
      "status": "finished",
      "class": {
        "system": "http://terminology.hl7.org/CodeSystem/v3-ActCode",
        "code": "IMP",
        "display": "inpatient encounter"
      },
      "type": [ {
        "coding": [ {
          "system": "http://snomed.info/sct",
          "code": "183452005"
        } ]
      } ],
      "subject": {
        "reference": "Patient/76f42831-b31b-48f0-9053-60754a77451c"
      },
      "period": {
        "start": "2026-09-02T06:00:00.000+00:00",
        "end": "2026-12-31T12:59:00.000+00:00"
      },
      "length": {
        "value": 120,
        "unit": "days"
      }
    },
    "request": {
      "method": "PUT",
      "url": "Encounter/9672204d-509b-44b0-8944-1be4888910a2"
    }
  }, {
    "fullUrl": "https://madie.cms.gov/claim/5ca62962b8484628b8de1ec5",
    "resource": {
      "resourceType": "Claim",
      "id": "5ca62962b8484628b8de1ec5",
      "meta": {
        "profile": [ "http://hl7.org/fhir/us/qicore/StructureDefinition/qicore-claim" ]
      },
      "status": "active",
      "type": {
        "coding": [ {
          "system": "http://terminology.hl7.org/CodeSystem/claim-type",
          "code": "institutional"
        } ]
      },
      "use": "claim",
      "patient": {
        "reference": "Patient/76f42831-b31b-48f0-9053-60754a77451c"
      },
      "created": "2026-12-01",
      "provider": {
        "reference": "Practitioner/a627f3e6-159c-44cf-b598-18959bc98f3a"
      },
      "priority": {
        "coding": [ {
          "system": "http://terminology.hl7.org/CodeSystem/processpriority",
          "code": "normal"
        } ]
      },
      "procedure": [ {
        "sequence": 1,
        "type": [ {
          "coding": [ {
            "system": "http://terminology.hl7.org/CodeSystem/ex-procedure-type",
            "code": "primary"
          } ]
        } ],
        "procedureCodeableConcept": {
          "coding": [ {
            "system": "http://www.cms.gov/Medicare/Coding/ICD10",
            "code": "0SU90BZ"
          } ]
        }
      } ],
      "insurance": [ {
        "sequence": 1,
        "focal": true,
        "coverage": {
          "reference": "Coverage/629f2d7d-8dde-42cc-ba4c-c3d5cdcc3485"
        }
      } ],
      "item": [ {
        "sequence": 1,
        "procedureSequence": [ 1 ],
        "productOrService": {
          "coding": [ {
            "system": "http://terminology.hl7.org/CodeSystem/ex-USCLS",
            "code": "99555"
          } ]
        },
        "encounter": [ {
          "reference": "Encounter/9672204d-509b-44b0-8944-1be4888910a2"
        } ]
      } ]
    },
    "request": {
      "method": "PUT",
      "url": "Claim/5ca62962b8484628b8de1ec5"
    }
  }, {
    "fullUrl": "https://madie.cms.gov/Coverage/629f2d7d-8dde-42cc-ba4c-c3d5cdcc3485",
    "resource": {
      "resourceType": "Coverage",
      "id": "629f2d7d-8dde-42cc-ba4c-c3d5cdcc3485",
      "status": "active",
      "beneficiary": {
        "reference": "Patient/76f42831-b31b-48f0-9053-60754a77451c"
      },
      "period": {
        "start": "2001-09-01T08:00:00.000+00:00"
      },
      "payor": [ {
        "reference": "Organization/1eb491d0-2dc4-4da4-b580-017a5289412a"
      } ]
    },
    "request": {
      "method": "PUT",
      "url": "Coverage/629f2d7d-8dde-42cc-ba4c-c3d5cdcc3485"
    }
  }, {
    "fullUrl": "https://madie.cms.gov/Procedure/6d3f5a8d-49c2-4701-b75b-80f1f7c7562c",
    "resource": {
      "resourceType": "Procedure",
      "id": "6d3f5a8d-49c2-4701-b75b-80f1f7c7562c",
      "meta": {
        "profile": [ "http://hl7.org/fhir/us/qicore/StructureDefinition/qicore-procedure" ]
      },
      "extension": [ {
        "url": "http://hl7.org/fhir/us/qicore/StructureDefinition/qicore-recorded",
        "valueDateTime": "2013-09-02T13:35:00.000+00:00"
      } ],
      "status": "completed",
      "code": {
        "coding": [ {
          "system": "http://www.cms.gov/Medicare/Coding/ICD10",
          "code": "0SU90BZ"
        } ]
      },
      "subject": {
        "reference": "Patient/76f42831-b31b-48f0-9053-60754a77451c"
      },
      "performedPeriod": {
        "start": "2026-09-02T09:00:00.000+00:00",
        "end": "2026-09-02T12:59:00.000+00:00"
      }
    },
    "request": {
      "method": "PUT",
      "url": "Procedure/6d3f5a8d-49c2-4701-b75b-80f1f7c7562c"
    }
  }, {
    "fullUrl": "https://madie.cms.gov/Organization/1eb491d0-2dc4-4da4-b580-017a5289412a",
    "resource": {
      "resourceType": "Organization",
      "id": "1eb491d0-2dc4-4da4-b580-017a5289412a",
      "meta": {
        "profile": [ "http://hl7.org/fhir/us/qicore/StructureDefinition/qicore-organization" ]
      },
      "identifier": [ {
        "use": "temp",
        "system": "urn:oid:2.16.840.1.113883.4.4",
        "value": "21-3259825"
      } ],
      "active": true,
      "type": [ {
        "coding": [ {
          "system": "http://terminology.hl7.org/CodeSystem/organization-type",
          "code": "pay",
          "display": "Payer"
        } ]
      } ],
      "name": "Blue Cross Blue Shield of Texas",
      "telecom": [ {
        "system": "phone",
        "value": "(+1) 972-766-6900"
      } ],
      "address": [ {
        "use": "billing",
        "type": "postal",
        "line": [ "P.O. Box 660044" ],
        "city": "Dallas",
        "state": "TX",
        "postalCode": "75266-0044",
        "country": "USA"
      } ]
    },
    "request": {
      "method": "PUT",
      "url": "Organization/1eb491d0-2dc4-4da4-b580-017a5289412a"
    }
  }, {
    "fullUrl": "https://madie.cms.gov/Practitioner/a627f3e6-159c-44cf-b598-18959bc98f3a",
    "resource": {
      "resourceType": "Practitioner",
      "id": "a627f3e6-159c-44cf-b598-18959bc98f3a",
      "identifier": [ {
        "system": "http://hl7.org/fhir/sid/us-npi",
        "value": "123456"
      } ],
      "name": [ {
        "family": "Evil",
        "prefix": [ "Dr" ]
      } ]
    },
    "request": {
      "method": "PUT",
      "url": "Practitioner/a627f3e6-159c-44cf-b598-18959bc98f3a"
    }
  }, {
    "fullUrl": "https://madie.cms.gov/MeasureReport/b3e23934-3197-4a72-a3fa-35bc7f254afb",
    "resource": {
      "resourceType": "MeasureReport",
      "id": "b3e23934-3197-4a72-a3fa-35bc7f254afb",
      "meta": {
        "profile": [ "http://hl7.org/fhir/us/cqfmeasures/StructureDefinition/test-case-cqfm" ]
      },
      "contained": [ {
        "resourceType": "Parameters",
        "id": "7f3ae4c6-ae08-4f8d-908e-9baf77bee8cb-parameters",
        "parameter": [ {
          "name": "subject",
          "valueString": "76f42831-b31b-48f0-9053-60754a77451c"
        } ]
      } ],
      "extension": [ {
        "url": "http://hl7.org/fhir/StructureDefinition/cqf-inputParameters",
        "valueReference": {
          "reference": "#7f3ae4c6-ae08-4f8d-908e-9baf77bee8cb-parameters"
        }
      }, {
        "url": "http://hl7.org/fhir/us/cqfmeasures/StructureDefinition/cqfm-testCaseDescription",
        "valueMarkdown": "Patient had SCIP -Hip Replacemnet during Encounter and Rank =1\n"
      } ],
      "modifierExtension": [ {
        "url": "http://hl7.org/fhir/us/cqfmeasures/StructureDefinition/cqfm-isTestCase",
        "valueBoolean": true
      } ],
      "status": "complete",
      "type": "individual",
      "measure": "https://madie.cms.gov/Measure/CMS108FHIRVTEProphylaxis",
      "period": {
        "start": "2026-01-01",
        "end": "2026-12-31"
      },
      "group": [ {
        "id": "Group_1",
        "population": [ {
          "id": "InitialPopulation_1",
          "code": {
            "coding": [ {
              "system": "http://terminology.hl7.org/CodeSystem/measure-population",
              "code": "initial-population",
              "display": "Initial Population"
            } ]
          },
          "count": 1
        }, {
          "id": "Denominator_1",
          "code": {
            "coding": [ {
              "system": "http://terminology.hl7.org/CodeSystem/measure-population",
              "code": "denominator",
              "display": "Denominator"
            } ]
          },
          "count": 1
        }, {
          "id": "DenominatorExclusion_1",
          "code": {
            "coding": [ {
              "system": "http://terminology.hl7.org/CodeSystem/measure-population",
              "code": "denominator-exclusion",
              "display": "Denominator Exclusion"
            } ]
          },
          "count": 1
        }, {
          "id": "Numerator_1",
          "code": {
            "coding": [ {
              "system": "http://terminology.hl7.org/CodeSystem/measure-population",
              "code": "numerator",
              "display": "Numerator"
            } ]
          },
          "count": 0
        } ],
        "measureScore": {
          "value": 0.0
        }
      } ],
      "evaluatedResource": [ {
        "reference": "Patient/76f42831-b31b-48f0-9053-60754a77451c"
      }, {
        "reference": "Encounter/9672204d-509b-44b0-8944-1be4888910a2"
      }, {
        "reference": "Claim/5ca62962b8484628b8de1ec5"
      }, {
        "reference": "Coverage/629f2d7d-8dde-42cc-ba4c-c3d5cdcc3485"
      }, {
        "reference": "Procedure/6d3f5a8d-49c2-4701-b75b-80f1f7c7562c"
      }, {
        "reference": "Organization/1eb491d0-2dc4-4da4-b580-017a5289412a"
      }, {
        "reference": "Practitioner/a627f3e6-159c-44cf-b598-18959bc98f3a"
      } ]
    },
    "request": {
      "method": "PUT",
      "url": "MeasureReport/b3e23934-3197-4a72-a3fa-35bc7f254afb"
    }
  } ]
}