{
  "resourceType": "Bundle",
  "id": "612e6b5602c62a011f2ed5d3",
  "type": "transaction",
  "entry": [ {
    "fullUrl": "https://madie.cms.gov/Patient/23f1ece5-35ea-4446-8305-f6f023dfb1a3",
    "resource": {
      "resourceType": "Patient",
      "id": "23f1ece5-35ea-4446-8305-f6f023dfb1a3",
      "meta": {
        "profile": [ "http://hl7.org/fhir/us/qicore/StructureDefinition/qicore-patient" ]
      },
      "text": {
        "status": "generated",
        "div": "<div xmlns=\"http://www.w3.org/1999/xhtml\"><div class=\"hapiHeaderText\">MA_OralXa_apixabanWVTEdiagnosisAFProc <b>NUMERFAIL </b></div><table class=\"hapiPropertyTable\"><tbody><tr><td>Identifier</td><td>6c48d9c79b22e4d3ea2146a4520f69cf</td></tr><tr><td>Date of birth</td><td><span>01 December 1966</span></td></tr></tbody></table></div>"
      },
      "extension": [ {
        "url": "http://hl7.org/fhir/us/core/StructureDefinition/us-core-race",
        "extension": [ {
          "url": "ombCategory",
          "valueCoding": {
            "system": "urn:oid:2.16.840.1.113883.6.238",
            "code": "1002-5",
            "display": "American Indian or Alaska Native",
            "userSelected": true
          }
        }, {
          "url": "text",
          "valueString": "American Indian or Alaska Native"
        } ]
      }, {
        "url": "http://hl7.org/fhir/us/core/StructureDefinition/us-core-ethnicity",
        "extension": [ {
          "url": "ombCategory",
          "valueCoding": {
            "system": "urn:oid:2.16.840.1.113883.6.238",
            "code": "2135-2",
            "display": "Hispanic or Latino",
            "userSelected": true
          }
        }, {
          "url": "text",
          "valueString": "Hispanic or Latino"
        } ]
      } ],
      "identifier": [ {
        "type": {
          "coding": [ {
            "system": "http://terminology.hl7.org/CodeSystem/v2-0203",
            "code": "MR"
          } ]
        },
        "system": "https://bonnie-fhir.healthit.gov/",
        "value": "612e6b5602c62a011f2ed5d3"
      } ],
      "active": true,
      "name": [ {
        "use": "usual",
        "family": "NUMERFail",
        "given": [ "MAOralXaapixabanWVTEdiagnosisAFProc" ]
      } ],
      "gender": "male",
      "birthDate": "1967-12-01"
    },
    "request": {
      "method": "PUT",
      "url": "Patient/23f1ece5-35ea-4446-8305-f6f023dfb1a3"
    }
  }, {
    "fullUrl": "https://madie.cms.gov/Encounter/daa71c31-bbae-496a-8709-147db2cb9d8c",
    "resource": {
      "resourceType": "Encounter",
      "id": "daa71c31-bbae-496a-8709-147db2cb9d8c",
      "meta": {
        "profile": [ "http://hl7.org/fhir/us/qicore/StructureDefinition/qicore-encounter" ]
      },
      "status": "finished",
      "class": {
        "system": "http://terminology.hl7.org/CodeSystem/v3-ActCode",
        "code": "IMP",
        "display": "inpatient encounter"
      },
      "type": [ {
        "coding": [ {
          "system": "http://snomed.info/sct",
          "code": "8715000"
        } ]
      } ],
      "subject": {
        "reference": "Patient/23f1ece5-35ea-4446-8305-f6f023dfb1a3"
      },
      "period": {
        "start": "2026-11-01T08:00:00.000+00:00",
        "end": "2026-11-26T08:15:00.000+00:00"
      },
      "length": {
        "value": 25,
        "unit": "days"
      }
    },
    "request": {
      "method": "PUT",
      "url": "Encounter/daa71c31-bbae-496a-8709-147db2cb9d8c"
    }
  }, {
    "fullUrl": "https://madie.cms.gov/Coverage/648b96dd-4b70-408c-9d41-3a2e7f6ca54e",
    "resource": {
      "resourceType": "Coverage",
      "id": "648b96dd-4b70-408c-9d41-3a2e7f6ca54e",
      "status": "active",
      "beneficiary": {
        "reference": "Patient/23f1ece5-35ea-4446-8305-f6f023dfb1a3"
      },
      "period": {
        "start": "1967-12-01T01:00:00.000+00:00"
      },
      "payor": [ {
        "reference": "Organization/a77c4c2a-de20-4b52-964b-ea85527aa4b6"
      } ]
    },
    "request": {
      "method": "PUT",
      "url": "Coverage/648b96dd-4b70-408c-9d41-3a2e7f6ca54e"
    }
  }, {
    "fullUrl": "https://madie.cms.gov/Condition/56dc89e7-7c75-4434-9861-fa4a515f3872",
    "resource": {
      "resourceType": "Condition",
      "id": "56dc89e7-7c75-4434-9861-fa4a515f3872",
      "meta": {
        "profile": [ "http://hl7.org/fhir/us/qicore/StructureDefinition/qicore-condition" ]
      },
      "category": [ {
        "coding": [ {
          "system": "http://terminology.hl7.org/CodeSystem/condition-category",
          "code": "problem-list-item",
          "display": "Problem List Item"
        } ]
      } ],
      "code": {
        "coding": [ {
          "system": "http://snomed.info/sct",
          "code": "1001000119102"
        } ]
      },
      "subject": {
        "reference": "Patient/23f1ece5-35ea-4446-8305-f6f023dfb1a3"
      },
      "onsetPeriod": {
        "start": "2026-11-02T08:00:00.000+00:00",
        "end": "2026-11-02T08:15:00.000+00:00"
      }
    },
    "request": {
      "method": "PUT",
      "url": "Condition/56dc89e7-7c75-4434-9861-fa4a515f3872"
    }
  }, {
    "fullUrl": "https://madie.cms.gov/MedicationAdministration/821fef74-4283-4e69-878e-db212dab7fb2",
    "resource": {
      "resourceType": "MedicationAdministration",
      "id": "821fef74-4283-4e69-878e-db212dab7fb2",
      "meta": {
        "profile": [ "http://hl7.org/fhir/us/qicore/StructureDefinition/qicore-medicationadministration" ]
      },
      "status": "completed",
      "medicationCodeableConcept": {
        "coding": [ {
          "system": "http://www.nlm.nih.gov/research/umls/rxnorm",
          "code": "1364435"
        } ]
      },
      "subject": {
        "reference": "Patient/23f1ece5-35ea-4446-8305-f6f023dfb1a3"
      },
      "effectivePeriod": {
        "start": "2026-11-01T11:00:00.000+00:00"
      }
    },
    "request": {
      "method": "PUT",
      "url": "MedicationAdministration/821fef74-4283-4e69-878e-db212dab7fb2"
    }
  }, {
    "fullUrl": "https://madie.cms.gov/Procedure/40e79b7f-da91-4f32-bec0-cfd7744087c1",
    "resource": {
      "resourceType": "Procedure",
      "id": "40e79b7f-da91-4f32-bec0-cfd7744087c1",
      "meta": {
        "profile": [ "http://hl7.org/fhir/us/qicore/StructureDefinition/qicore-procedure" ]
      },
      "extension": [ {
        "url": "http://hl7.org/fhir/us/qicore/StructureDefinition/qicore-recorded",
        "valueDateTime": "2013-12-04T13:35:00.000+00:00"
      } ],
      "status": "completed",
      "code": {
        "coding": [ {
          "system": "http://www.icd10data.com/icd10pcs",
          "code": "3E030FZ"
        }, {
          "system": "http://snomed.info/sct",
          "code": "18946005"
        } ]
      },
      "subject": {
        "reference": "Patient/23f1ece5-35ea-4446-8305-f6f023dfb1a3"
      },
      "performedPeriod": {
        "start": "2026-11-01T09:00:00.000+00:00",
        "end": "2026-11-01T09:15:00.000+00:00"
      }
    },
    "request": {
      "method": "PUT",
      "url": "Procedure/40e79b7f-da91-4f32-bec0-cfd7744087c1"
    }
  }, {
    "fullUrl": "https://madie.cms.gov/Organization/a77c4c2a-de20-4b52-964b-ea85527aa4b6",
    "resource": {
      "resourceType": "Organization",
      "id": "a77c4c2a-de20-4b52-964b-ea85527aa4b6",
      "meta": {
        "profile": [ "http://hl7.org/fhir/us/qicore/StructureDefinition/qicore-organization" ]
      },
      "identifier": [ {
        "use": "temp",
        "system": "urn:oid:2.16.840.1.113883.4.4",
        "value": "21-3259825"
      } ],
      "active": true,
      "type": [ {
        "coding": [ {
          "system": "http://terminology.hl7.org/CodeSystem/organization-type",
          "code": "pay",
          "display": "Payer"
        } ]
      } ],
      "name": "Blue Cross Blue Shield of Texas",
      "telecom": [ {
        "system": "phone",
        "value": "(+1) 972-766-6900"
      } ],
      "address": [ {
        "use": "billing",
        "type": "postal",
        "line": [ "P.O. Box 660044" ],
        "city": "Dallas",
        "state": "TX",
        "postalCode": "75266-0044",
        "country": "USA"
      } ]
    },
    "request": {
      "method": "PUT",
      "url": "Organization/a77c4c2a-de20-4b52-964b-ea85527aa4b6"
    }
  }, {
    "fullUrl": "https://madie.cms.gov/Practitioner/eb8d5ad3-9aa2-449b-9fd2-c1bf2ab37c69",
    "resource": {
      "resourceType": "Practitioner",
      "id": "eb8d5ad3-9aa2-449b-9fd2-c1bf2ab37c69",
      "identifier": [ {
        "system": "http://hl7.org/fhir/sid/us-npi",
        "value": "123456"
      } ],
      "name": [ {
        "family": "Evil",
        "prefix": [ "Dr" ]
      } ]
    },
    "request": {
      "method": "PUT",
      "url": "Practitioner/eb8d5ad3-9aa2-449b-9fd2-c1bf2ab37c69"
    }
  }, {
    "fullUrl": "https://madie.cms.gov/MeasureReport/a0dd1f3c-b8be-4c2d-b2f7-03adfccf7255",
    "resource": {
      "resourceType": "MeasureReport",
      "id": "a0dd1f3c-b8be-4c2d-b2f7-03adfccf7255",
      "meta": {
        "profile": [ "http://hl7.org/fhir/us/cqfmeasures/StructureDefinition/test-case-cqfm" ]
      },
      "contained": [ {
        "resourceType": "Parameters",
        "id": "f0716171-7575-4569-a9d3-a41b026292dd-parameters",
        "parameter": [ {
          "name": "subject",
          "valueString": "23f1ece5-35ea-4446-8305-f6f023dfb1a3"
        } ]
      } ],
      "extension": [ {
        "url": "http://hl7.org/fhir/StructureDefinition/cqf-inputParameters",
        "valueReference": {
          "reference": "#f0716171-7575-4569-a9d3-a41b026292dd-parameters"
        }
      }, {
        "url": "http://hl7.org/fhir/us/cqfmeasures/StructureDefinition/cqfm-testCaseDescription",
        "valueMarkdown": ">18, LOS<120 day. Medication, Administered: Oral Factor Xa Inhibitor for VTE Prophylaxis with diagnosis of active VTE starts after end of surgery\n"
      } ],
      "modifierExtension": [ {
        "url": "http://hl7.org/fhir/us/cqfmeasures/StructureDefinition/cqfm-isTestCase",
        "valueBoolean": true
      } ],
      "status": "complete",
      "type": "individual",
      "measure": "https://madie.cms.gov/Measure/CMS108FHIRVTEProphylaxis",
      "period": {
        "start": "2026-01-01",
        "end": "2026-12-31"
      },
      "group": [ {
        "id": "Group_1",
        "population": [ {
          "id": "InitialPopulation_1",
          "code": {
            "coding": [ {
              "system": "http://terminology.hl7.org/CodeSystem/measure-population",
              "code": "initial-population",
              "display": "Initial Population"
            } ]
          },
          "count": 1
        }, {
          "id": "Denominator_1",
          "code": {
            "coding": [ {
              "system": "http://terminology.hl7.org/CodeSystem/measure-population",
              "code": "denominator",
              "display": "Denominator"
            } ]
          },
          "count": 1
        }, {
          "id": "DenominatorExclusion_1",
          "code": {
            "coding": [ {
              "system": "http://terminology.hl7.org/CodeSystem/measure-population",
              "code": "denominator-exclusion",
              "display": "Denominator Exclusion"
            } ]
          },
          "count": 0
        }, {
          "id": "Numerator_1",
          "code": {
            "coding": [ {
              "system": "http://terminology.hl7.org/CodeSystem/measure-population",
              "code": "numerator",
              "display": "Numerator"
            } ]
          },
          "count": 0
        } ],
        "measureScore": {
          "value": 0.0
        }
      } ],
      "evaluatedResource": [ {
        "reference": "Patient/23f1ece5-35ea-4446-8305-f6f023dfb1a3"
      }, {
        "reference": "Encounter/daa71c31-bbae-496a-8709-147db2cb9d8c"
      }, {
        "reference": "Coverage/648b96dd-4b70-408c-9d41-3a2e7f6ca54e"
      }, {
        "reference": "Condition/56dc89e7-7c75-4434-9861-fa4a515f3872"
      }, {
        "reference": "MedicationAdministration/821fef74-4283-4e69-878e-db212dab7fb2"
      }, {
        "reference": "Procedure/40e79b7f-da91-4f32-bec0-cfd7744087c1"
      }, {
        "reference": "Organization/a77c4c2a-de20-4b52-964b-ea85527aa4b6"
      }, {
        "reference": "Practitioner/eb8d5ad3-9aa2-449b-9fd2-c1bf2ab37c69"
      } ]
    },
    "request": {
      "method": "PUT",
      "url": "MeasureReport/a0dd1f3c-b8be-4c2d-b2f7-03adfccf7255"
    }
  } ]
}