{
  "resourceType": "Bundle",
  "id": "6419dca79c0269a68225bb41",
  "type": "transaction",
  "entry": [ {
    "fullUrl": "https://madie.cms.gov/Patient/fad30843-c5e2-454d-a441-4f93e6595795",
    "resource": {
      "resourceType": "Patient",
      "id": "fad30843-c5e2-454d-a441-4f93e6595795",
      "meta": {
        "profile": [ "http://hl7.org/fhir/us/qicore/StructureDefinition/qicore-patient" ]
      },
      "extension": [ {
        "url": "http://hl7.org/fhir/us/core/StructureDefinition/us-core-race",
        "extension": [ {
          "url": "ombCategory",
          "valueCoding": {
            "system": "urn:oid:2.16.840.1.113883.6.238",
            "code": "2106-3",
            "display": "White",
            "userSelected": true
          }
        }, {
          "url": "text",
          "valueString": "White"
        } ]
      }, {
        "url": "http://hl7.org/fhir/us/core/StructureDefinition/us-core-ethnicity",
        "extension": [ {
          "url": "ombCategory",
          "valueCoding": {
            "system": "urn:oid:2.16.840.1.113883.6.238",
            "code": "2186-5",
            "display": "Not Hispanic or Latino",
            "userSelected": true
          }
        }, {
          "url": "text",
          "valueString": "Not Hispanic or Latino"
        } ]
      }, {
        "url": "http://hl7.org/fhir/us/core/StructureDefinition/us-core-sex",
        "valueCode": "248152002"
      } ],
      "identifier": [ {
        "type": {
          "coding": [ {
            "system": "http://terminology.hl7.org/CodeSystem/v2-0203",
            "code": "MR"
          } ]
        },
        "system": "https://bonnie-fhir.healthit.gov/",
        "value": "6419dca79c0269a68225bb41"
      } ],
      "name": [ {
        "family": "1IPPass",
        "given": [ "STEMIstartsduringendsduringEnc" ]
      } ],
      "gender": "female",
      "birthDate": "1985-12-02"
    },
    "request": {
      "method": "PUT",
      "url": "Patient/fad30843-c5e2-454d-a441-4f93e6595795"
    }
  }, {
    "fullUrl": "https://madie.cms.gov/Encounter/eef67d45-6344-44cf-ac7b-8a2dcdeeaa96",
    "resource": {
      "resourceType": "Encounter",
      "id": "eef67d45-6344-44cf-ac7b-8a2dcdeeaa96",
      "meta": {
        "profile": [ "http://hl7.org/fhir/us/qicore/StructureDefinition/qicore-encounter" ]
      },
      "status": "finished",
      "class": {
        "system": "http://terminology.hl7.org/CodeSystem/v3-ActCode",
        "code": "EMER",
        "display": "emergency",
        "userSelected": true
      },
      "type": [ {
        "coding": [ {
          "system": "http://snomed.info/sct",
          "version": "2020-09",
          "code": "4525004",
          "display": "Emergency department patient visit (procedure)",
          "userSelected": true
        } ]
      } ],
      "subject": {
        "reference": "Patient/fad30843-c5e2-454d-a441-4f93e6595795"
      },
      "period": {
        "start": "2026-10-09T08:05:00.000+00:00",
        "end": "2026-10-10T07:15:00.000+00:00"
      },
      "reasonReference": [ {
        "reference": "Condition/8052e0da-9dd9-4b4a-983b-4c3f569bbf69"
      } ]
    },
    "request": {
      "method": "PUT",
      "url": "Encounter/eef67d45-6344-44cf-ac7b-8a2dcdeeaa96"
    }
  }, {
    "fullUrl": "https://madie.cms.gov/Condition/8052e0da-9dd9-4b4a-983b-4c3f569bbf69",
    "resource": {
      "resourceType": "Condition",
      "id": "8052e0da-9dd9-4b4a-983b-4c3f569bbf69",
      "meta": {
        "profile": [ "http://hl7.org/fhir/us/qicore/StructureDefinition/qicore-condition-encounter-diagnosis" ]
      },
      "clinicalStatus": {
        "coding": [ {
          "system": "http://terminology.hl7.org/CodeSystem/condition-clinical",
          "code": "active",
          "display": "active",
          "userSelected": true
        } ]
      },
      "verificationStatus": {
        "coding": [ {
          "system": "http://terminology.hl7.org/CodeSystem/condition-ver-status",
          "code": "confirmed",
          "display": "confirmed",
          "userSelected": true
        } ]
      },
      "category": [ {
        "coding": [ {
          "system": "http://terminology.hl7.org/CodeSystem/condition-category",
          "code": "encounter-diagnosis",
          "display": "Encounter Diagnosis",
          "userSelected": true
        } ]
      } ],
      "code": {
        "coding": [ {
          "system": "http://hl7.org/fhir/sid/icd-10-cm",
          "code": "I21.19",
          "userSelected": true
        } ]
      },
      "subject": {
        "reference": "Patient/fad30843-c5e2-454d-a441-4f93e6595795"
      },
      "encounter": {
        "reference": "Encounter/eef67d45-6344-44cf-ac7b-8a2dcdeeaa96"
      },
      "onsetDateTime": "2026-10-09T08:07:00.000+00:00"
    },
    "request": {
      "method": "PUT",
      "url": "Condition/8052e0da-9dd9-4b4a-983b-4c3f569bbf69"
    }
  }, {
    "fullUrl": "https://madie.cms.gov/Observation/7d1a32d4-efc7-4ec5-be4d-e140e8c5209e",
    "resource": {
      "resourceType": "Observation",
      "id": "7d1a32d4-efc7-4ec5-be4d-e140e8c5209e",
      "meta": {
        "profile": [ "http://hl7.org/fhir/us/core/StructureDefinition/us-core-observation-pregnancystatus" ]
      },
      "status": "final",
      "code": {
        "coding": [ {
          "system": "http://hl7.org/fhir/sid/icd-10-cm",
          "code": "Z33.3",
          "display": "Pregnant state, gestational carrier",
          "userSelected": true
        } ]
      },
      "subject": {
        "reference": "Patient/fad30843-c5e2-454d-a441-4f93e6595795"
      },
      "effectiveDateTime": "2026-10-10T07:15:00.000+00:00",
      "valueCodeableConcept": {
        "coding": [ {
          "system": "http://hl7.org/fhir/sid/icd-10-cm",
          "code": "Z33.3",
          "display": "Pregnant state, gestational carrier",
          "userSelected": true
        } ]
      }
    },
    "request": {
      "method": "PUT",
      "url": "Observation/7d1a32d4-efc7-4ec5-be4d-e140e8c5209e"
    }
  }, {
    "fullUrl": "https://madie.cms.gov/Coverage/820f1130-5613-4662-a8b0-d021f8943db4",
    "resource": {
      "resourceType": "Coverage",
      "id": "820f1130-5613-4662-a8b0-d021f8943db4",
      "meta": {
        "profile": [ "http://hl7.org/fhir/us/qicore/StructureDefinition/qicore-coverage" ]
      },
      "identifier": [ {
        "type": {
          "coding": [ {
            "system": "http://terminology.hl7.org/CodeSystem/v2-0203",
            "code": "MB"
          } ]
        }
      } ],
      "status": "active",
      "beneficiary": {
        "reference": "Patient/fad30843-c5e2-454d-a441-4f93e6595795"
      },
      "relationship": {
        "coding": [ {
          "system": "http://terminology.hl7.org/CodeSystem/subscriber-relationship",
          "code": "self"
        } ]
      },
      "payor": [ {
        "reference": "Organization/2f9667bb-1bf3-45d8-97a6-43ab597973c1"
      } ]
    },
    "request": {
      "method": "PUT",
      "url": "Coverage/820f1130-5613-4662-a8b0-d021f8943db4"
    }
  }, {
    "fullUrl": "https://madie.cms.gov/Organization/2f9667bb-1bf3-45d8-97a6-43ab597973c1",
    "resource": {
      "resourceType": "Organization",
      "id": "2f9667bb-1bf3-45d8-97a6-43ab597973c1",
      "meta": {
        "profile": [ "http://hl7.org/fhir/us/qicore/StructureDefinition/qicore-organization" ]
      },
      "identifier": [ {
        "use": "temp",
        "system": "urn:oid:2.16.840.1.113883.4.4",
        "value": "21-3259825"
      } ],
      "active": true,
      "type": [ {
        "coding": [ {
          "system": "http://terminology.hl7.org/CodeSystem/organization-type",
          "code": "pay",
          "display": "Payer"
        } ]
      } ],
      "name": "Blue Cross Blue Shield of Texas",
      "telecom": [ {
        "system": "phone",
        "value": "(+1) 972-766-6900"
      } ],
      "address": [ {
        "use": "billing",
        "type": "postal",
        "line": [ "P.O. Box 660044" ],
        "city": "Dallas",
        "state": "TX",
        "postalCode": "75266-0044",
        "country": "USA"
      } ]
    },
    "request": {
      "method": "PUT",
      "url": "Organization/2f9667bb-1bf3-45d8-97a6-43ab597973c1"
    }
  }, {
    "fullUrl": "https://madie.cms.gov/Practitioner/7bffad79-1f04-4c35-9bba-4d421565360b",
    "resource": {
      "resourceType": "Practitioner",
      "id": "7bffad79-1f04-4c35-9bba-4d421565360b",
      "meta": {
        "profile": [ "http://hl7.org/fhir/us/qicore/StructureDefinition/qicore-practitioner" ]
      },
      "identifier": [ {
        "system": "http://hl7.org/fhir/sid/us-npi",
        "value": "9999999896"
      } ],
      "name": [ {
        "family": "Evil",
        "prefix": [ "Dr" ]
      } ]
    },
    "request": {
      "method": "PUT",
      "url": "Practitioner/7bffad79-1f04-4c35-9bba-4d421565360b"
    }
  }, {
    "fullUrl": "https://madie.cms.gov/MeasureReport/76b75141-5ae5-41c6-a4c1-034d50ed1d7a",
    "resource": {
      "resourceType": "MeasureReport",
      "id": "76b75141-5ae5-41c6-a4c1-034d50ed1d7a",
      "meta": {
        "profile": [ "http://hl7.org/fhir/us/cqfmeasures/StructureDefinition/test-case-cqfm" ]
      },
      "contained": [ {
        "resourceType": "Parameters",
        "id": "fd7177e0-699d-4f9f-b815-a92a4eed8d3e-parameters",
        "parameter": [ {
          "name": "subject",
          "valueString": "fad30843-c5e2-454d-a441-4f93e6595795"
        } ]
      } ],
      "extension": [ {
        "url": "http://hl7.org/fhir/StructureDefinition/cqf-inputParameters",
        "valueReference": {
          "reference": "#fd7177e0-699d-4f9f-b815-a92a4eed8d3e-parameters"
        }
      }, {
        "url": "http://hl7.org/fhir/us/cqfmeasures/StructureDefinition/cqfm-testCaseDescription",
        "valueMarkdown": "Patient is over 18 years old and has an encounter during the MP and STEMI starts during and ends during Encounter. Patient has an observation for pregnancy during Encounter period"
      } ],
      "modifierExtension": [ {
        "url": "http://hl7.org/fhir/us/cqfmeasures/StructureDefinition/cqfm-isTestCase",
        "valueBoolean": true
      } ],
      "status": "complete",
      "type": "individual",
      "measure": "https://madie.cms.gov/Measure/CMS996FHIRAptTxforSTEMI",
      "period": {
        "start": "2026-01-01",
        "end": "2026-12-31"
      },
      "group": [ {
        "id": "Group_1",
        "population": [ {
          "id": "InitialPopulation_1",
          "code": {
            "coding": [ {
              "system": "http://terminology.hl7.org/CodeSystem/measure-population",
              "code": "initial-population",
              "display": "Initial Population"
            } ]
          },
          "count": 1
        }, {
          "id": "Denominator_1",
          "code": {
            "coding": [ {
              "system": "http://terminology.hl7.org/CodeSystem/measure-population",
              "code": "denominator",
              "display": "Denominator"
            } ]
          },
          "count": 1
        }, {
          "id": "DenominatorExclusion_1",
          "code": {
            "coding": [ {
              "system": "http://terminology.hl7.org/CodeSystem/measure-population",
              "code": "denominator-exclusion",
              "display": "Denominator Exclusion"
            } ]
          },
          "count": 1
        }, {
          "id": "Numerator_1",
          "code": {
            "coding": [ {
              "system": "http://terminology.hl7.org/CodeSystem/measure-population",
              "code": "numerator",
              "display": "Numerator"
            } ]
          },
          "count": 0
        }, {
          "id": "DenominatorException_1",
          "code": {
            "coding": [ {
              "system": "http://terminology.hl7.org/CodeSystem/measure-population",
              "code": "denominator-exception",
              "display": "Denominator Exception"
            } ]
          },
          "count": 0
        } ],
        "measureScore": {
          "value": 0.0
        }
      } ],
      "evaluatedResource": [ {
        "reference": "Patient/fad30843-c5e2-454d-a441-4f93e6595795"
      }, {
        "reference": "Encounter/eef67d45-6344-44cf-ac7b-8a2dcdeeaa96"
      }, {
        "reference": "Condition/8052e0da-9dd9-4b4a-983b-4c3f569bbf69"
      }, {
        "reference": "Observation/7d1a32d4-efc7-4ec5-be4d-e140e8c5209e"
      }, {
        "reference": "Coverage/820f1130-5613-4662-a8b0-d021f8943db4"
      }, {
        "reference": "Organization/2f9667bb-1bf3-45d8-97a6-43ab597973c1"
      }, {
        "reference": "Practitioner/7bffad79-1f04-4c35-9bba-4d421565360b"
      } ]
    },
    "request": {
      "method": "PUT",
      "url": "MeasureReport/76b75141-5ae5-41c6-a4c1-034d50ed1d7a"
    }
  } ]
}