{
  "resourceType": "Bundle",
  "id": "633b3f9f0968f80122503cdb",
  "type": "transaction",
  "entry": [ {
    "fullUrl": "https://madie.cms.gov/Patient/d96cb018-5b4a-46d7-808f-a4ff0e3ecca6",
    "resource": {
      "resourceType": "Patient",
      "id": "d96cb018-5b4a-46d7-808f-a4ff0e3ecca6",
      "meta": {
        "profile": [ "http://hl7.org/fhir/us/qicore/StructureDefinition/qicore-patient" ]
      },
      "text": {
        "status": "generated",
        "div": "<div xmlns=\"http://www.w3.org/1999/xhtml\"><div class=\"hapiHeaderText\">SMMProcedureDayOfEDVist6HRB4Enc<b>NUMERFail </b></div><table class=\"hapiPropertyTable\"><tbody><tr><td>Date of birth</td><td><span>01 February 2004</span></td></tr></tbody></table></div>"
      },
      "extension": [ {
        "url": "http://hl7.org/fhir/us/core/StructureDefinition/us-core-race",
        "extension": [ {
          "url": "ombCategory",
          "valueCoding": {
            "system": "urn:oid:2.16.840.1.113883.6.238",
            "code": "1002-5",
            "display": "American Indian or Alaska Native",
            "userSelected": true
          }
        }, {
          "url": "text",
          "valueString": "American Indian or Alaska Native"
        } ]
      }, {
        "url": "http://hl7.org/fhir/us/core/StructureDefinition/us-core-ethnicity",
        "extension": [ {
          "url": "ombCategory",
          "valueCoding": {
            "system": "urn:oid:2.16.840.1.113883.6.238",
            "code": "2135-2",
            "display": "Hispanic or Latino",
            "userSelected": true
          }
        }, {
          "url": "text",
          "valueString": "Hispanic or Latino"
        } ]
      } ],
      "identifier": [ {
        "type": {
          "coding": [ {
            "system": "http://terminology.hl7.org/CodeSystem/v2-0203",
            "code": "MR"
          } ]
        },
        "system": "https://bonnie-fhir.healthit.gov/",
        "value": "633b3f9f0968f80122503cdb"
      } ],
      "active": true,
      "name": [ {
        "use": "usual",
        "family": "NUMERFailFail",
        "given": [ "SMMProcedureDayOfEDVist6HRB4Enc" ]
      } ],
      "gender": "female",
      "birthDate": "2005-02-01"
    },
    "request": {
      "method": "PUT",
      "url": "Patient/d96cb018-5b4a-46d7-808f-a4ff0e3ecca6"
    }
  }, {
    "fullUrl": "https://madie.cms.gov/Observation/15d9fa54-1723-43bb-ad2a-ca962088a9ca",
    "resource": {
      "resourceType": "Observation",
      "id": "15d9fa54-1723-43bb-ad2a-ca962088a9ca",
      "meta": {
        "profile": [ "http://hl7.org/fhir/us/qicore/StructureDefinition/qicore-simple-observation" ]
      },
      "status": "final",
      "category": [ {
        "coding": [ {
          "system": "http://terminology.hl7.org/CodeSystem/observation-category",
          "code": "exam",
          "display": "exam",
          "userSelected": true
        } ]
      } ],
      "code": {
        "coding": [ {
          "system": "http://loinc.org",
          "code": "93857-1"
        } ]
      },
      "subject": {
        "reference": "Patient/d96cb018-5b4a-46d7-808f-a4ff0e3ecca6"
      },
      "effectiveDateTime": "2026-02-01T08:00:00.000+00:00",
      "performer": [ {
        "reference": "Organization/example1",
        "display": "Hendricks Country Hospital"
      } ],
      "valueDateTime": "2026-02-01T08:00:00.000+00:00"
    },
    "request": {
      "method": "PUT",
      "url": "Observation/15d9fa54-1723-43bb-ad2a-ca962088a9ca"
    }
  }, {
    "fullUrl": "https://madie.cms.gov/Observation/023b1af0-03cf-457b-b2e7-1f15590aee80",
    "resource": {
      "resourceType": "Observation",
      "id": "023b1af0-03cf-457b-b2e7-1f15590aee80",
      "meta": {
        "profile": [ "http://hl7.org/fhir/us/qicore/StructureDefinition/qicore-simple-observation" ]
      },
      "status": "final",
      "category": [ {
        "coding": [ {
          "system": "http://terminology.hl7.org/CodeSystem/observation-category",
          "code": "exam",
          "display": "exam",
          "userSelected": true
        } ]
      } ],
      "code": {
        "coding": [ {
          "system": "http://loinc.org",
          "code": "11884-4"
        } ]
      },
      "subject": {
        "reference": "Patient/d96cb018-5b4a-46d7-808f-a4ff0e3ecca6"
      },
      "effectiveDateTime": "2026-02-01T08:00:00.000+00:00",
      "performer": [ {
        "reference": "Organization/example1",
        "display": "Hendricks Country Hospital"
      } ],
      "valueQuantity": {
        "value": 21,
        "system": "http://unitsofmeasure.org",
        "code": "wk"
      }
    },
    "request": {
      "method": "PUT",
      "url": "Observation/023b1af0-03cf-457b-b2e7-1f15590aee80"
    }
  }, {
    "fullUrl": "https://madie.cms.gov/Encounter/696c79a1-7db2-4ed4-b307-8d91c62c9540",
    "resource": {
      "resourceType": "Encounter",
      "id": "696c79a1-7db2-4ed4-b307-8d91c62c9540",
      "meta": {
        "profile": [ "http://hl7.org/fhir/us/qicore/StructureDefinition/qicore-encounter" ]
      },
      "status": "finished",
      "class": {
        "system": "http://terminology.hl7.org/CodeSystem/v3-ActCode",
        "code": "IMP",
        "display": "inpatient encounter"
      },
      "type": [ {
        "coding": [ {
          "system": "http://snomed.info/sct",
          "code": "183452005"
        } ]
      } ],
      "subject": {
        "reference": "Patient/d96cb018-5b4a-46d7-808f-a4ff0e3ecca6"
      },
      "period": {
        "start": "2026-02-01T08:00:00.000+00:00",
        "end": "2026-02-05T08:15:00.000+00:00"
      }
    },
    "request": {
      "method": "PUT",
      "url": "Encounter/696c79a1-7db2-4ed4-b307-8d91c62c9540"
    }
  }, {
    "fullUrl": "https://madie.cms.gov/Coverage/4f377e53-8305-4d4c-92c9-ad72e0ce7106",
    "resource": {
      "resourceType": "Coverage",
      "id": "4f377e53-8305-4d4c-92c9-ad72e0ce7106",
      "status": "active",
      "subscriberId": "523435",
      "beneficiary": {
        "reference": "Patient/d96cb018-5b4a-46d7-808f-a4ff0e3ecca6"
      },
      "relationship": {
        "coding": [ {
          "system": "http://terminology.hl7.org/CodeSystem/subscriber-relationship",
          "code": "self"
        } ]
      },
      "period": {
        "start": "2005-02-01T08:00:00.000+00:00"
      },
      "payor": [ {
        "reference": "Organization/204e8e73-cd69-4939-ab23-7a631909cfed"
      } ]
    },
    "request": {
      "method": "PUT",
      "url": "Coverage/4f377e53-8305-4d4c-92c9-ad72e0ce7106"
    }
  }, {
    "fullUrl": "https://madie.cms.gov/Procedure/fec1c1f9-8c14-4336-9012-71d108298624",
    "resource": {
      "resourceType": "Procedure",
      "id": "fec1c1f9-8c14-4336-9012-71d108298624",
      "meta": {
        "profile": [ "http://hl7.org/fhir/us/qicore/StructureDefinition/qicore-procedure" ]
      },
      "extension": [ {
        "url": "http://hl7.org/fhir/us/qicore/StructureDefinition/qicore-recorded",
        "valueDateTime": "2014-04-05T13:35:00.000+00:00"
      } ],
      "status": "completed",
      "code": {
        "coding": [ {
          "system": "http://snomed.info/sct",
          "code": "10745001"
        } ]
      },
      "subject": {
        "reference": "Patient/d96cb018-5b4a-46d7-808f-a4ff0e3ecca6"
      },
      "performedPeriod": {
        "start": "2026-02-01T08:00:00.000+00:00",
        "end": "2026-02-01T08:15:00.000+00:00"
      }
    },
    "request": {
      "method": "PUT",
      "url": "Procedure/fec1c1f9-8c14-4336-9012-71d108298624"
    }
  }, {
    "fullUrl": "https://madie.cms.gov/Encounter/4d03779b-75a4-4536-ae82-a346fc6f3e72",
    "resource": {
      "resourceType": "Encounter",
      "id": "4d03779b-75a4-4536-ae82-a346fc6f3e72",
      "meta": {
        "profile": [ "http://hl7.org/fhir/us/qicore/StructureDefinition/qicore-encounter" ]
      },
      "status": "finished",
      "class": {
        "system": "http://terminology.hl7.org/CodeSystem/v3-ActCode",
        "code": "IMP",
        "display": "inpatient encounter"
      },
      "type": [ {
        "coding": [ {
          "system": "http://snomed.info/sct",
          "code": "183452005"
        } ]
      } ],
      "subject": {
        "reference": "Patient/d96cb018-5b4a-46d7-808f-a4ff0e3ecca6"
      },
      "period": {
        "start": "2026-02-01T01:00:00.000+00:00",
        "end": "2026-02-01T03:15:00.000+00:00"
      },
      "diagnosis": [ {
        "extension": [ {
          "url": "http://hl7.org/fhir/us/qicore/StructureDefinition/qicore-encounter-diagnosisPresentOnAdmission",
          "valueCodeableConcept": {
            "coding": [ {
              "system": "https://www.cms.gov/Medicare/Medicare-Fee-for-Service-Payment/HospitalAcqCond/Coding",
              "code": "N"
            } ]
          }
        } ],
        "condition": {
          "reference": "Condition/severe-maternal-morbidity-diagnoses-adc2"
        }
      } ]
    },
    "request": {
      "method": "PUT",
      "url": "Encounter/4d03779b-75a4-4536-ae82-a346fc6f3e72"
    }
  }, {
    "fullUrl": "https://madie.cms.gov/Procedure/e8a8549f-9654-4fac-8998-283b8839a835",
    "resource": {
      "resourceType": "Procedure",
      "id": "e8a8549f-9654-4fac-8998-283b8839a835",
      "meta": {
        "profile": [ "http://hl7.org/fhir/us/qicore/StructureDefinition/qicore-procedure" ]
      },
      "extension": [ {
        "url": "http://hl7.org/fhir/us/qicore/StructureDefinition/qicore-recorded",
        "valueDateTime": "2026-02-06T00:00:00.000+00:00"
      } ],
      "status": "completed",
      "code": {
        "coding": [ {
          "system": "http://www.cms.gov/Medicare/Coding/ICD10",
          "code": "0B110F4",
          "display": "Bypass Trachea to Cutaneous with Tracheostomy Device, Open Approach"
        } ]
      },
      "subject": {
        "reference": "Patient/d96cb018-5b4a-46d7-808f-a4ff0e3ecca6"
      },
      "performedPeriod": {
        "start": "2026-02-01T02:00:00.000+00:00",
        "end": "2026-02-01T02:30:00.000+00:00"
      }
    },
    "request": {
      "method": "PUT",
      "url": "Procedure/e8a8549f-9654-4fac-8998-283b8839a835"
    }
  }, {
    "fullUrl": "https://madie.cms.gov/Organization/204e8e73-cd69-4939-ab23-7a631909cfed",
    "resource": {
      "resourceType": "Organization",
      "id": "204e8e73-cd69-4939-ab23-7a631909cfed",
      "meta": {
        "profile": [ "http://hl7.org/fhir/us/qicore/StructureDefinition/qicore-organization" ]
      },
      "identifier": [ {
        "use": "temp",
        "system": "urn:oid:2.16.840.1.113883.4.4",
        "value": "21-3259825"
      } ],
      "active": true,
      "type": [ {
        "coding": [ {
          "system": "http://terminology.hl7.org/CodeSystem/organization-type",
          "code": "pay",
          "display": "Payer"
        } ]
      } ],
      "name": "Blue Cross Blue Shield of Texas",
      "telecom": [ {
        "system": "phone",
        "value": "(+1) 972-766-6900"
      } ],
      "address": [ {
        "use": "billing",
        "type": "postal",
        "line": [ "P.O. Box 660044" ],
        "city": "Dallas",
        "state": "TX",
        "postalCode": "75266-0044",
        "country": "USA"
      } ]
    },
    "request": {
      "method": "PUT",
      "url": "Organization/204e8e73-cd69-4939-ab23-7a631909cfed"
    }
  }, {
    "fullUrl": "https://madie.cms.gov/Practitioner/4ea6037e-ca3f-4a93-a621-aad90e265bae",
    "resource": {
      "resourceType": "Practitioner",
      "id": "4ea6037e-ca3f-4a93-a621-aad90e265bae",
      "meta": {
        "profile": [ "http://hl7.org/fhir/us/qicore/StructureDefinition/qicore-practitioner" ]
      },
      "identifier": [ {
        "system": "http://hl7.org/fhir/sid/us-npi",
        "value": "9999999896"
      } ],
      "name": [ {
        "family": "Evil",
        "prefix": [ "Dr" ]
      } ]
    },
    "request": {
      "method": "PUT",
      "url": "Practitioner/4ea6037e-ca3f-4a93-a621-aad90e265bae"
    }
  }, {
    "fullUrl": "https://madie.cms.gov/MeasureReport/72896034-5e67-4d01-826c-9ed7162e7470",
    "resource": {
      "resourceType": "MeasureReport",
      "id": "72896034-5e67-4d01-826c-9ed7162e7470",
      "meta": {
        "profile": [ "http://hl7.org/fhir/us/cqfmeasures/StructureDefinition/test-case-cqfm" ]
      },
      "contained": [ {
        "resourceType": "Parameters",
        "id": "de06d907-b9fb-42a9-81b4-3314282fead8-parameters",
        "parameter": [ {
          "name": "subject",
          "valueString": "d96cb018-5b4a-46d7-808f-a4ff0e3ecca6"
        } ]
      } ],
      "extension": [ {
        "url": "http://hl7.org/fhir/StructureDefinition/cqf-inputParameters",
        "valueReference": {
          "reference": "#de06d907-b9fb-42a9-81b4-3314282fead8-parameters"
        }
      }, {
        "url": "http://hl7.org/fhir/us/cqfmeasures/StructureDefinition/cqfm-testCaseDescription",
        "valueMarkdown": "SMM Procedure (Temp Trach) on day of ED visit 6 hours before delivery encounter begins"
      } ],
      "modifierExtension": [ {
        "url": "http://hl7.org/fhir/us/cqfmeasures/StructureDefinition/cqfm-isTestCase",
        "valueBoolean": true
      } ],
      "status": "complete",
      "type": "individual",
      "measure": "https://madie.cms.gov/Measure/CMS1028FHIRPCSevereOBComps",
      "period": {
        "start": "2026-01-01",
        "end": "2026-12-31"
      },
      "group": [ {
        "id": "Group_1",
        "population": [ {
          "id": "InitialPopulation_1",
          "code": {
            "coding": [ {
              "system": "http://terminology.hl7.org/CodeSystem/measure-population",
              "code": "initial-population",
              "display": "Initial Population"
            } ]
          },
          "count": 1
        }, {
          "id": "Denominator_1",
          "code": {
            "coding": [ {
              "system": "http://terminology.hl7.org/CodeSystem/measure-population",
              "code": "denominator",
              "display": "Denominator"
            } ]
          },
          "count": 1
        }, {
          "id": "Numerator_1",
          "code": {
            "coding": [ {
              "system": "http://terminology.hl7.org/CodeSystem/measure-population",
              "code": "numerator",
              "display": "Numerator"
            } ]
          },
          "count": 0
        }, {
          "id": "NumeratorExclusion_1",
          "code": {
            "coding": [ {
              "system": "http://terminology.hl7.org/CodeSystem/measure-population",
              "code": "numerator-exclusion",
              "display": "Numerator Exclusion"
            } ]
          },
          "count": 0
        } ],
        "measureScore": {
          "value": 0.0
        }
      }, {
        "id": "Group_2",
        "population": [ {
          "id": "InitialPopulation_2",
          "code": {
            "coding": [ {
              "system": "http://terminology.hl7.org/CodeSystem/measure-population",
              "code": "initial-population",
              "display": "Initial Population"
            } ]
          },
          "count": 1
        }, {
          "id": "Denominator_2",
          "code": {
            "coding": [ {
              "system": "http://terminology.hl7.org/CodeSystem/measure-population",
              "code": "denominator",
              "display": "Denominator"
            } ]
          },
          "count": 1
        }, {
          "id": "Numerator_2",
          "code": {
            "coding": [ {
              "system": "http://terminology.hl7.org/CodeSystem/measure-population",
              "code": "numerator",
              "display": "Numerator"
            } ]
          },
          "count": 0
        }, {
          "id": "NumeratorExclusion_2",
          "code": {
            "coding": [ {
              "system": "http://terminology.hl7.org/CodeSystem/measure-population",
              "code": "numerator-exclusion",
              "display": "Numerator Exclusion"
            } ]
          },
          "count": 0
        } ],
        "measureScore": {
          "value": 0.0
        }
      } ],
      "evaluatedResource": [ {
        "reference": "Patient/d96cb018-5b4a-46d7-808f-a4ff0e3ecca6"
      }, {
        "reference": "Observation/15d9fa54-1723-43bb-ad2a-ca962088a9ca"
      }, {
        "reference": "Observation/023b1af0-03cf-457b-b2e7-1f15590aee80"
      }, {
        "reference": "Encounter/696c79a1-7db2-4ed4-b307-8d91c62c9540"
      }, {
        "reference": "Coverage/4f377e53-8305-4d4c-92c9-ad72e0ce7106"
      }, {
        "reference": "Procedure/fec1c1f9-8c14-4336-9012-71d108298624"
      }, {
        "reference": "Encounter/4d03779b-75a4-4536-ae82-a346fc6f3e72"
      }, {
        "reference": "Procedure/e8a8549f-9654-4fac-8998-283b8839a835"
      }, {
        "reference": "Organization/204e8e73-cd69-4939-ab23-7a631909cfed"
      }, {
        "reference": "Practitioner/4ea6037e-ca3f-4a93-a621-aad90e265bae"
      } ]
    },
    "request": {
      "method": "PUT",
      "url": "MeasureReport/72896034-5e67-4d01-826c-9ed7162e7470"
    }
  } ]
}