{
  "resourceType": "Bundle",
  "id": "633b3fa00968f80122503d21",
  "type": "transaction",
  "entry": [ {
    "fullUrl": "https://madie.cms.gov/Patient/6229b11c-5ac9-42e6-bc11-627b401aef28",
    "resource": {
      "resourceType": "Patient",
      "id": "6229b11c-5ac9-42e6-bc11-627b401aef28",
      "meta": {
        "profile": [ "http://hl7.org/fhir/us/qicore/StructureDefinition/qicore-patient" ]
      },
      "text": {
        "status": "generated",
        "div": "<div xmlns=\"http://www.w3.org/1999/xhtml\"><div class=\"hapiHeaderText\">LastAssPrfEstDELRelvTm2DaysB4DELRsltDtTime<b>DENOMPASS</b></div><table class=\"hapiPropertyTable\"><tbody><tr><td>Date of birth</td><td><span>01 February 1958</span></td></tr></tbody></table></div>"
      },
      "extension": [ {
        "url": "http://hl7.org/fhir/us/core/StructureDefinition/us-core-race",
        "extension": [ {
          "url": "ombCategory",
          "valueCoding": {
            "system": "urn:oid:2.16.840.1.113883.6.238",
            "code": "1002-5",
            "display": "American Indian or Alaska Native",
            "userSelected": true
          }
        }, {
          "url": "text",
          "valueString": "American Indian or Alaska Native"
        } ]
      }, {
        "url": "http://hl7.org/fhir/us/core/StructureDefinition/us-core-ethnicity",
        "extension": [ {
          "url": "ombCategory",
          "valueCoding": {
            "system": "urn:oid:2.16.840.1.113883.6.238",
            "code": "2135-2",
            "display": "Hispanic or Latino",
            "userSelected": true
          }
        }, {
          "url": "text",
          "valueString": "Hispanic or Latino"
        } ]
      } ],
      "identifier": [ {
        "type": {
          "coding": [ {
            "system": "http://terminology.hl7.org/CodeSystem/v2-0203",
            "code": "MR"
          } ]
        },
        "system": "https://bonnie-fhir.healthit.gov/",
        "value": "633b3fa00968f80122503d21"
      } ],
      "active": true,
      "name": [ {
        "use": "usual",
        "family": "DENOMPass",
        "given": [ "LastAssPrfEstDELRelvTm2DaysB4DELRsltDtTime" ]
      } ],
      "gender": "female",
      "birthDate": "1971-02-01"
    },
    "request": {
      "method": "PUT",
      "url": "Patient/6229b11c-5ac9-42e6-bc11-627b401aef28"
    }
  }, {
    "fullUrl": "https://madie.cms.gov/Observation/44b06a00-2279-4210-9fa4-3fa49cf21578",
    "resource": {
      "resourceType": "Observation",
      "id": "44b06a00-2279-4210-9fa4-3fa49cf21578",
      "meta": {
        "profile": [ "http://hl7.org/fhir/us/qicore/StructureDefinition/qicore-simple-observation" ]
      },
      "status": "final",
      "category": [ {
        "coding": [ {
          "system": "http://terminology.hl7.org/CodeSystem/observation-category",
          "code": "exam",
          "display": "exam",
          "userSelected": true
        } ]
      } ],
      "code": {
        "coding": [ {
          "system": "http://loinc.org",
          "code": "93857-1"
        } ]
      },
      "subject": {
        "reference": "Patient/6229b11c-5ac9-42e6-bc11-627b401aef28"
      },
      "effectiveDateTime": "2026-02-01T08:00:00.000+00:00",
      "performer": [ {
        "reference": "Organization/example1",
        "display": "Hendricks Country Hospital"
      } ],
      "valueDateTime": "2026-02-01T08:00:00.000+00:00"
    },
    "request": {
      "method": "PUT",
      "url": "Observation/44b06a00-2279-4210-9fa4-3fa49cf21578"
    }
  }, {
    "fullUrl": "https://madie.cms.gov/Observation/d10a3841-61b2-4a58-8d2f-fcd56312eb95",
    "resource": {
      "resourceType": "Observation",
      "id": "d10a3841-61b2-4a58-8d2f-fcd56312eb95",
      "meta": {
        "profile": [ "http://hl7.org/fhir/us/qicore/StructureDefinition/qicore-simple-observation" ]
      },
      "status": "final",
      "category": [ {
        "coding": [ {
          "system": "http://terminology.hl7.org/CodeSystem/observation-category",
          "code": "exam",
          "display": "exam",
          "userSelected": true
        } ]
      } ],
      "code": {
        "coding": [ {
          "system": "http://loinc.org",
          "code": "11778-8"
        } ]
      },
      "subject": {
        "reference": "Patient/6229b11c-5ac9-42e6-bc11-627b401aef28"
      },
      "effectiveDateTime": "2026-01-30T08:00:00.000+00:00",
      "performer": [ {
        "reference": "Organization/example1",
        "display": "Hendricks Country Hospital"
      } ],
      "valueDateTime": "2026-02-01T08:00:00.000+00:00"
    },
    "request": {
      "method": "PUT",
      "url": "Observation/d10a3841-61b2-4a58-8d2f-fcd56312eb95"
    }
  }, {
    "fullUrl": "https://madie.cms.gov/Encounter/140a70e0-d9cf-40ea-8f3a-c76dcc731d82",
    "resource": {
      "resourceType": "Encounter",
      "id": "140a70e0-d9cf-40ea-8f3a-c76dcc731d82",
      "meta": {
        "profile": [ "http://hl7.org/fhir/us/qicore/StructureDefinition/qicore-encounter" ]
      },
      "status": "finished",
      "class": {
        "system": "http://terminology.hl7.org/CodeSystem/v3-ActCode",
        "code": "IMP",
        "display": "inpatient encounter"
      },
      "type": [ {
        "coding": [ {
          "system": "http://snomed.info/sct",
          "code": "183452005"
        } ]
      } ],
      "subject": {
        "reference": "Patient/6229b11c-5ac9-42e6-bc11-627b401aef28"
      },
      "period": {
        "start": "2026-01-30T08:00:00.000+00:00",
        "end": "2026-02-05T08:15:00.000+00:00"
      }
    },
    "request": {
      "method": "PUT",
      "url": "Encounter/140a70e0-d9cf-40ea-8f3a-c76dcc731d82"
    }
  }, {
    "fullUrl": "https://madie.cms.gov/Procedure/f1f8db2c-5afc-4eff-a430-561111c651fd",
    "resource": {
      "resourceType": "Procedure",
      "id": "f1f8db2c-5afc-4eff-a430-561111c651fd",
      "meta": {
        "profile": [ "http://hl7.org/fhir/us/qicore/StructureDefinition/qicore-procedure" ]
      },
      "extension": [ {
        "url": "http://hl7.org/fhir/us/qicore/StructureDefinition/qicore-recorded",
        "valueDateTime": "2014-04-05T13:35:00.000+00:00"
      } ],
      "status": "completed",
      "code": {
        "coding": [ {
          "system": "http://snomed.info/sct",
          "code": "10745001"
        } ]
      },
      "subject": {
        "reference": "Patient/6229b11c-5ac9-42e6-bc11-627b401aef28"
      },
      "performedPeriod": {
        "start": "2026-02-01T08:00:00.000+00:00",
        "end": "2026-02-05T08:15:00.000+00:00"
      }
    },
    "request": {
      "method": "PUT",
      "url": "Procedure/f1f8db2c-5afc-4eff-a430-561111c651fd"
    }
  }, {
    "fullUrl": "https://madie.cms.gov/Coverage/feb4e5f6-cafa-47bb-aa9e-f1d37fd85293",
    "resource": {
      "resourceType": "Coverage",
      "id": "feb4e5f6-cafa-47bb-aa9e-f1d37fd85293",
      "meta": {
        "profile": [ "http://hl7.org/fhir/us/qicore/StructureDefinition/qicore-coverage" ]
      },
      "status": "active",
      "subscriberId": "523435",
      "beneficiary": {
        "reference": "Patient/6229b11c-5ac9-42e6-bc11-627b401aef28"
      },
      "relationship": {
        "coding": [ {
          "system": "http://terminology.hl7.org/CodeSystem/subscriber-relationship",
          "code": "self"
        } ]
      },
      "payor": [ {
        "reference": "Organization/bd944f03-31d6-4ec9-820e-8cc2eb54f510"
      } ]
    },
    "request": {
      "method": "PUT",
      "url": "Coverage/feb4e5f6-cafa-47bb-aa9e-f1d37fd85293"
    }
  }, {
    "fullUrl": "https://madie.cms.gov/Organization/bd944f03-31d6-4ec9-820e-8cc2eb54f510",
    "resource": {
      "resourceType": "Organization",
      "id": "bd944f03-31d6-4ec9-820e-8cc2eb54f510",
      "meta": {
        "profile": [ "http://hl7.org/fhir/us/qicore/StructureDefinition/qicore-organization" ]
      },
      "identifier": [ {
        "use": "temp",
        "system": "urn:oid:2.16.840.1.113883.4.4",
        "value": "21-3259825"
      } ],
      "active": true,
      "type": [ {
        "coding": [ {
          "system": "http://terminology.hl7.org/CodeSystem/organization-type",
          "code": "pay",
          "display": "Payer"
        } ]
      } ],
      "name": "Blue Cross Blue Shield of Texas",
      "telecom": [ {
        "system": "phone",
        "value": "(+1) 972-766-6900"
      } ],
      "address": [ {
        "use": "billing",
        "type": "postal",
        "line": [ "P.O. Box 660044" ],
        "city": "Dallas",
        "state": "TX",
        "postalCode": "75266-0044",
        "country": "USA"
      } ]
    },
    "request": {
      "method": "PUT",
      "url": "Organization/bd944f03-31d6-4ec9-820e-8cc2eb54f510"
    }
  }, {
    "fullUrl": "https://madie.cms.gov/Practitioner/c5d4f765-5046-497d-88fe-1d8bcce0ab11",
    "resource": {
      "resourceType": "Practitioner",
      "id": "c5d4f765-5046-497d-88fe-1d8bcce0ab11",
      "meta": {
        "profile": [ "http://hl7.org/fhir/us/qicore/StructureDefinition/qicore-practitioner" ]
      },
      "identifier": [ {
        "system": "http://hl7.org/fhir/sid/us-npi",
        "value": "1234567890"
      } ],
      "name": [ {
        "family": "Evil",
        "prefix": [ "Dr" ]
      } ]
    },
    "request": {
      "method": "PUT",
      "url": "Practitioner/c5d4f765-5046-497d-88fe-1d8bcce0ab11"
    }
  }, {
    "fullUrl": "https://madie.cms.gov/MeasureReport/8d1fd02d-d747-4cb6-9cea-9fa407e64cfa",
    "resource": {
      "resourceType": "MeasureReport",
      "id": "8d1fd02d-d747-4cb6-9cea-9fa407e64cfa",
      "meta": {
        "profile": [ "http://hl7.org/fhir/us/cqfmeasures/StructureDefinition/test-case-cqfm" ]
      },
      "contained": [ {
        "resourceType": "Parameters",
        "id": "a76f5ceb-7237-4a62-9ff1-da52229afc0d-parameters",
        "parameter": [ {
          "name": "subject",
          "valueString": "6229b11c-5ac9-42e6-bc11-627b401aef28"
        } ]
      } ],
      "extension": [ {
        "url": "http://hl7.org/fhir/StructureDefinition/cqf-inputParameters",
        "valueReference": {
          "reference": "#a76f5ceb-7237-4a62-9ff1-da52229afc0d-parameters"
        }
      }, {
        "url": "http://hl7.org/fhir/us/cqfmeasures/StructureDefinition/cqfm-testCaseDescription",
        "valueMarkdown": "Last assessment Performed, Estimated Delivery Date, Relevant time, 2 days before Delivery Result Date/Time\n"
      } ],
      "modifierExtension": [ {
        "url": "http://hl7.org/fhir/us/cqfmeasures/StructureDefinition/cqfm-isTestCase",
        "valueBoolean": true
      } ],
      "status": "complete",
      "type": "individual",
      "measure": "https://madie.cms.gov/Measure/CMS1028FHIRPCSevereOBComps",
      "period": {
        "start": "2026-01-01",
        "end": "2026-12-31"
      },
      "group": [ {
        "id": "Group_1",
        "population": [ {
          "id": "InitialPopulation_1",
          "code": {
            "coding": [ {
              "system": "http://terminology.hl7.org/CodeSystem/measure-population",
              "code": "initial-population",
              "display": "Initial Population"
            } ]
          },
          "count": 1
        }, {
          "id": "Denominator_1",
          "code": {
            "coding": [ {
              "system": "http://terminology.hl7.org/CodeSystem/measure-population",
              "code": "denominator",
              "display": "Denominator"
            } ]
          },
          "count": 1
        }, {
          "id": "Numerator_1",
          "code": {
            "coding": [ {
              "system": "http://terminology.hl7.org/CodeSystem/measure-population",
              "code": "numerator",
              "display": "Numerator"
            } ]
          },
          "count": 0
        }, {
          "id": "NumeratorExclusion_1",
          "code": {
            "coding": [ {
              "system": "http://terminology.hl7.org/CodeSystem/measure-population",
              "code": "numerator-exclusion",
              "display": "Numerator Exclusion"
            } ]
          },
          "count": 0
        } ],
        "measureScore": {
          "value": 0.0
        }
      }, {
        "id": "Group_2",
        "population": [ {
          "id": "InitialPopulation_2",
          "code": {
            "coding": [ {
              "system": "http://terminology.hl7.org/CodeSystem/measure-population",
              "code": "initial-population",
              "display": "Initial Population"
            } ]
          },
          "count": 1
        }, {
          "id": "Denominator_2",
          "code": {
            "coding": [ {
              "system": "http://terminology.hl7.org/CodeSystem/measure-population",
              "code": "denominator",
              "display": "Denominator"
            } ]
          },
          "count": 1
        }, {
          "id": "Numerator_2",
          "code": {
            "coding": [ {
              "system": "http://terminology.hl7.org/CodeSystem/measure-population",
              "code": "numerator",
              "display": "Numerator"
            } ]
          },
          "count": 0
        }, {
          "id": "NumeratorExclusion_2",
          "code": {
            "coding": [ {
              "system": "http://terminology.hl7.org/CodeSystem/measure-population",
              "code": "numerator-exclusion",
              "display": "Numerator Exclusion"
            } ]
          },
          "count": 0
        } ],
        "measureScore": {
          "value": 0.0
        }
      } ],
      "evaluatedResource": [ {
        "reference": "Patient/6229b11c-5ac9-42e6-bc11-627b401aef28"
      }, {
        "reference": "Observation/44b06a00-2279-4210-9fa4-3fa49cf21578"
      }, {
        "reference": "Observation/d10a3841-61b2-4a58-8d2f-fcd56312eb95"
      }, {
        "reference": "Encounter/140a70e0-d9cf-40ea-8f3a-c76dcc731d82"
      }, {
        "reference": "Procedure/f1f8db2c-5afc-4eff-a430-561111c651fd"
      }, {
        "reference": "Coverage/feb4e5f6-cafa-47bb-aa9e-f1d37fd85293"
      }, {
        "reference": "Organization/bd944f03-31d6-4ec9-820e-8cc2eb54f510"
      }, {
        "reference": "Practitioner/c5d4f765-5046-497d-88fe-1d8bcce0ab11"
      } ]
    },
    "request": {
      "method": "PUT",
      "url": "MeasureReport/8d1fd02d-d747-4cb6-9cea-9fa407e64cfa"
    }
  } ]
}