{
  "resourceType": "Bundle",
  "id": "tests-NUMEREXC-EncWithDischargeHospiceCare-bundle",
  "type": "transaction",
  "entry": [ {
    "fullUrl": "https://madie.cms.gov/Condition/ef00d616-d4b6-4c8d-9595-9bf116c1421c",
    "resource": {
      "resourceType": "Condition",
      "id": "ef00d616-d4b6-4c8d-9595-9bf116c1421c",
      "meta": {
        "profile": [ "http://hl7.org/fhir/us/qicore/StructureDefinition/qicore-condition-encounter-diagnosis" ]
      },
      "verificationStatus": {
        "coding": [ {
          "system": "http://terminology.hl7.org/CodeSystem/condition-ver-status",
          "code": "confirmed",
          "display": "Confirmed"
        } ]
      },
      "category": [ {
        "coding": [ {
          "system": "http://terminology.hl7.org/CodeSystem/condition-category",
          "code": "encounter-diagnosis",
          "display": "Encounter Diagnosis"
        } ]
      } ],
      "code": {
        "coding": [ {
          "system": "http://hl7.org/fhir/sid/icd-10-cm",
          "code": "E10.21",
          "display": "Type 1 diabetes mellitus with diabetic nephropathy"
        } ]
      },
      "subject": {
        "reference": "Patient/a4b9ab0b-4503-4404-81e3-919f6f383948"
      },
      "onsetDateTime": "2011-01-02"
    },
    "request": {
      "method": "PUT",
      "url": "Condition/ef00d616-d4b6-4c8d-9595-9bf116c1421c"
    }
  }, {
    "fullUrl": "https://madie.cms.gov/Observation/759e80cd-fcd1-4b9f-a30e-e9f6f6ade2fb",
    "resource": {
      "resourceType": "Observation",
      "id": "759e80cd-fcd1-4b9f-a30e-e9f6f6ade2fb",
      "meta": {
        "profile": [ "http://hl7.org/fhir/us/qicore/StructureDefinition/qicore-observation-lab" ]
      },
      "status": "final",
      "category": [ {
        "coding": [ {
          "system": "http://terminology.hl7.org/CodeSystem/observation-category",
          "code": "laboratory",
          "display": "Laboratory"
        } ]
      } ],
      "code": {
        "coding": [ {
          "system": "http://loinc.org",
          "version": "2.72",
          "code": "1556-0",
          "display": "Fasting glucose [Mass/volume] in Capillary blood",
          "userSelected": true
        } ]
      },
      "subject": {
        "reference": "Patient/a4b9ab0b-4503-4404-81e3-919f6f383948"
      },
      "effectiveDateTime": "2026-04-10T07:00:00.000Z",
      "valueQuantity": {
        "value": 200,
        "unit": "mg/dL"
      }
    },
    "request": {
      "method": "PUT",
      "url": "Observation/759e80cd-fcd1-4b9f-a30e-e9f6f6ade2fb"
    }
  }, {
    "fullUrl": "https://madie.cms.gov/Patient/a4b9ab0b-4503-4404-81e3-919f6f383948",
    "resource": {
      "resourceType": "Patient",
      "id": "a4b9ab0b-4503-4404-81e3-919f6f383948",
      "meta": {
        "profile": [ "http://hl7.org/fhir/us/qicore/StructureDefinition/qicore-patient" ]
      },
      "extension": [ {
        "url": "http://hl7.org/fhir/us/core/StructureDefinition/us-core-race",
        "extension": [ {
          "url": "ombCategory",
          "valueCoding": {
            "system": "urn:oid:2.16.840.1.113883.6.238",
            "code": "2106-3",
            "display": "White"
          }
        }, {
          "url": "text",
          "valueString": "White"
        } ]
      }, {
        "url": "http://hl7.org/fhir/us/core/StructureDefinition/us-core-ethnicity",
        "extension": [ {
          "url": "ombCategory",
          "valueCoding": {
            "system": "urn:oid:2.16.840.1.113883.6.238",
            "code": "2135-2",
            "display": "Hispanic or Latino"
          }
        }, {
          "url": "text",
          "valueString": "Hispanic or Latino"
        } ]
      } ],
      "identifier": [ {
        "system": "http://hospital.smarthealthit.org",
        "value": "999999999"
      } ],
      "name": [ {
        "family": "Example",
        "given": [ "Patient" ]
      } ],
      "gender": "other",
      "birthDate": "1956-01-01"
    },
    "request": {
      "method": "PUT",
      "url": "Patient/a4b9ab0b-4503-4404-81e3-919f6f383948"
    }
  }, {
    "fullUrl": "https://madie.cms.gov/Encounter/e8e08c8e-1a94-4e2a-b057-9039a0c50da5",
    "resource": {
      "resourceType": "Encounter",
      "id": "e8e08c8e-1a94-4e2a-b057-9039a0c50da5",
      "meta": {
        "profile": [ "http://hl7.org/fhir/us/qicore/StructureDefinition/qicore-encounter" ]
      },
      "status": "finished",
      "class": {
        "system": "http://terminology.hl7.org/CodeSystem/v3-ActCode",
        "code": "IMP",
        "display": "inpatient encounter"
      },
      "type": [ {
        "coding": [ {
          "system": "http://snomed.info/sct",
          "code": "183452005"
        } ]
      } ],
      "subject": {
        "reference": "Patient/a4b9ab0b-4503-4404-81e3-919f6f383948"
      },
      "period": {
        "start": "2026-04-07T08:00:00.000Z",
        "end": "2026-04-12T08:15:00.000Z"
      },
      "hospitalization": {
        "admitSource": {
          "coding": [ {
            "system": "http://terminology.hl7.org/CodeSystem/v3-ActCode",
            "code": "EMER",
            "display": "Emergency"
          } ]
        },
        "dischargeDisposition": {
          "coding": [ {
            "system": "http://snomed.info/sct",
            "code": "428361000124107",
            "display": "Discharge to home for hospice care (procedure)"
          } ]
        }
      }
    },
    "request": {
      "method": "PUT",
      "url": "Encounter/e8e08c8e-1a94-4e2a-b057-9039a0c50da5"
    }
  }, {
    "fullUrl": "https://madie.cms.gov/Observation/1cda2a0d-7b36-45ed-9279-9947e654748d",
    "resource": {
      "resourceType": "Observation",
      "id": "1cda2a0d-7b36-45ed-9279-9947e654748d",
      "meta": {
        "profile": [ "http://hl7.org/fhir/us/qicore/StructureDefinition/qicore-observation-lab" ]
      },
      "status": "final",
      "category": [ {
        "coding": [ {
          "system": "http://terminology.hl7.org/CodeSystem/observation-category",
          "code": "laboratory",
          "display": "Laboratory"
        } ]
      } ],
      "code": {
        "coding": [ {
          "system": "http://loinc.org",
          "version": "2.72",
          "code": "1556-0",
          "display": "Fasting glucose [Mass/volume] in Capillary blood",
          "userSelected": true
        } ]
      },
      "subject": {
        "reference": "Patient/a4b9ab0b-4503-4404-81e3-919f6f383948"
      },
      "effectiveDateTime": "2026-04-09T07:00:00.000Z",
      "valueQuantity": {
        "value": 201,
        "unit": "mg/dL"
      }
    },
    "request": {
      "method": "PUT",
      "url": "Observation/1cda2a0d-7b36-45ed-9279-9947e654748d"
    }
  }, {
    "fullUrl": "https://madie.cms.gov/MeasureReport/a64368b5-0e3e-4283-ac77-5029985073bd",
    "resource": {
      "resourceType": "MeasureReport",
      "id": "a64368b5-0e3e-4283-ac77-5029985073bd",
      "meta": {
        "profile": [ "http://hl7.org/fhir/us/cqfmeasures/StructureDefinition/test-case-cqfm" ]
      },
      "contained": [ {
        "resourceType": "Parameters",
        "id": "d728bcc3-fc0b-4795-826e-28be02518961-parameters",
        "parameter": [ {
          "name": "subject",
          "valueString": "a4b9ab0b-4503-4404-81e3-919f6f383948"
        } ]
      } ],
      "extension": [ {
        "url": "http://hl7.org/fhir/StructureDefinition/cqf-inputParameters",
        "valueReference": {
          "reference": "#d728bcc3-fc0b-4795-826e-28be02518961-parameters"
        }
      }, {
        "url": "http://hl7.org/fhir/us/cqfmeasures/StructureDefinition/cqfm-testCaseDescription",
        "valueMarkdown": "Encounter with discharge disposition to hospice care. Satisfies numerator exclusion and denominator exclusion"
      } ],
      "modifierExtension": [ {
        "url": "http://hl7.org/fhir/us/cqfmeasures/StructureDefinition/cqfm-isTestCase",
        "valueBoolean": true
      } ],
      "status": "complete",
      "type": "individual",
      "measure": "https://madie.cms.gov/Measure/CMS871FHIRHHHyper",
      "period": {
        "start": "2026-01-01",
        "end": "2026-12-31"
      },
      "group": [ {
        "id": "Group_1",
        "population": [ {
          "id": "InitialPopulation_1",
          "code": {
            "coding": [ {
              "system": "http://terminology.hl7.org/CodeSystem/measure-population",
              "code": "initial-population",
              "display": "Initial Population"
            } ]
          },
          "count": 1
        }, {
          "id": "Denominator_1",
          "code": {
            "coding": [ {
              "system": "http://terminology.hl7.org/CodeSystem/measure-population",
              "code": "denominator",
              "display": "Denominator"
            } ]
          },
          "count": 1
        }, {
          "id": "DenominatorExclusion_1",
          "code": {
            "coding": [ {
              "system": "http://terminology.hl7.org/CodeSystem/measure-population",
              "code": "denominator-exclusion",
              "display": "Denominator Exclusion"
            } ]
          },
          "count": 1
        }, {
          "id": "Numerator_1",
          "code": {
            "coding": [ {
              "system": "http://terminology.hl7.org/CodeSystem/measure-population",
              "code": "numerator",
              "display": "Numerator"
            } ]
          },
          "count": 1
        }, {
          "id": "NumeratorExclusion_1",
          "code": {
            "coding": [ {
              "system": "http://terminology.hl7.org/CodeSystem/measure-population",
              "code": "numerator-exclusion",
              "display": "Numerator Exclusion"
            } ]
          },
          "count": 1
        } ],
        "measureScore": {
          "value": 0.0
        }
      } ],
      "evaluatedResource": [ {
        "reference": "Condition/ef00d616-d4b6-4c8d-9595-9bf116c1421c"
      }, {
        "reference": "Observation/759e80cd-fcd1-4b9f-a30e-e9f6f6ade2fb"
      }, {
        "reference": "Patient/a4b9ab0b-4503-4404-81e3-919f6f383948"
      }, {
        "reference": "Encounter/e8e08c8e-1a94-4e2a-b057-9039a0c50da5"
      }, {
        "reference": "Observation/1cda2a0d-7b36-45ed-9279-9947e654748d"
      } ]
    },
    "request": {
      "method": "PUT",
      "url": "MeasureReport/a64368b5-0e3e-4283-ac77-5029985073bd"
    }
  } ]
}