{
  "resourceType": "Bundle",
  "id": "62fd0dd085b0356a7c285330",
  "type": "collection",
  "entry": [ {
    "fullUrl": "https://madie.cms.gov/Patient/056a27fa-04fc-45d6-bf3f-07482f8db4a8",
    "resource": {
      "resourceType": "Patient",
      "id": "056a27fa-04fc-45d6-bf3f-07482f8db4a8",
      "meta": {
        "profile": [ "http://hl7.org/fhir/us/qicore/StructureDefinition/qicore-patient" ]
      },
      "extension": [ {
        "url": "http://hl7.org/fhir/us/core/StructureDefinition/us-core-race",
        "extension": [ {
          "url": "ombCategory",
          "valueCoding": {
            "system": "urn:oid:2.16.840.1.113883.6.238",
            "code": "2106-3",
            "display": "White",
            "userSelected": true
          }
        }, {
          "url": "text",
          "valueString": "White"
        } ]
      }, {
        "url": "http://hl7.org/fhir/us/core/StructureDefinition/us-core-ethnicity",
        "extension": [ {
          "url": "ombCategory",
          "valueCoding": {
            "system": "urn:oid:2.16.840.1.113883.6.238",
            "code": "2186-5",
            "display": "Not Hispanic or Latino",
            "userSelected": true
          }
        }, {
          "url": "text",
          "valueString": "Not Hispanic or Latino"
        } ]
      } ],
      "identifier": [ {
        "type": {
          "coding": [ {
            "system": "http://terminology.hl7.org/CodeSystem/v2-0203",
            "code": "MR"
          } ]
        },
        "system": "https://bonnie-fhir.healthit.gov/",
        "value": "62fd0dd085b0356a7c285330"
      } ],
      "name": [ {
        "family": "DenomFail",
        "given": [ "StagingNotInRange" ]
      } ],
      "gender": "female",
      "birthDate": "1971-12-31"
    }
  }, {
    "fullUrl": "https://madie.cms.gov/Condition/4f620abf-ced7-4171-99b2-f0f5edc7e412",
    "resource": {
      "resourceType": "Condition",
      "id": "4f620abf-ced7-4171-99b2-f0f5edc7e412",
      "meta": {
        "profile": [ "http://hl7.org/fhir/us/qicore/StructureDefinition/qicore-condition-problems-health-concerns" ]
      },
      "clinicalStatus": {
        "coding": [ {
          "system": "http://terminology.hl7.org/CodeSystem/condition-clinical",
          "code": "active",
          "display": "active",
          "userSelected": true
        } ]
      },
      "category": [ {
        "coding": [ {
          "system": "http://terminology.hl7.org/CodeSystem/condition-category",
          "code": "problem-list-item",
          "display": "Problem List Item"
        } ]
      } ],
      "code": {
        "coding": [ {
          "system": "http://snomed.info/sct",
          "code": "254900004",
          "display": "Carcinoma of prostate (disorder)",
          "userSelected": true
        } ]
      },
      "subject": {
        "reference": "Patient/056a27fa-04fc-45d6-bf3f-07482f8db4a8"
      },
      "onsetPeriod": {
        "start": "2021-06-14T08:00:00.000+00:00"
      }
    }
  }, {
    "fullUrl": "https://madie.cms.gov/Procedure/d8c4481b-c319-4602-8215-398b088498e5",
    "resource": {
      "resourceType": "Procedure",
      "id": "d8c4481b-c319-4602-8215-398b088498e5",
      "meta": {
        "profile": [ "http://hl7.org/fhir/us/qicore/StructureDefinition/qicore-procedure" ]
      },
      "extension": [ {
        "url": "http://hl7.org/fhir/us/qicore/StructureDefinition/qicore-recorded",
        "valueDateTime": "2026-02-01T09:00:00.000+00:00"
      } ],
      "status": "completed",
      "code": {
        "coding": [ {
          "system": "http://snomed.info/sct",
          "code": "38915000",
          "display": "Radionuclide therapy for gland ablation (procedure)",
          "userSelected": true
        } ]
      },
      "subject": {
        "reference": "Patient/056a27fa-04fc-45d6-bf3f-07482f8db4a8"
      },
      "performedDateTime": "2026-04-28T08:00:00.000+00:00"
    }
  }, {
    "fullUrl": "https://madie.cms.gov/Observation/42b1696b-fdbf-46fb-a91e-068c93e2008c",
    "resource": {
      "resourceType": "Observation",
      "id": "42b1696b-fdbf-46fb-a91e-068c93e2008c",
      "meta": {
        "profile": [ "http://hl7.org/fhir/us/qicore/StructureDefinition/qicore-observation-clinical-result" ]
      },
      "status": "amended",
      "category": [ {
        "coding": [ {
          "system": "http://terminology.hl7.org/CodeSystem/observation-category",
          "code": "procedure",
          "display": "Procedure"
        } ]
      } ],
      "code": {
        "coding": [ {
          "system": "http://loinc.org",
          "version": "2.72",
          "code": "10508-0",
          "display": "Prostate specific Ag [Presence] in Tissue by Immune stain",
          "userSelected": true
        } ]
      },
      "subject": {
        "reference": "Patient/056a27fa-04fc-45d6-bf3f-07482f8db4a8"
      },
      "effectiveDateTime": "2026-04-24T08:00:00.000+00:00",
      "issued": "2026-04-24T08:00:00.000+00:00",
      "valueQuantity": {
        "value": 2.0,
        "system": "http://unitsofmeasure.org",
        "code": "ng/mL"
      }
    }
  }, {
    "fullUrl": "https://madie.cms.gov/Observation/2633518a-bd71-4a5f-9b1a-261af539ec37",
    "resource": {
      "resourceType": "Observation",
      "id": "2633518a-bd71-4a5f-9b1a-261af539ec37",
      "meta": {
        "profile": [ "http://hl7.org/fhir/us/qicore/StructureDefinition/qicore-observation-clinical-result" ]
      },
      "status": "final",
      "category": [ {
        "coding": [ {
          "system": "http://terminology.hl7.org/CodeSystem/observation-category",
          "code": "procedure",
          "display": "Procedure"
        } ]
      } ],
      "code": {
        "coding": [ {
          "system": "http://loinc.org",
          "code": "35266-6",
          "display": "Gleason score in Specimen Qualitative",
          "userSelected": true
        } ]
      },
      "subject": {
        "reference": "Patient/056a27fa-04fc-45d6-bf3f-07482f8db4a8"
      },
      "effectiveDateTime": "2026-01-02T08:00:00.000+00:00",
      "valueInteger": 5
    }
  }, {
    "fullUrl": "https://madie.cms.gov/Observation/2c59e626-1121-4d21-958c-00379d2c4263",
    "resource": {
      "resourceType": "Observation",
      "id": "2c59e626-1121-4d21-958c-00379d2c4263",
      "meta": {
        "profile": [ "http://hl7.org/fhir/us/qicore/StructureDefinition/qicore-observation-clinical-result" ]
      },
      "status": "final",
      "category": [ {
        "coding": [ {
          "system": "http://terminology.hl7.org/CodeSystem/observation-category",
          "code": "procedure",
          "display": "Procedure"
        } ]
      } ],
      "code": {
        "coding": [ {
          "system": "http://snomed.info/sct",
          "code": "254292007",
          "display": "Tumor staging (tumor staging)",
          "userSelected": true
        } ]
      },
      "subject": {
        "reference": "Patient/056a27fa-04fc-45d6-bf3f-07482f8db4a8"
      },
      "effectiveDateTime": "2026-04-27T23:59:00.000+00:00",
      "valueCodeableConcept": {
        "coding": [ {
          "system": "http://snomed.info/sct",
          "code": "254292007",
          "display": "Tumor staging (tumor staging)",
          "userSelected": true
        } ]
      }
    }
  }, {
    "fullUrl": "https://madie.cms.gov/Coverage/84622c31-8ce7-4d52-9037-c7b54843b2c9",
    "resource": {
      "resourceType": "Coverage",
      "id": "84622c31-8ce7-4d52-9037-c7b54843b2c9",
      "meta": {
        "profile": [ "http://hl7.org/fhir/us/qicore/StructureDefinition/qicore-coverage" ]
      },
      "status": "active",
      "subscriberId": "123456789",
      "beneficiary": {
        "reference": "Patient/056a27fa-04fc-45d6-bf3f-07482f8db4a8"
      },
      "relationship": {
        "coding": [ {
          "system": "http://terminology.hl7.org/CodeSystem/subscriber-relationship",
          "code": "self",
          "display": "Self",
          "userSelected": true
        } ]
      },
      "payor": [ {
        "reference": "Organization/7fcb48e0-1401-4c5f-b515-6d0c9652f5de"
      } ]
    }
  }, {
    "fullUrl": "https://madie.cms.gov/Organization/7fcb48e0-1401-4c5f-b515-6d0c9652f5de",
    "resource": {
      "resourceType": "Organization",
      "id": "7fcb48e0-1401-4c5f-b515-6d0c9652f5de",
      "meta": {
        "profile": [ "http://hl7.org/fhir/us/qicore/StructureDefinition/qicore-organization" ]
      },
      "identifier": [ {
        "use": "temp",
        "system": "urn:oid:2.16.840.1.113883.4.4",
        "value": "21-3259825"
      } ],
      "active": true,
      "type": [ {
        "coding": [ {
          "system": "http://terminology.hl7.org/CodeSystem/organization-type",
          "code": "pay",
          "display": "Payer"
        } ]
      } ],
      "name": "Blue Cross Blue Shield of Texas",
      "telecom": [ {
        "system": "phone",
        "value": "(+1) 972-766-6900"
      } ],
      "address": [ {
        "use": "billing",
        "type": "postal",
        "line": [ "P.O. Box 660044" ],
        "city": "Dallas",
        "state": "TX",
        "postalCode": "75266-0044",
        "country": "USA"
      } ]
    }
  }, {
    "fullUrl": "https://madie.cms.gov/Practitioner/bb924760-d251-4c96-b4a2-59f4124f8265",
    "resource": {
      "resourceType": "Practitioner",
      "id": "bb924760-d251-4c96-b4a2-59f4124f8265",
      "meta": {
        "profile": [ "http://hl7.org/fhir/us/qicore/StructureDefinition/qicore-practitioner" ]
      },
      "identifier": [ {
        "system": "http://hl7.org/fhir/sid/us-npi",
        "value": "1234567893"
      } ],
      "name": [ {
        "family": "Evil",
        "prefix": [ "Dr" ]
      } ]
    }
  }, {
    "fullUrl": "https://madie.cms.gov/MeasureReport/c979daf7-514f-4bfb-9833-1ee0954f2a53",
    "resource": {
      "resourceType": "MeasureReport",
      "id": "c979daf7-514f-4bfb-9833-1ee0954f2a53",
      "meta": {
        "profile": [ "http://hl7.org/fhir/us/cqfmeasures/StructureDefinition/test-case-cqfm" ]
      },
      "contained": [ {
        "resourceType": "Parameters",
        "id": "0fb77bae-2f8a-4d1d-8785-b7a5bd569207-parameters",
        "parameter": [ {
          "name": "subject",
          "valueString": "056a27fa-04fc-45d6-bf3f-07482f8db4a8"
        } ]
      } ],
      "extension": [ {
        "url": "http://hl7.org/fhir/StructureDefinition/cqf-inputParameters",
        "valueReference": {
          "reference": "#0fb77bae-2f8a-4d1d-8785-b7a5bd569207-parameters"
        }
      }, {
        "url": "http://hl7.org/fhir/us/cqfmeasures/StructureDefinition/cqfm-testCaseDescription",
        "valueMarkdown": "Prostate Ca Diagnosis but does not meet tumor staging. Meets first treatment, PSA, and Gleason.  Staging occurs before 1st treatment.  Value is not T1a to T2a. "
      } ],
      "modifierExtension": [ {
        "url": "http://hl7.org/fhir/us/cqfmeasures/StructureDefinition/cqfm-isTestCase",
        "valueBoolean": true
      } ],
      "status": "complete",
      "type": "individual",
      "measure": "https://madie.cms.gov/Measure/CMS129FHIRProstCaBoneScanUse",
      "period": {
        "start": "2026-01-01",
        "end": "2026-12-31"
      },
      "group": [ {
        "id": "Group_1",
        "population": [ {
          "id": "InitialPopulation_1",
          "code": {
            "coding": [ {
              "system": "http://terminology.hl7.org/CodeSystem/measure-population",
              "code": "initial-population",
              "display": "Initial Population"
            } ]
          },
          "count": 1
        }, {
          "id": "Denominator_1",
          "code": {
            "coding": [ {
              "system": "http://terminology.hl7.org/CodeSystem/measure-population",
              "code": "denominator",
              "display": "Denominator"
            } ]
          },
          "count": 0
        }, {
          "id": "Numerator_1",
          "code": {
            "coding": [ {
              "system": "http://terminology.hl7.org/CodeSystem/measure-population",
              "code": "numerator",
              "display": "Numerator"
            } ]
          },
          "count": 0
        }, {
          "id": "DenominatorException_1",
          "code": {
            "coding": [ {
              "system": "http://terminology.hl7.org/CodeSystem/measure-population",
              "code": "denominator-exception",
              "display": "Denominator Exception"
            } ]
          },
          "count": 0
        } ],
        "measureScore": {
          "value": 1.0
        }
      } ],
      "evaluatedResource": [ {
        "reference": "Patient/056a27fa-04fc-45d6-bf3f-07482f8db4a8"
      }, {
        "reference": "Condition/4f620abf-ced7-4171-99b2-f0f5edc7e412"
      }, {
        "reference": "Procedure/d8c4481b-c319-4602-8215-398b088498e5"
      }, {
        "reference": "Observation/42b1696b-fdbf-46fb-a91e-068c93e2008c"
      }, {
        "reference": "Observation/2633518a-bd71-4a5f-9b1a-261af539ec37"
      }, {
        "reference": "Observation/2c59e626-1121-4d21-958c-00379d2c4263"
      }, {
        "reference": "Coverage/84622c31-8ce7-4d52-9037-c7b54843b2c9"
      }, {
        "reference": "Organization/7fcb48e0-1401-4c5f-b515-6d0c9652f5de"
      }, {
        "reference": "Practitioner/bb924760-d251-4c96-b4a2-59f4124f8265"
      } ]
    }
  } ]
}