{
  "resourceType": "Bundle",
  "id": "657cbdc9b4f1f0343662347a",
  "type": "transaction",
  "entry": [ {
    "fullUrl": "https://madie.cms.gov/Patient/0dc78b19-e1f7-4a30-adb1-b2359b85a10a",
    "resource": {
      "resourceType": "Patient",
      "id": "0dc78b19-e1f7-4a30-adb1-b2359b85a10a",
      "meta": {
        "profile": [ "http://hl7.org/fhir/us/qicore/StructureDefinition/qicore-patient" ]
      },
      "extension": [ {
        "url": "http://hl7.org/fhir/us/core/StructureDefinition/us-core-race",
        "extension": [ {
          "url": "ombCategory",
          "valueCoding": {
            "system": "urn:oid:2.16.840.1.113883.6.238",
            "code": "2106-3",
            "display": "White",
            "userSelected": true
          }
        }, {
          "url": "text",
          "valueString": "White"
        } ]
      }, {
        "url": "http://hl7.org/fhir/us/core/StructureDefinition/us-core-ethnicity",
        "extension": [ {
          "url": "ombCategory",
          "valueCoding": {
            "system": "urn:oid:2.16.840.1.113883.6.238",
            "code": "2186-5",
            "display": "Not Hispanic or Latino",
            "userSelected": true
          }
        }, {
          "url": "text",
          "valueString": "Not Hispanic or Latino"
        } ]
      } ],
      "identifier": [ {
        "type": {
          "coding": [ {
            "system": "http://terminology.hl7.org/CodeSystem/v2-0203",
            "code": "MR"
          } ]
        },
        "system": "https://bonnie-fhir.healthit.gov/",
        "value": "657cbdc9b4f1f0343662347a"
      } ],
      "name": [ {
        "family": "MedicationFail",
        "given": [ "MedicationPriortoMP" ]
      } ],
      "gender": "female",
      "birthDate": "2008-01-01"
    },
    "request": {
      "method": "PUT",
      "url": "Patient/0dc78b19-e1f7-4a30-adb1-b2359b85a10a"
    }
  }, {
    "fullUrl": "https://madie.cms.gov/Encounter/6054d4f3-7933-47eb-8b24-310aa2245c3c",
    "resource": {
      "resourceType": "Encounter",
      "id": "6054d4f3-7933-47eb-8b24-310aa2245c3c",
      "meta": {
        "profile": [ "http://hl7.org/fhir/us/qicore/StructureDefinition/qicore-encounter" ]
      },
      "status": "finished",
      "class": {
        "system": "http://terminology.hl7.org/CodeSystem/v3-ActCode",
        "code": "ACUTE",
        "display": "inpatient acute"
      },
      "type": [ {
        "coding": [ {
          "system": "http://snomed.info/sct",
          "version": "2024",
          "code": "32485007",
          "display": "Hospital admission (procedure)",
          "userSelected": true
        } ]
      } ],
      "subject": {
        "reference": "Patient/0dc78b19-e1f7-4a30-adb1-b2359b85a10a"
      },
      "period": {
        "start": "2026-01-01T08:00:00.000Z",
        "end": "2026-01-02T09:15:00.000Z"
      },
      "diagnosis": [ {
        "condition": {
          "reference": "Condition/96515cbe-4dfe-43a9-97c9-49bf5aab7b66"
        },
        "use": {
          "coding": [ {
            "system": "http://terminology.hl7.org/CodeSystem/diagnosis-role",
            "code": "billing"
          } ]
        },
        "rank": 1
      } ]
    },
    "request": {
      "method": "PUT",
      "url": "Encounter/6054d4f3-7933-47eb-8b24-310aa2245c3c"
    }
  }, {
    "fullUrl": "https://madie.cms.gov/Location/4addf55e-a289-4415-9a60-e5ec222edf81",
    "resource": {
      "resourceType": "Location",
      "id": "4addf55e-a289-4415-9a60-e5ec222edf81",
      "meta": {
        "profile": [ "http://hl7.org/fhir/us/qicore/StructureDefinition/qicore-location" ]
      },
      "identifier": [ {
        "use": "usual",
        "system": "http://exampleoflocation.com",
        "value": "B1-S.F2"
      } ],
      "name": "Medical Surgical East, first floor",
      "type": [ {
        "coding": [ {
          "system": "https://www.cdc.gov/nhsn/cdaportal/terminology/codesystem/hsloc.html",
          "code": "1028-0",
          "display": "Medical Cardiac Critical Care",
          "userSelected": true
        } ]
      } ]
    },
    "request": {
      "method": "PUT",
      "url": "Location/4addf55e-a289-4415-9a60-e5ec222edf81"
    }
  }, {
    "fullUrl": "https://madie.cms.gov/MedicationRequest/ce5f453f-e9c7-4729-8100-7d45341e8b83",
    "resource": {
      "resourceType": "MedicationRequest",
      "id": "ce5f453f-e9c7-4729-8100-7d45341e8b83",
      "meta": {
        "profile": [ "http://hl7.org/fhir/us/qicore/StructureDefinition/qicore-medicationrequest" ]
      },
      "status": "completed",
      "intent": "order",
      "medicationCodeableConcept": {
        "coding": [ {
          "system": "http://www.nlm.nih.gov/research/umls/rxnorm",
          "version": "06052023",
          "code": "1007184"
        } ]
      },
      "subject": {
        "reference": "Patient/0dc78b19-e1f7-4a30-adb1-b2359b85a10a"
      },
      "authoredOn": "2026-01-01T08:15:00.000Z",
      "requester": {
        "reference": "Practitioner/33d87640-6b2a-40b0-ab11-542478a88d5a"
      },
      "dosageInstruction": [ {
        "timing": {
          "repeat": {
            "boundsPeriod": {
              "start": "2025-01-01T08:15:00.000Z"
            }
          }
        }
      } ]
    },
    "request": {
      "method": "PUT",
      "url": "MedicationRequest/ce5f453f-e9c7-4729-8100-7d45341e8b83"
    }
  }, {
    "fullUrl": "https://madie.cms.gov/Medication/6d57e1f9-cfb8-4b65-a595-952103ffb6c6",
    "resource": {
      "resourceType": "Medication",
      "id": "6d57e1f9-cfb8-4b65-a595-952103ffb6c6",
      "meta": {
        "profile": [ "http://hl7.org/fhir/us/qicore/StructureDefinition/qicore-medication" ]
      },
      "code": {
        "coding": [ {
          "system": "http://www.nlm.nih.gov/research/umls/rxnorm",
          "code": "1007184",
          "display": "insulin aspart protamine, human / insulin aspart, human"
        } ]
      },
      "status": "active",
      "manufacturer": {
        "reference": "Organization/226cad43-da73-47d2-9625-28c6d7613d27"
      },
      "form": {
        "coding": [ {
          "system": "http://snomed.info/sct",
          "code": "385219001",
          "display": "Conventional release solution for injection (dose form)"
        } ]
      },
      "amount": {
        "numerator": {
          "value": 1
        },
        "denominator": {
          "value": 128
        }
      },
      "ingredient": [ {
        "itemCodeableConcept": {
          "coding": [ {
            "system": "http://snomed.info/sct",
            "code": "420609005",
            "display": "Human regular insulin (substance)"
          } ]
        },
        "strength": {
          "numerator": {
            "value": 12,
            "system": "http://unitsofmeasure.org",
            "code": "mg"
          },
          "denominator": {
            "value": 1.2,
            "system": "http://unitsofmeasure.org",
            "code": "mL"
          }
        }
      } ],
      "batch": {
        "lotNumber": "9494788",
        "expirationDate": "2026-05-22"
      }
    },
    "request": {
      "method": "PUT",
      "url": "Medication/6d57e1f9-cfb8-4b65-a595-952103ffb6c6"
    }
  }, {
    "fullUrl": "https://madie.cms.gov/MedicationAdministration/f69dfaca-36f4-42d9-accd-2e9f4ba6cdbf",
    "resource": {
      "resourceType": "MedicationAdministration",
      "id": "f69dfaca-36f4-42d9-accd-2e9f4ba6cdbf",
      "meta": {
        "profile": [ "http://hl7.org/fhir/us/qicore/StructureDefinition/qicore-medicationadministration" ]
      },
      "status": "completed",
      "medicationReference": {
        "reference": "Medication/6d57e1f9-cfb8-4b65-a595-952103ffb6c6"
      },
      "subject": {
        "reference": "Patient/0dc78b19-e1f7-4a30-adb1-b2359b85a10a"
      },
      "context": {
        "reference": "Encounter/0195917c-35dc-7667-a14f-1bc2c7481b78"
      },
      "supportingInformation": [ {
        "reference": "Condition/019595f8-e3af-7a05-bd02-cb1d0344a4b5"
      } ],
      "effectivePeriod": {
        "start": "2025-12-31T08:15:00.000Z",
        "end": "2025-12-31T08:15:00.000Z"
      },
      "dosage": {
        "route": {
          "coding": [ {
            "system": "http://snomed.info/sct",
            "code": "26643006",
            "display": "Oral route (qualifier value)"
          } ]
        },
        "dose": {
          "value": 600,
          "unit": "mg",
          "system": "http://unitsofmeasure.org",
          "code": "mg"
        }
      }
    },
    "request": {
      "method": "PUT",
      "url": "MedicationAdministration/f69dfaca-36f4-42d9-accd-2e9f4ba6cdbf"
    }
  }, {
    "fullUrl": "https://madie.cms.gov/Coverage/c2afbc41-7910-42ec-aa3a-8a5836c9c956",
    "resource": {
      "resourceType": "Coverage",
      "id": "c2afbc41-7910-42ec-aa3a-8a5836c9c956",
      "meta": {
        "profile": [ "http://hl7.org/fhir/us/qicore/StructureDefinition/qicore-coverage" ]
      },
      "identifier": [ {
        "system": "http://benefitsinc.com/certificate",
        "value": "12345"
      } ],
      "status": "active",
      "type": {
        "coding": [ {
          "system": "https://nahdo.org/sopt",
          "version": "1.0.1",
          "code": "1",
          "display": "MEDICARE",
          "userSelected": true
        } ]
      },
      "subscriberId": "AB9876",
      "beneficiary": {
        "reference": "Patient/0dc78b19-e1f7-4a30-adb1-b2359b85a10a"
      },
      "relationship": {
        "coding": [ {
          "system": "http://terminology.hl7.org/CodeSystem/subscriber-relationship",
          "code": "self"
        } ]
      },
      "payor": [ {
        "reference": "Organization/226cad43-da73-47d2-9625-28c6d7613d27"
      } ]
    },
    "request": {
      "method": "PUT",
      "url": "Coverage/c2afbc41-7910-42ec-aa3a-8a5836c9c956"
    }
  }, {
    "fullUrl": "https://madie.cms.gov/Organization/226cad43-da73-47d2-9625-28c6d7613d27",
    "resource": {
      "resourceType": "Organization",
      "id": "226cad43-da73-47d2-9625-28c6d7613d27",
      "meta": {
        "profile": [ "http://hl7.org/fhir/us/qicore/StructureDefinition/qicore-organization" ]
      },
      "identifier": [ {
        "use": "temp",
        "system": "urn:oid:2.16.840.1.113883.4.4",
        "value": "21-3259825"
      } ],
      "active": true,
      "type": [ {
        "coding": [ {
          "system": "http://terminology.hl7.org/CodeSystem/organization-type",
          "code": "pay",
          "display": "Payer"
        } ]
      } ],
      "name": "Blue Cross Blue Shield of Texas",
      "telecom": [ {
        "system": "phone",
        "value": "(+1) 972-766-6900"
      } ],
      "address": [ {
        "use": "billing",
        "type": "postal",
        "line": [ "P.O. Box 660044" ],
        "city": "Dallas",
        "state": "TX",
        "postalCode": "75266-0044",
        "country": "USA"
      } ]
    },
    "request": {
      "method": "PUT",
      "url": "Organization/226cad43-da73-47d2-9625-28c6d7613d27"
    }
  }, {
    "fullUrl": "https://madie.cms.gov/Practitioner/edddbdcc-e636-4306-96ad-e18ea8190324",
    "resource": {
      "resourceType": "Practitioner",
      "id": "edddbdcc-e636-4306-96ad-e18ea8190324",
      "meta": {
        "profile": [ "http://hl7.org/fhir/us/qicore/StructureDefinition/qicore-practitioner" ]
      },
      "identifier": [ {
        "system": "http://hl7.org/fhir/sid/us-npi",
        "value": "0723660813"
      } ],
      "name": [ {
        "family": "Evil",
        "prefix": [ "Dr" ]
      } ]
    },
    "request": {
      "method": "PUT",
      "url": "Practitioner/edddbdcc-e636-4306-96ad-e18ea8190324"
    }
  }, {
    "fullUrl": "https://madie.cms.gov/MeasureReport/85fcc828-6e8b-493b-bf52-db33dfe2ce53",
    "resource": {
      "resourceType": "MeasureReport",
      "id": "85fcc828-6e8b-493b-bf52-db33dfe2ce53",
      "meta": {
        "profile": [ "http://hl7.org/fhir/us/cqfmeasures/StructureDefinition/test-case-cqfm" ]
      },
      "contained": [ {
        "resourceType": "Parameters",
        "id": "420673cf-4c1c-4629-bec4-16ec39dcb3dd-parameters",
        "parameter": [ {
          "name": "subject",
          "valueString": "0dc78b19-e1f7-4a30-adb1-b2359b85a10a"
        } ]
      } ],
      "extension": [ {
        "url": "http://hl7.org/fhir/StructureDefinition/cqf-inputParameters",
        "valueReference": {
          "reference": "#420673cf-4c1c-4629-bec4-16ec39dcb3dd-parameters"
        }
      }, {
        "url": "http://hl7.org/fhir/us/cqfmeasures/StructureDefinition/cqfm-testCaseDescription",
        "valueMarkdown": "Medication request prior to MP - fails medication SDE"
      } ],
      "modifierExtension": [ {
        "url": "http://hl7.org/fhir/us/cqfmeasures/StructureDefinition/cqfm-isTestCase",
        "valueBoolean": true
      } ],
      "status": "complete",
      "type": "individual",
      "measure": "https://madie.cms.gov/Measure/NHSNGlycemicControlHypoglycemiaInitialPopulation",
      "period": {
        "start": "2026-01-01",
        "end": "2026-12-31"
      },
      "group": [ {
        "id": "Group_1",
        "population": [ {
          "id": "InitialPopulation_1",
          "code": {
            "coding": [ {
              "system": "http://terminology.hl7.org/CodeSystem/measure-population",
              "code": "initial-population",
              "display": "Initial Population"
            } ]
          },
          "count": 1
        } ],
        "measureScore": {
          "value": 0.0
        }
      } ],
      "evaluatedResource": [ {
        "reference": "Patient/0dc78b19-e1f7-4a30-adb1-b2359b85a10a"
      }, {
        "reference": "Encounter/6054d4f3-7933-47eb-8b24-310aa2245c3c"
      }, {
        "reference": "Location/4addf55e-a289-4415-9a60-e5ec222edf81"
      }, {
        "reference": "MedicationRequest/ce5f453f-e9c7-4729-8100-7d45341e8b83"
      }, {
        "reference": "Medication/6d57e1f9-cfb8-4b65-a595-952103ffb6c6"
      }, {
        "reference": "MedicationAdministration/f69dfaca-36f4-42d9-accd-2e9f4ba6cdbf"
      }, {
        "reference": "Coverage/c2afbc41-7910-42ec-aa3a-8a5836c9c956"
      }, {
        "reference": "Organization/226cad43-da73-47d2-9625-28c6d7613d27"
      }, {
        "reference": "Practitioner/edddbdcc-e636-4306-96ad-e18ea8190324"
      } ]
    },
    "request": {
      "method": "PUT",
      "url": "MeasureReport/85fcc828-6e8b-493b-bf52-db33dfe2ce53"
    }
  } ]
}