{
  "resourceType": "Bundle",
  "id": "6179e214e2011aa9929f330e",
  "type": "transaction",
  "entry": [ {
    "fullUrl": "https://madie.cms.gov/Patient/ff9913bf-ff27-4b92-b28c-d3eda9866d2f",
    "resource": {
      "resourceType": "Patient",
      "id": "ff9913bf-ff27-4b92-b28c-d3eda9866d2f",
      "meta": {
        "profile": [ "http://hl7.org/fhir/us/qicore/StructureDefinition/qicore-patient" ]
      },
      "extension": [ {
        "url": "http://hl7.org/fhir/us/core/StructureDefinition/us-core-race",
        "extension": [ {
          "url": "ombCategory",
          "valueCoding": {
            "system": "urn:oid:2.16.840.1.113883.6.238",
            "code": "2076-8",
            "display": "Native Hawaiian or Other Pacific Islander",
            "userSelected": true
          }
        }, {
          "url": "text",
          "valueString": "Native Hawaiian or Other Pacific Islander"
        } ]
      }, {
        "url": "http://hl7.org/fhir/us/core/StructureDefinition/us-core-ethnicity",
        "extension": [ {
          "url": "ombCategory",
          "valueCoding": {
            "system": "urn:oid:2.16.840.1.113883.6.238",
            "code": "2186-5",
            "display": "Not Hispanic or Latino",
            "userSelected": true
          }
        }, {
          "url": "text",
          "valueString": "Not Hispanic or Latino"
        } ]
      }, {
        "url": "http://hl7.org/fhir/us/core/StructureDefinition/us-core-sex",
        "valueCode": "248152002"
      } ],
      "identifier": [ {
        "type": {
          "coding": [ {
            "system": "http://terminology.hl7.org/CodeSystem/v2-0203",
            "code": "MR"
          } ]
        },
        "system": "https://bonnie-fhir.healthit.gov/",
        "value": "6179e214e2011aa9929f330e"
      } ],
      "name": [ {
        "family": "DenExcl1Fail",
        "given": [ "DxExclStartsBeforeEndsDuringED" ]
      } ],
      "gender": "female",
      "birthDate": "1985-12-02"
    },
    "request": {
      "method": "PUT",
      "url": "Patient/ff9913bf-ff27-4b92-b28c-d3eda9866d2f"
    }
  }, {
    "fullUrl": "https://madie.cms.gov/Encounter/e13c72b5-ecbb-47c3-86b6-db07857a022e",
    "resource": {
      "resourceType": "Encounter",
      "id": "e13c72b5-ecbb-47c3-86b6-db07857a022e",
      "meta": {
        "profile": [ "http://hl7.org/fhir/us/qicore/StructureDefinition/qicore-encounter" ]
      },
      "status": "finished",
      "class": {
        "system": "http://terminology.hl7.org/CodeSystem/v3-ActCode",
        "code": "EMER",
        "display": "emergency",
        "userSelected": true
      },
      "type": [ {
        "coding": [ {
          "system": "http://snomed.info/sct",
          "version": "2020-09",
          "code": "4525004",
          "display": "Emergency department patient visit (procedure)",
          "userSelected": true
        } ]
      } ],
      "subject": {
        "reference": "Patient/ff9913bf-ff27-4b92-b28c-d3eda9866d2f"
      },
      "period": {
        "start": "2026-10-09T08:05:00.000+00:00",
        "end": "2026-10-10T07:15:00.000+00:00"
      },
      "reasonReference": [ {
        "reference": "Condition/e558b71c-cfef-4e0e-a30d-cfcf62ac9c04"
      } ]
    },
    "request": {
      "method": "PUT",
      "url": "Encounter/e13c72b5-ecbb-47c3-86b6-db07857a022e"
    }
  }, {
    "fullUrl": "https://madie.cms.gov/Organization/d342ed62-d1a1-47bc-98b9-c2a668ce52eb",
    "resource": {
      "resourceType": "Organization",
      "id": "d342ed62-d1a1-47bc-98b9-c2a668ce52eb",
      "meta": {
        "profile": [ "http://hl7.org/fhir/us/qicore/StructureDefinition/qicore-organization" ]
      },
      "identifier": [ {
        "use": "temp",
        "system": "urn:oid:2.16.840.1.113883.4.336",
        "value": "APayer"
      } ],
      "active": true,
      "type": [ {
        "coding": [ {
          "system": "http://terminology.hl7.org/CodeSystem/organization-type",
          "code": "pay",
          "display": "Payer"
        } ],
        "text": "Healthcare Payer"
      } ],
      "name": "Test Medical Center",
      "telecom": [ {
        "system": "phone",
        "value": "(+1) 800-123-4567"
      }, {
        "system": "email",
        "value": "mypayer@test.org"
      } ],
      "address": [ {
        "line": [ "600 Maple Avenue" ],
        "city": "Indianapolis",
        "state": "IN",
        "postalCode": "46237",
        "country": "USA"
      } ]
    },
    "request": {
      "method": "PUT",
      "url": "Organization/d342ed62-d1a1-47bc-98b9-c2a668ce52eb"
    }
  }, {
    "fullUrl": "https://madie.cms.gov/Coverage/4f606546-6e90-4d88-a238-96c4ffd2aa61",
    "resource": {
      "resourceType": "Coverage",
      "id": "4f606546-6e90-4d88-a238-96c4ffd2aa61",
      "meta": {
        "profile": [ "http://hl7.org/fhir/us/qicore/StructureDefinition/qicore-coverage" ]
      },
      "identifier": [ {
        "system": "http://benefitsinc.com/certificate",
        "value": "12345"
      } ],
      "status": "active",
      "type": {
        "coding": [ {
          "system": "https://nahdo.org/sopt",
          "code": "59",
          "display": "Other Private Insurance"
        } ]
      },
      "policyHolder": {
        "reference": "Patient/ff9913bf-ff27-4b92-b28c-d3eda9866d2f"
      },
      "subscriber": {
        "reference": "Patient/ff9913bf-ff27-4b92-b28c-d3eda9866d2f"
      },
      "beneficiary": {
        "reference": "Patient/ff9913bf-ff27-4b92-b28c-d3eda9866d2f"
      },
      "dependent": "0",
      "relationship": {
        "coding": [ {
          "system": "http://terminology.hl7.org/CodeSystem/subscriber-relationship",
          "code": "self"
        } ]
      },
      "period": {
        "start": "2023-01-01T06:00:00.000+00:00",
        "end": "2027-01-01T11:06:01.000+00:00"
      },
      "payor": [ {
        "reference": "Organization/d342ed62-d1a1-47bc-98b9-c2a668ce52eb"
      } ],
      "order": 9
    },
    "request": {
      "method": "PUT",
      "url": "Coverage/4f606546-6e90-4d88-a238-96c4ffd2aa61"
    }
  }, {
    "fullUrl": "https://madie.cms.gov/Condition/e558b71c-cfef-4e0e-a30d-cfcf62ac9c04",
    "resource": {
      "resourceType": "Condition",
      "id": "e558b71c-cfef-4e0e-a30d-cfcf62ac9c04",
      "meta": {
        "profile": [ "http://hl7.org/fhir/us/qicore/StructureDefinition/qicore-condition-problems-health-concerns" ]
      },
      "clinicalStatus": {
        "coding": [ {
          "system": "http://terminology.hl7.org/CodeSystem/condition-clinical",
          "code": "active",
          "display": "active",
          "userSelected": true
        } ]
      },
      "category": [ {
        "coding": [ {
          "system": "http://terminology.hl7.org/CodeSystem/condition-category",
          "code": "problem-list-item",
          "display": "Problem List Item",
          "userSelected": true
        } ]
      } ],
      "code": {
        "coding": [ {
          "system": "http://snomed.info/sct",
          "version": "2020-09",
          "code": "401303003",
          "display": "Acute ST segment elevation myocardial infarction (disorder)",
          "userSelected": true
        } ]
      },
      "subject": {
        "reference": "Patient/ff9913bf-ff27-4b92-b28c-d3eda9866d2f"
      },
      "onsetDateTime": "2026-10-09T08:30:00.000+00:00"
    },
    "request": {
      "method": "PUT",
      "url": "Condition/e558b71c-cfef-4e0e-a30d-cfcf62ac9c04"
    }
  }, {
    "fullUrl": "https://madie.cms.gov/Condition/22a6d4aa-8731-41a6-ab68-277b8de543fe",
    "resource": {
      "resourceType": "Condition",
      "id": "22a6d4aa-8731-41a6-ab68-277b8de543fe",
      "meta": {
        "profile": [ "http://hl7.org/fhir/us/qicore/StructureDefinition/qicore-condition-problems-health-concerns" ]
      },
      "clinicalStatus": {
        "coding": [ {
          "system": "http://terminology.hl7.org/CodeSystem/condition-clinical",
          "version": "4.0.1",
          "code": "inactive",
          "display": "Inactive",
          "userSelected": true
        } ]
      },
      "category": [ {
        "coding": [ {
          "system": "http://terminology.hl7.org/CodeSystem/condition-category",
          "code": "problem-list-item",
          "display": "Problem List Item",
          "userSelected": true
        } ]
      } ],
      "code": {
        "coding": [ {
          "system": "http://snomed.info/sct",
          "version": "2020-09",
          "code": "111633007",
          "display": "Open fracture of sacrum AND/OR coccyx with complete cauda equina lesion (disorder)",
          "userSelected": true
        } ]
      },
      "subject": {
        "reference": "Patient/ff9913bf-ff27-4b92-b28c-d3eda9866d2f"
      },
      "onsetDateTime": "2026-01-08T08:00:00.000+00:00",
      "abatementDateTime": "2026-10-09T15:15:00.000+00:00"
    },
    "request": {
      "method": "PUT",
      "url": "Condition/22a6d4aa-8731-41a6-ab68-277b8de543fe"
    }
  }, {
    "fullUrl": "https://madie.cms.gov/MeasureReport/1a842b2e-6bb3-45e0-944e-ea4e66c50131",
    "resource": {
      "resourceType": "MeasureReport",
      "id": "1a842b2e-6bb3-45e0-944e-ea4e66c50131",
      "meta": {
        "profile": [ "http://hl7.org/fhir/us/cqfmeasures/StructureDefinition/test-case-cqfm" ]
      },
      "contained": [ {
        "resourceType": "Parameters",
        "id": "cad6632f-2c86-44b4-b61a-f21d3d20f7ea-parameters",
        "parameter": [ {
          "name": "subject",
          "valueString": "ff9913bf-ff27-4b92-b28c-d3eda9866d2f"
        } ]
      } ],
      "extension": [ {
        "url": "http://hl7.org/fhir/StructureDefinition/cqf-inputParameters",
        "valueReference": {
          "reference": "#cad6632f-2c86-44b4-b61a-f21d3d20f7ea-parameters"
        }
      }, {
        "url": "http://hl7.org/fhir/us/cqfmeasures/StructureDefinition/cqfm-testCaseDescription",
        "valueMarkdown": "Patient has Neurologic Impairment (exclusion diagnosis) that starts before ED encounter and ends during ED"
      } ],
      "modifierExtension": [ {
        "url": "http://hl7.org/fhir/us/cqfmeasures/StructureDefinition/cqfm-isTestCase",
        "valueBoolean": true
      } ],
      "status": "complete",
      "type": "individual",
      "measure": "https://madie.cms.gov/Measure/CMS996FHIRAptTxforSTEMI",
      "period": {
        "start": "2026-01-01",
        "end": "2026-12-31"
      },
      "group": [ {
        "id": "Group_1",
        "population": [ {
          "id": "InitialPopulation_1",
          "code": {
            "coding": [ {
              "system": "http://terminology.hl7.org/CodeSystem/measure-population",
              "code": "initial-population",
              "display": "Initial Population"
            } ]
          },
          "count": 1
        }, {
          "id": "Denominator_1",
          "code": {
            "coding": [ {
              "system": "http://terminology.hl7.org/CodeSystem/measure-population",
              "code": "denominator",
              "display": "Denominator"
            } ]
          },
          "count": 1
        }, {
          "id": "DenominatorExclusion_1",
          "code": {
            "coding": [ {
              "system": "http://terminology.hl7.org/CodeSystem/measure-population",
              "code": "denominator-exclusion",
              "display": "Denominator Exclusion"
            } ]
          },
          "count": 0
        }, {
          "id": "Numerator_1",
          "code": {
            "coding": [ {
              "system": "http://terminology.hl7.org/CodeSystem/measure-population",
              "code": "numerator",
              "display": "Numerator"
            } ]
          },
          "count": 0
        }, {
          "id": "DenominatorException_1",
          "code": {
            "coding": [ {
              "system": "http://terminology.hl7.org/CodeSystem/measure-population",
              "code": "denominator-exception",
              "display": "Denominator Exception"
            } ]
          },
          "count": 0
        } ],
        "measureScore": {
          "value": 0.0
        }
      } ],
      "evaluatedResource": [ {
        "reference": "Patient/ff9913bf-ff27-4b92-b28c-d3eda9866d2f"
      }, {
        "reference": "Encounter/e13c72b5-ecbb-47c3-86b6-db07857a022e"
      }, {
        "reference": "Organization/d342ed62-d1a1-47bc-98b9-c2a668ce52eb"
      }, {
        "reference": "Coverage/4f606546-6e90-4d88-a238-96c4ffd2aa61"
      }, {
        "reference": "Condition/e558b71c-cfef-4e0e-a30d-cfcf62ac9c04"
      }, {
        "reference": "Condition/22a6d4aa-8731-41a6-ab68-277b8de543fe"
      } ]
    },
    "request": {
      "method": "PUT",
      "url": "MeasureReport/1a842b2e-6bb3-45e0-944e-ea4e66c50131"
    }
  } ]
}