{
  "resourceType": "Bundle",
  "id": "DENEXPass-HospiceServiceRequestDuringMP",
  "type": "transaction",
  "entry": [ {
    "fullUrl": "https://madie.cms.gov/Patient/aeb0266c-a8ec-4262-a4bc-6bc343a85230",
    "resource": {
      "resourceType": "Patient",
      "id": "aeb0266c-a8ec-4262-a4bc-6bc343a85230",
      "meta": {
        "profile": [ "http://hl7.org/fhir/us/qicore/StructureDefinition/qicore-patient" ]
      },
      "extension": [ {
        "url": "http://hl7.org/fhir/us/core/StructureDefinition/us-core-race",
        "extension": [ {
          "url": "ombCategory",
          "valueCoding": {
            "system": "urn:oid:2.16.840.1.113883.6.238",
            "code": "2028-9",
            "display": "Asian",
            "userSelected": true
          }
        }, {
          "url": "text",
          "valueString": "Asian"
        } ]
      }, {
        "url": "http://hl7.org/fhir/us/core/StructureDefinition/us-core-ethnicity",
        "extension": [ {
          "url": "ombCategory",
          "valueCoding": {
            "system": "urn:oid:2.16.840.1.113883.6.238",
            "code": "2135-2",
            "display": "Hispanic or Latino",
            "userSelected": true
          }
        }, {
          "url": "text",
          "valueString": "Hispanic or Latino"
        } ]
      } ],
      "identifier": [ {
        "type": {
          "coding": [ {
            "system": "http://terminology.hl7.org/CodeSystem/v2-0203",
            "code": "MR"
          } ]
        },
        "system": "http://hospital.smarthealthit.org",
        "value": "999999995"
      } ],
      "name": [ {
        "family": "Bertha",
        "given": [ "Betty" ]
      } ],
      "gender": "female",
      "birthDate": "2024-01-01"
    },
    "request": {
      "method": "PUT",
      "url": "Patient/aeb0266c-a8ec-4262-a4bc-6bc343a85230"
    }
  }, {
    "fullUrl": "https://madie.cms.gov/Encounter/d818f473-69cf-46ce-ad52-55a96e47f164",
    "resource": {
      "resourceType": "Encounter",
      "id": "d818f473-69cf-46ce-ad52-55a96e47f164",
      "meta": {
        "profile": [ "http://hl7.org/fhir/us/qicore/StructureDefinition/qicore-encounter" ]
      },
      "status": "finished",
      "class": {
        "system": "http://terminology.hl7.org/CodeSystem/v3-ActCode",
        "code": "AMB",
        "display": "ambulatory"
      },
      "type": [ {
        "coding": [ {
          "system": "http://snomed.info/sct",
          "code": "185317003",
          "display": "Telephone encounter (procedure)"
        } ]
      } ],
      "subject": {
        "reference": "Patient/aeb0266c-a8ec-4262-a4bc-6bc343a85230"
      },
      "period": {
        "start": "2026-01-01T01:00:00.000+00:00",
        "end": "2026-01-01T01:15:00.000+00:00"
      }
    },
    "request": {
      "method": "PUT",
      "url": "Encounter/d818f473-69cf-46ce-ad52-55a96e47f164"
    }
  }, {
    "fullUrl": "https://madie.cms.gov/ServiceRequest/06321228-5f9b-45e0-9ec8-62d4514b9f2a",
    "resource": {
      "resourceType": "ServiceRequest",
      "id": "06321228-5f9b-45e0-9ec8-62d4514b9f2a",
      "meta": {
        "profile": [ "http://hl7.org/fhir/us/qicore/StructureDefinition/qicore-servicerequest" ]
      },
      "status": "completed",
      "intent": "order",
      "category": [ {
        "coding": [ {
          "system": "http://snomed.info/sct",
          "code": "387713003",
          "display": "Surgical procedure"
        } ]
      } ],
      "priority": "routine",
      "code": {
        "coding": [ {
          "system": "http://snomed.info/sct",
          "code": "385763009",
          "display": "Hospice care (regime/therapy)"
        } ]
      },
      "subject": {
        "reference": "Patient/aeb0266c-a8ec-4262-a4bc-6bc343a85230"
      },
      "authoredOn": "2026-01-02T00:00:00.000+00:00",
      "performerType": {
        "coding": [ {
          "system": "http://snomed.info/sct",
          "code": "405279007",
          "display": "Attending physician (occupation)"
        } ]
      }
    },
    "request": {
      "method": "PUT",
      "url": "ServiceRequest/06321228-5f9b-45e0-9ec8-62d4514b9f2a"
    }
  }, {
    "fullUrl": "https://madie.cms.gov/MeasureReport/583b5775-ec4f-4c12-9e56-9e164a0d669b",
    "resource": {
      "resourceType": "MeasureReport",
      "id": "583b5775-ec4f-4c12-9e56-9e164a0d669b",
      "meta": {
        "profile": [ "http://hl7.org/fhir/us/cqfmeasures/StructureDefinition/test-case-cqfm" ]
      },
      "contained": [ {
        "resourceType": "Parameters",
        "id": "f8437e94-c77f-451a-a927-10d518199b30-parameters",
        "parameter": [ {
          "name": "subject",
          "valueString": "aeb0266c-a8ec-4262-a4bc-6bc343a85230"
        } ]
      } ],
      "extension": [ {
        "url": "http://hl7.org/fhir/StructureDefinition/cqf-inputParameters",
        "valueReference": {
          "reference": "#f8437e94-c77f-451a-a927-10d518199b30-parameters"
        }
      }, {
        "url": "http://hl7.org/fhir/us/cqfmeasures/StructureDefinition/cqfm-testCaseDescription",
        "valueMarkdown": "Patient has hospice service request during MP"
      } ],
      "modifierExtension": [ {
        "url": "http://hl7.org/fhir/us/cqfmeasures/StructureDefinition/cqfm-isTestCase",
        "valueBoolean": true
      } ],
      "status": "complete",
      "type": "individual",
      "measure": "https://madie.cms.gov/Measure/ChildhoodImmunizationStatusFHIR",
      "period": {
        "start": "2026-01-01",
        "end": "2026-12-31"
      },
      "group": [ {
        "id": "Group_1",
        "population": [ {
          "id": "InitialPopulation_1",
          "code": {
            "coding": [ {
              "system": "http://terminology.hl7.org/CodeSystem/measure-population",
              "code": "initial-population",
              "display": "Initial Population"
            } ]
          },
          "count": 1
        }, {
          "id": "Denominator_1",
          "code": {
            "coding": [ {
              "system": "http://terminology.hl7.org/CodeSystem/measure-population",
              "code": "denominator",
              "display": "Denominator"
            } ]
          },
          "count": 1
        }, {
          "id": "DenominatorExclusion_1",
          "code": {
            "coding": [ {
              "system": "http://terminology.hl7.org/CodeSystem/measure-population",
              "code": "denominator-exclusion",
              "display": "Denominator Exclusion"
            } ]
          },
          "count": 1
        }, {
          "id": "Numerator_1",
          "code": {
            "coding": [ {
              "system": "http://terminology.hl7.org/CodeSystem/measure-population",
              "code": "numerator",
              "display": "Numerator"
            } ]
          },
          "count": 0
        } ],
        "measureScore": {
          "value": 1.0
        }
      } ],
      "evaluatedResource": [ {
        "reference": "Patient/aeb0266c-a8ec-4262-a4bc-6bc343a85230"
      }, {
        "reference": "Encounter/d818f473-69cf-46ce-ad52-55a96e47f164"
      }, {
        "reference": "ServiceRequest/06321228-5f9b-45e0-9ec8-62d4514b9f2a"
      } ]
    },
    "request": {
      "method": "PUT",
      "url": "MeasureReport/583b5775-ec4f-4c12-9e56-9e164a0d669b"
    }
  }, {
    "fullUrl": "https://madie.cms.gov/MeasureReport/2aedd451-1280-44c6-be86-f5f4614c8745",
    "resource": {
      "resourceType": "MeasureReport",
      "id": "2aedd451-1280-44c6-be86-f5f4614c8745",
      "meta": {
        "profile": [ "http://hl7.org/fhir/us/cqfmeasures/StructureDefinition/test-case-cqfm" ]
      },
      "contained": [ {
        "resourceType": "Parameters",
        "id": "d682a01d-59ec-4a55-af88-3ffab546ab28-parameters",
        "parameter": [ {
          "name": "subject",
          "valueString": "aeb0266c-a8ec-4262-a4bc-6bc343a85230"
        } ]
      } ],
      "extension": [ {
        "url": "http://hl7.org/fhir/StructureDefinition/cqf-inputParameters",
        "valueReference": {
          "reference": "#d682a01d-59ec-4a55-af88-3ffab546ab28-parameters"
        }
      }, {
        "url": "http://hl7.org/fhir/us/cqfmeasures/StructureDefinition/cqfm-testCaseDescription",
        "valueMarkdown": "Patient has hospice service request during MP"
      } ],
      "modifierExtension": [ {
        "url": "http://hl7.org/fhir/us/cqfmeasures/StructureDefinition/cqfm-isTestCase",
        "valueBoolean": true
      } ],
      "status": "complete",
      "type": "individual",
      "measure": "https://madie.cms.gov/Measure/CMS117FHIRChildImmunStatus",
      "period": {
        "start": "2026-01-01",
        "end": "2026-12-31"
      },
      "group": [ {
        "id": "Group_1",
        "population": [ {
          "id": "InitialPopulation_1",
          "code": {
            "coding": [ {
              "system": "http://terminology.hl7.org/CodeSystem/measure-population",
              "code": "initial-population",
              "display": "Initial Population"
            } ]
          },
          "count": 1
        }, {
          "id": "Denominator_1",
          "code": {
            "coding": [ {
              "system": "http://terminology.hl7.org/CodeSystem/measure-population",
              "code": "denominator",
              "display": "Denominator"
            } ]
          },
          "count": 1
        }, {
          "id": "DenominatorExclusion_1",
          "code": {
            "coding": [ {
              "system": "http://terminology.hl7.org/CodeSystem/measure-population",
              "code": "denominator-exclusion",
              "display": "Denominator Exclusion"
            } ]
          },
          "count": 1
        }, {
          "id": "Numerator_1",
          "code": {
            "coding": [ {
              "system": "http://terminology.hl7.org/CodeSystem/measure-population",
              "code": "numerator",
              "display": "Numerator"
            } ]
          },
          "count": 0
        } ],
        "measureScore": {
          "value": 1.0
        }
      } ],
      "evaluatedResource": [ {
        "reference": "Patient/aeb0266c-a8ec-4262-a4bc-6bc343a85230"
      }, {
        "reference": "Encounter/d818f473-69cf-46ce-ad52-55a96e47f164"
      }, {
        "reference": "ServiceRequest/06321228-5f9b-45e0-9ec8-62d4514b9f2a"
      }, {
        "reference": "MeasureReport/583b5775-ec4f-4c12-9e56-9e164a0d669b"
      } ]
    },
    "request": {
      "method": "PUT",
      "url": "MeasureReport/2aedd451-1280-44c6-be86-f5f4614c8745"
    }
  } ]
}