{
  "resourceType": "Bundle",
  "id": "DENEXPass-HospiceObsIsYes",
  "type": "transaction",
  "entry": [ {
    "fullUrl": "https://madie.cms.gov/Patient/4b78839b-3a31-4dc7-9b6b-4e06f005c7e0",
    "resource": {
      "resourceType": "Patient",
      "id": "4b78839b-3a31-4dc7-9b6b-4e06f005c7e0",
      "meta": {
        "profile": [ "http://hl7.org/fhir/us/qicore/StructureDefinition/qicore-patient" ]
      },
      "extension": [ {
        "url": "http://hl7.org/fhir/us/core/StructureDefinition/us-core-race",
        "extension": [ {
          "url": "ombCategory",
          "valueCoding": {
            "system": "urn:oid:2.16.840.1.113883.6.238",
            "code": "2028-9",
            "display": "Asian",
            "userSelected": true
          }
        }, {
          "url": "text",
          "valueString": "Asian"
        } ]
      }, {
        "url": "http://hl7.org/fhir/us/core/StructureDefinition/us-core-ethnicity",
        "extension": [ {
          "url": "ombCategory",
          "valueCoding": {
            "system": "urn:oid:2.16.840.1.113883.6.238",
            "code": "2135-2",
            "display": "Hispanic or Latino",
            "userSelected": true
          }
        }, {
          "url": "text",
          "valueString": "Hispanic or Latino"
        } ]
      } ],
      "identifier": [ {
        "type": {
          "coding": [ {
            "system": "http://terminology.hl7.org/CodeSystem/v2-0203",
            "code": "MR"
          } ]
        },
        "system": "http://hospital.smarthealthit.org",
        "value": "999999995"
      } ],
      "name": [ {
        "family": "Bertha",
        "given": [ "Betty" ]
      } ],
      "gender": "male",
      "birthDate": "2021-01-01"
    },
    "request": {
      "method": "PUT",
      "url": "Patient/4b78839b-3a31-4dc7-9b6b-4e06f005c7e0"
    }
  }, {
    "fullUrl": "https://madie.cms.gov/Encounter/be551f44-b2bf-4892-99f0-6dd2283e477a",
    "resource": {
      "resourceType": "Encounter",
      "id": "be551f44-b2bf-4892-99f0-6dd2283e477a",
      "meta": {
        "profile": [ "http://hl7.org/fhir/us/qicore/StructureDefinition/qicore-encounter" ]
      },
      "status": "finished",
      "class": {
        "system": "http://terminology.hl7.org/CodeSystem/v3-ActCode",
        "code": "AMB",
        "display": "ambulatory"
      },
      "type": [ {
        "coding": [ {
          "system": "http://snomed.info/sct",
          "code": "185317003",
          "display": "Telephone encounter (procedure)"
        } ]
      } ],
      "subject": {
        "reference": "Patient/4b78839b-3a31-4dc7-9b6b-4e06f005c7e0"
      },
      "period": {
        "start": "2026-10-11T12:45:00.000+00:00",
        "end": "2026-10-11T12:59:00.000+00:00"
      }
    },
    "request": {
      "method": "PUT",
      "url": "Encounter/be551f44-b2bf-4892-99f0-6dd2283e477a"
    }
  }, {
    "fullUrl": "https://madie.cms.gov/Condition/7db69ae8-1f8c-431d-bb57-29a60c80da38",
    "resource": {
      "resourceType": "Condition",
      "id": "7db69ae8-1f8c-431d-bb57-29a60c80da38",
      "meta": {
        "profile": [ "http://hl7.org/fhir/us/qicore/StructureDefinition/qicore-condition-encounter-diagnosis" ]
      },
      "clinicalStatus": {
        "coding": [ {
          "system": "http://terminology.hl7.org/CodeSystem/condition-clinical",
          "code": "active"
        } ]
      },
      "category": [ {
        "coding": [ {
          "system": "http://terminology.hl7.org/CodeSystem/condition-category",
          "code": "encounter-diagnosis",
          "display": "Encounter Diagnosis"
        } ]
      } ],
      "code": {
        "coding": [ {
          "system": "http://snomed.info/sct",
          "code": "17741008",
          "display": "Acute tonsillitis (disorder)"
        } ]
      },
      "subject": {
        "reference": "Patient/4b78839b-3a31-4dc7-9b6b-4e06f005c7e0"
      },
      "onsetDateTime": "2026-10-11T12:48:00.000+00:00"
    },
    "request": {
      "method": "PUT",
      "url": "Condition/7db69ae8-1f8c-431d-bb57-29a60c80da38"
    }
  }, {
    "fullUrl": "https://madie.cms.gov/MedicationRequest/6bbd6e36-879f-4a3f-abdc-0aa80fc68d59",
    "resource": {
      "resourceType": "MedicationRequest",
      "id": "6bbd6e36-879f-4a3f-abdc-0aa80fc68d59",
      "meta": {
        "profile": [ "http://hl7.org/fhir/us/qicore/StructureDefinition/qicore-medicationrequest" ]
      },
      "status": "completed",
      "intent": "order",
      "category": [ {
        "coding": [ {
          "system": "http://terminology.hl7.org/CodeSystem/medicationrequest-category",
          "code": "discharge",
          "display": "Discharge"
        } ]
      } ],
      "medicationCodeableConcept": {
        "coding": [ {
          "system": "http://www.nlm.nih.gov/research/umls/rxnorm",
          "code": "141963",
          "display": "azithromycin 40 MG/ML Oral Suspension",
          "userSelected": true
        } ]
      },
      "subject": {
        "reference": "Patient/4b78839b-3a31-4dc7-9b6b-4e06f005c7e0"
      },
      "authoredOn": "2026-10-12T00:00:00.000+00:00",
      "requester": {
        "reference": "Practitioner/example"
      },
      "dosageInstruction": [ {
        "timing": {
          "repeat": {
            "boundsPeriod": {
              "start": "2026-10-12T00:00:00.000+00:00",
              "end": "2026-10-20T00:00:00.000+00:00"
            }
          }
        }
      } ]
    },
    "request": {
      "method": "PUT",
      "url": "MedicationRequest/6bbd6e36-879f-4a3f-abdc-0aa80fc68d59"
    }
  }, {
    "fullUrl": "https://madie.cms.gov/Observation/3e34d500-a110-425c-a9ce-cf6a1cdb6e74",
    "resource": {
      "resourceType": "Observation",
      "id": "3e34d500-a110-425c-a9ce-cf6a1cdb6e74",
      "meta": {
        "profile": [ "http://hl7.org/fhir/us/qicore/StructureDefinition/qicore-observation-screening-assessment" ]
      },
      "status": "final",
      "category": [ {
        "coding": [ {
          "system": "http://terminology.hl7.org/CodeSystem/observation-category",
          "code": "survey"
        } ]
      } ],
      "code": {
        "coding": [ {
          "system": "http://loinc.org",
          "code": "45755-6",
          "display": "Hospice care [Minimum Data Set]"
        } ]
      },
      "subject": {
        "reference": "Patient/4b78839b-3a31-4dc7-9b6b-4e06f005c7e0"
      },
      "effectivePeriod": {
        "start": "2025-12-31T00:00:00.000+00:00",
        "end": "2026-01-01T00:00:00.000+00:00"
      },
      "valueCodeableConcept": {
        "coding": [ {
          "system": "http://snomed.info/sct",
          "code": "373066001",
          "display": "Yes (qualifier value)"
        } ]
      }
    },
    "request": {
      "method": "PUT",
      "url": "Observation/3e34d500-a110-425c-a9ce-cf6a1cdb6e74"
    }
  }, {
    "fullUrl": "https://madie.cms.gov/MeasureReport/1d6ef741-100c-4563-9ccd-9691fae93ce0",
    "resource": {
      "resourceType": "MeasureReport",
      "id": "1d6ef741-100c-4563-9ccd-9691fae93ce0",
      "meta": {
        "profile": [ "http://hl7.org/fhir/us/cqfmeasures/StructureDefinition/test-case-cqfm" ]
      },
      "contained": [ {
        "resourceType": "Parameters",
        "id": "37e3322a-c8b3-4d90-aeb8-105c23c04e92-parameters",
        "parameter": [ {
          "name": "subject",
          "valueString": "4b78839b-3a31-4dc7-9b6b-4e06f005c7e0"
        } ]
      } ],
      "extension": [ {
        "url": "http://hl7.org/fhir/StructureDefinition/cqf-inputParameters",
        "valueReference": {
          "reference": "#37e3322a-c8b3-4d90-aeb8-105c23c04e92-parameters"
        }
      }, {
        "url": "http://hl7.org/fhir/us/cqfmeasures/StructureDefinition/cqfm-testCaseDescription",
        "valueMarkdown": "Hospice observation is yes"
      } ],
      "modifierExtension": [ {
        "url": "http://hl7.org/fhir/us/cqfmeasures/StructureDefinition/cqfm-isTestCase",
        "valueBoolean": true
      } ],
      "status": "complete",
      "type": "individual",
      "measure": "https://madie.cms.gov/Measure/CMS146FHIRApproTestPharyngitis",
      "period": {
        "start": "2026-01-01",
        "end": "2026-12-31"
      },
      "group": [ {
        "id": "Group_1",
        "population": [ {
          "id": "InitialPopulation_1",
          "code": {
            "coding": [ {
              "system": "http://terminology.hl7.org/CodeSystem/measure-population",
              "code": "initial-population",
              "display": "Initial Population"
            } ]
          },
          "count": 1
        }, {
          "id": "Denominator_1",
          "code": {
            "coding": [ {
              "system": "http://terminology.hl7.org/CodeSystem/measure-population",
              "code": "denominator",
              "display": "Denominator"
            } ]
          },
          "count": 1
        }, {
          "id": "DenominatorExclusion_1",
          "code": {
            "coding": [ {
              "system": "http://terminology.hl7.org/CodeSystem/measure-population",
              "code": "denominator-exclusion",
              "display": "Denominator Exclusion"
            } ]
          },
          "count": 1
        }, {
          "id": "Numerator_1",
          "code": {
            "coding": [ {
              "system": "http://terminology.hl7.org/CodeSystem/measure-population",
              "code": "numerator",
              "display": "Numerator"
            } ]
          },
          "count": 0
        } ],
        "measureScore": {
          "value": 0.0
        },
        "stratifier": [ {
          "id": "Stratification_1_1",
          "code": [ {
            "text": "Strata-1"
          } ],
          "stratum": [ {
            "value": {
              "text": "Strata-1"
            },
            "population": [ {
              "id": "InitialPopulation_1",
              "code": {
                "coding": [ {
                  "system": "http://terminology.hl7.org/CodeSystem/measure-population",
                  "code": "initial-population",
                  "display": "Initial Population"
                } ]
              },
              "count": 1
            } ]
          } ]
        }, {
          "id": "Stratification_1_2",
          "code": [ {
            "text": "Strata-2"
          } ],
          "stratum": [ {
            "value": {
              "text": "Strata-2"
            },
            "population": [ {
              "id": "InitialPopulation_1",
              "code": {
                "coding": [ {
                  "system": "http://terminology.hl7.org/CodeSystem/measure-population",
                  "code": "initial-population",
                  "display": "Initial Population"
                } ]
              },
              "count": 1
            } ]
          } ]
        }, {
          "id": "Stratification_1_3",
          "code": [ {
            "text": "Strata-3"
          } ],
          "stratum": [ {
            "value": {
              "text": "Strata-3"
            },
            "population": [ {
              "id": "InitialPopulation_1",
              "code": {
                "coding": [ {
                  "system": "http://terminology.hl7.org/CodeSystem/measure-population",
                  "code": "initial-population",
                  "display": "Initial Population"
                } ]
              },
              "count": 1
            } ]
          } ]
        } ]
      } ],
      "evaluatedResource": [ {
        "reference": "Patient/4b78839b-3a31-4dc7-9b6b-4e06f005c7e0"
      }, {
        "reference": "Encounter/be551f44-b2bf-4892-99f0-6dd2283e477a"
      }, {
        "reference": "Condition/7db69ae8-1f8c-431d-bb57-29a60c80da38"
      }, {
        "reference": "MedicationRequest/6bbd6e36-879f-4a3f-abdc-0aa80fc68d59"
      }, {
        "reference": "Observation/3e34d500-a110-425c-a9ce-cf6a1cdb6e74"
      } ]
    },
    "request": {
      "method": "PUT",
      "url": "MeasureReport/1d6ef741-100c-4563-9ccd-9691fae93ce0"
    }
  } ]
}