{
  "resourceType": "Bundle",
  "id": "63ec096accb3770120fe9fa2",
  "type": "transaction",
  "entry": [ {
    "fullUrl": "https://madie.cms.gov/Patient/6f22a06f-7186-4db1-9310-4f907dc49ff3",
    "resource": {
      "resourceType": "Patient",
      "id": "6f22a06f-7186-4db1-9310-4f907dc49ff3",
      "meta": {
        "profile": [ "http://hl7.org/fhir/us/qicore/StructureDefinition/qicore-patient" ]
      },
      "text": {
        "status": "generated",
        "div": "<div xmlns=\"http://www.w3.org/1999/xhtml\"><div class=\"hapiHeaderText\">LT24beforeAndLT2after <b>WBCPASS </b></div><table class=\"hapiPropertyTable\"><tbody><tr><td>Identifier</td><td>02a3c13b70ccf5a73b893e80582952bdd83e9cabbf053902bb5eb341874dc5ec</td></tr><tr><td>Date of birth</td><td><span>15 June 1956</span></td></tr></tbody></table></div>"
      },
      "extension": [ {
        "url": "http://hl7.org/fhir/us/core/StructureDefinition/us-core-race",
        "extension": [ {
          "url": "ombCategory",
          "valueCoding": {
            "system": "urn:oid:2.16.840.1.113883.6.238",
            "code": "1002-5",
            "display": "American Indian or Alaska Native",
            "userSelected": true
          }
        }, {
          "url": "text",
          "valueString": "American Indian or Alaska Native"
        } ]
      }, {
        "url": "http://hl7.org/fhir/us/core/StructureDefinition/us-core-ethnicity",
        "extension": [ {
          "url": "ombCategory",
          "valueCoding": {
            "system": "urn:oid:2.16.840.1.113883.6.238",
            "code": "2186-5",
            "display": "Not Hispanic or Latino",
            "userSelected": true
          }
        }, {
          "url": "text",
          "valueString": "Not Hispanic or Latino"
        } ]
      }, {
        "url": "http://hl7.org/fhir/us/core/StructureDefinition/us-core-sex",
        "valueCode": "248153007"
      } ],
      "identifier": [ {
        "type": {
          "coding": [ {
            "system": "http://terminology.hl7.org/CodeSystem/v2-0203",
            "code": "MR"
          } ]
        },
        "system": "https://bonnie-fhir.healthit.gov/",
        "value": "63ec096accb3770120fe9fa2"
      } ],
      "active": true,
      "name": [ {
        "use": "usual",
        "family": "WhiteBloodCellFail",
        "given": [ "1MinBeforeAnd1MinAfterEndOfInpatient" ]
      } ],
      "gender": "male",
      "birthDate": "1962-06-28"
    },
    "request": {
      "method": "PUT",
      "url": "Patient/6f22a06f-7186-4db1-9310-4f907dc49ff3"
    }
  }, {
    "fullUrl": "https://madie.cms.gov/Encounter/1c7f1e8e-0708-4db0-bd87-a7c3a94a7573",
    "resource": {
      "resourceType": "Encounter",
      "id": "1c7f1e8e-0708-4db0-bd87-a7c3a94a7573",
      "meta": {
        "profile": [ "http://hl7.org/fhir/us/qicore/StructureDefinition/qicore-encounter" ]
      },
      "status": "finished",
      "class": {
        "system": "http://terminology.hl7.org/CodeSystem/v3-ActCode",
        "code": "IMP",
        "display": "inpatient encounter",
        "userSelected": true
      },
      "type": [ {
        "coding": [ {
          "system": "http://snomed.info/sct",
          "code": "183452005"
        } ]
      } ],
      "subject": {
        "reference": "Patient/6f22a06f-7186-4db1-9310-4f907dc49ff3"
      },
      "period": {
        "start": "2027-06-28T08:00:00.000+00:00",
        "end": "2027-06-30T23:58:00.000+00:00"
      },
      "length": {
        "value": 2,
        "unit": "days"
      }
    },
    "request": {
      "method": "PUT",
      "url": "Encounter/1c7f1e8e-0708-4db0-bd87-a7c3a94a7573"
    }
  }, {
    "fullUrl": "https://madie.cms.gov/Coverage/a0956e39-698b-448b-a26a-51384a9dffa0",
    "resource": {
      "resourceType": "Coverage",
      "id": "a0956e39-698b-448b-a26a-51384a9dffa0",
      "meta": {
        "profile": [ "http://hl7.org/fhir/us/qicore/StructureDefinition/qicore-coverage" ]
      },
      "status": "active",
      "type": {
        "coding": [ {
          "system": "https://nahdo.org/sopt",
          "version": "1.0.1",
          "code": "1",
          "display": "MEDICARE",
          "userSelected": true
        } ]
      },
      "subscriberId": "AB9876",
      "beneficiary": {
        "reference": "Patient/6f22a06f-7186-4db1-9310-4f907dc49ff3"
      },
      "relationship": {
        "coding": [ {
          "system": "http://terminology.hl7.org/CodeSystem/subscriber-relationship",
          "code": "self"
        } ]
      },
      "payor": [ {
        "reference": "Organization/ad8b845a-0c4f-4ed1-8e20-1a91351cc5b9"
      } ]
    },
    "request": {
      "method": "PUT",
      "url": "Coverage/a0956e39-698b-448b-a26a-51384a9dffa0"
    }
  }, {
    "fullUrl": "https://madie.cms.gov/Observation/e2b848b1-67c8-4e44-be9d-bde53966c998",
    "resource": {
      "resourceType": "Observation",
      "id": "e2b848b1-67c8-4e44-be9d-bde53966c998",
      "meta": {
        "profile": [ "http://hl7.org/fhir/us/qicore/StructureDefinition/qicore-observation-lab" ]
      },
      "status": "amended",
      "category": [ {
        "coding": [ {
          "system": "http://terminology.hl7.org/CodeSystem/observation-category",
          "code": "laboratory",
          "display": "Laboratory",
          "userSelected": true
        } ]
      } ],
      "code": {
        "coding": [ {
          "system": "http://loinc.org",
          "version": "2.72",
          "code": "26464-8",
          "display": "Leukocytes [#/volume] in Blood"
        } ]
      },
      "subject": {
        "reference": "Patient/6f22a06f-7186-4db1-9310-4f907dc49ff3"
      },
      "effectiveDateTime": "2027-06-28T07:59:00.000+00:00",
      "issued": "2027-06-28T07:59:00.000+00:00",
      "performer": [ {
        "reference": "Organization/Organization-1"
      } ],
      "valueQuantity": {
        "value": 4500,
        "unit": "uL",
        "system": "http://unitsofmeasure.org",
        "code": "uL"
      }
    },
    "request": {
      "method": "PUT",
      "url": "Observation/e2b848b1-67c8-4e44-be9d-bde53966c998"
    }
  }, {
    "fullUrl": "https://madie.cms.gov/Observation/72545aa0-5c6a-42f8-a62a-ddbebf6f84f1",
    "resource": {
      "resourceType": "Observation",
      "id": "72545aa0-5c6a-42f8-a62a-ddbebf6f84f1",
      "meta": {
        "profile": [ "http://hl7.org/fhir/us/qicore/StructureDefinition/qicore-observation-lab" ]
      },
      "status": "final",
      "category": [ {
        "coding": [ {
          "system": "http://terminology.hl7.org/CodeSystem/observation-category",
          "code": "laboratory",
          "display": "Laboratory",
          "userSelected": true
        } ]
      } ],
      "code": {
        "coding": [ {
          "system": "http://loinc.org",
          "version": "2.72",
          "code": "26464-8",
          "display": "Leukocytes [#/volume] in Blood"
        } ]
      },
      "subject": {
        "reference": "Patient/6f22a06f-7186-4db1-9310-4f907dc49ff3"
      },
      "effectiveDateTime": "2027-06-30T23:59:00.000+00:00",
      "issued": "2027-06-30T23:59:00.000+00:00",
      "performer": [ {
        "reference": "Organization/Organization-1"
      } ],
      "valueQuantity": {
        "value": 5000,
        "unit": "uL",
        "system": "http://unitsofmeasure.org",
        "code": "uL"
      }
    },
    "request": {
      "method": "PUT",
      "url": "Observation/72545aa0-5c6a-42f8-a62a-ddbebf6f84f1"
    }
  }, {
    "fullUrl": "https://madie.cms.gov/Organization/ad8b845a-0c4f-4ed1-8e20-1a91351cc5b9",
    "resource": {
      "resourceType": "Organization",
      "id": "ad8b845a-0c4f-4ed1-8e20-1a91351cc5b9",
      "meta": {
        "profile": [ "http://hl7.org/fhir/us/qicore/StructureDefinition/qicore-organization" ]
      },
      "identifier": [ {
        "use": "temp",
        "system": "urn:oid:2.16.840.1.113883.4.4",
        "value": "21-3259825"
      } ],
      "active": true,
      "type": [ {
        "coding": [ {
          "system": "http://terminology.hl7.org/CodeSystem/organization-type",
          "code": "pay",
          "display": "Payer"
        } ]
      } ],
      "name": "Blue Cross Blue Shield of Texas",
      "telecom": [ {
        "system": "phone",
        "value": "(+1) 972-766-6900"
      } ],
      "address": [ {
        "use": "billing",
        "type": "postal",
        "line": [ "P.O. Box 660044" ],
        "city": "Dallas",
        "state": "TX",
        "postalCode": "75266-0044",
        "country": "USA"
      } ]
    },
    "request": {
      "method": "PUT",
      "url": "Organization/ad8b845a-0c4f-4ed1-8e20-1a91351cc5b9"
    }
  }, {
    "fullUrl": "https://madie.cms.gov/Practitioner/bb63bc92-7260-4870-aedd-dbdfc33538a5",
    "resource": {
      "resourceType": "Practitioner",
      "id": "bb63bc92-7260-4870-aedd-dbdfc33538a5",
      "meta": {
        "profile": [ "http://hl7.org/fhir/us/qicore/StructureDefinition/qicore-practitioner" ]
      },
      "identifier": [ {
        "system": "http://hl7.org/fhir/sid/us-npi",
        "value": "0723660813"
      } ],
      "name": [ {
        "family": "Evil",
        "prefix": [ "Dr" ]
      } ]
    },
    "request": {
      "method": "PUT",
      "url": "Practitioner/bb63bc92-7260-4870-aedd-dbdfc33538a5"
    }
  }, {
    "fullUrl": "https://madie.cms.gov/MeasureReport/a02a261f-1274-4f8b-b1f3-5496f7885cbe",
    "resource": {
      "resourceType": "MeasureReport",
      "id": "a02a261f-1274-4f8b-b1f3-5496f7885cbe",
      "meta": {
        "profile": [ "http://hl7.org/fhir/us/cqfmeasures/StructureDefinition/test-case-cqfm" ]
      },
      "contained": [ {
        "resourceType": "Parameters",
        "id": "3f2fecf9-2c6f-4c8e-b86c-b364fb53e195-parameters",
        "parameter": [ {
          "name": "subject",
          "valueString": "6f22a06f-7186-4db1-9310-4f907dc49ff3"
        } ]
      } ],
      "extension": [ {
        "url": "http://hl7.org/fhir/StructureDefinition/cqf-inputParameters",
        "valueReference": {
          "reference": "#3f2fecf9-2c6f-4c8e-b86c-b364fb53e195-parameters"
        }
      }, {
        "url": "http://hl7.org/fhir/us/cqfmeasures/StructureDefinition/cqfm-testCaseDescription",
        "valueMarkdown": "Enc ends last day of MP (6/30), turned 65 day admitted, has Medicare, first lab 1 min before enc., and second 1 min after end of admit- neither meet the timeframe. "
      } ],
      "modifierExtension": [ {
        "url": "http://hl7.org/fhir/us/cqfmeasures/StructureDefinition/cqfm-isTestCase",
        "valueBoolean": true
      } ],
      "status": "complete",
      "type": "individual",
      "measure": "https://madie.cms.gov/Measure/CMSFHIR844HybridHospitalWideMortality",
      "period": {
        "start": "2026-07-01",
        "end": "2027-06-30"
      },
      "group": [ {
        "id": "Group_1",
        "population": [ {
          "id": "InitialPopulation_1",
          "code": {
            "coding": [ {
              "system": "http://terminology.hl7.org/CodeSystem/measure-population",
              "code": "initial-population",
              "display": "Initial Population"
            } ]
          },
          "count": 1
        } ],
        "measureScore": {
          "value": 0.0
        }
      } ],
      "evaluatedResource": [ {
        "reference": "Patient/6f22a06f-7186-4db1-9310-4f907dc49ff3"
      }, {
        "reference": "Encounter/1c7f1e8e-0708-4db0-bd87-a7c3a94a7573"
      }, {
        "reference": "Coverage/a0956e39-698b-448b-a26a-51384a9dffa0"
      }, {
        "reference": "Observation/e2b848b1-67c8-4e44-be9d-bde53966c998"
      }, {
        "reference": "Observation/72545aa0-5c6a-42f8-a62a-ddbebf6f84f1"
      }, {
        "reference": "Organization/ad8b845a-0c4f-4ed1-8e20-1a91351cc5b9"
      }, {
        "reference": "Practitioner/bb63bc92-7260-4870-aedd-dbdfc33538a5"
      } ]
    },
    "request": {
      "method": "PUT",
      "url": "MeasureReport/a02a261f-1274-4f8b-b1f3-5496f7885cbe"
    }
  } ]
}