{
  "resourceType": "Bundle",
  "id": "612e6ad802c62a011f2eb6db",
  "type": "transaction",
  "entry": [ {
    "fullUrl": "https://madie.cms.gov/Patient/6ce8d015-efcf-4c8e-a715-cc7c460e3ba8",
    "resource": {
      "resourceType": "Patient",
      "id": "6ce8d015-efcf-4c8e-a715-cc7c460e3ba8",
      "meta": {
        "profile": [ "http://hl7.org/fhir/us/qicore/StructureDefinition/qicore-patient" ]
      },
      "text": {
        "status": "generated",
        "div": "<div xmlns=\"http://www.w3.org/1999/xhtml\"><div class=\"hapiHeaderText\">MA_Glyco_1DayAFIPEnc <b>NUMERPASS </b></div><table class=\"hapiPropertyTable\"><tbody><tr><td>Identifier</td><td>c2e8bf5527b837484be3c34ba714a74a</td></tr><tr><td>Date of birth</td><td><span>02 January 1974</span></td></tr></tbody></table></div>"
      },
      "extension": [ {
        "url": "http://hl7.org/fhir/us/core/StructureDefinition/us-core-race",
        "extension": [ {
          "url": "ombCategory",
          "valueCoding": {
            "system": "urn:oid:2.16.840.1.113883.6.238",
            "code": "1002-5",
            "display": "American Indian or Alaska Native",
            "userSelected": true
          }
        }, {
          "url": "text",
          "valueString": "American Indian or Alaska Native"
        } ]
      }, {
        "url": "http://hl7.org/fhir/us/core/StructureDefinition/us-core-ethnicity",
        "extension": [ {
          "url": "ombCategory",
          "valueCoding": {
            "system": "urn:oid:2.16.840.1.113883.6.238",
            "code": "2135-2",
            "display": "Hispanic or Latino",
            "userSelected": true
          }
        }, {
          "url": "text",
          "valueString": "Hispanic or Latino"
        } ]
      } ],
      "identifier": [ {
        "type": {
          "coding": [ {
            "system": "http://terminology.hl7.org/CodeSystem/v2-0203",
            "code": "MR"
          } ]
        },
        "system": "https://bonnie-fhir.healthit.gov/",
        "value": "612e6ad802c62a011f2eb6db"
      } ],
      "active": true,
      "name": [ {
        "use": "usual",
        "family": "NUMERPass",
        "given": [ "MAGlyco1DayAFIPEnc" ]
      } ],
      "gender": "male",
      "birthDate": "1975-01-02"
    },
    "request": {
      "method": "PUT",
      "url": "Patient/6ce8d015-efcf-4c8e-a715-cc7c460e3ba8"
    }
  }, {
    "fullUrl": "https://madie.cms.gov/Encounter/34dfe47d-dda8-4cde-9f23-4ebc244b012f",
    "resource": {
      "resourceType": "Encounter",
      "id": "34dfe47d-dda8-4cde-9f23-4ebc244b012f",
      "meta": {
        "profile": [ "http://hl7.org/fhir/us/qicore/StructureDefinition/qicore-encounter" ]
      },
      "status": "finished",
      "class": {
        "system": "http://terminology.hl7.org/CodeSystem/v3-ActCode",
        "code": "IMP",
        "display": "inpatient encounter"
      },
      "type": [ {
        "coding": [ {
          "system": "http://snomed.info/sct",
          "code": "8715000"
        } ]
      } ],
      "subject": {
        "reference": "Patient/6ce8d015-efcf-4c8e-a715-cc7c460e3ba8"
      },
      "period": {
        "start": "2026-11-01T08:00:00.000+00:00",
        "end": "2026-11-26T08:15:00.000+00:00"
      },
      "length": {
        "value": 25,
        "unit": "days"
      }
    },
    "request": {
      "method": "PUT",
      "url": "Encounter/34dfe47d-dda8-4cde-9f23-4ebc244b012f"
    }
  }, {
    "fullUrl": "https://madie.cms.gov/Coverage/a755c339-1116-4c45-b68f-933c0da25cb7",
    "resource": {
      "resourceType": "Coverage",
      "id": "a755c339-1116-4c45-b68f-933c0da25cb7",
      "status": "active",
      "beneficiary": {
        "reference": "Patient/6ce8d015-efcf-4c8e-a715-cc7c460e3ba8"
      },
      "period": {
        "start": "1975-01-02T08:00:00.000+00:00"
      },
      "payor": [ {
        "reference": "Organization/be18c9d3-89e3-4746-83e8-0ae34d011504"
      } ]
    },
    "request": {
      "method": "PUT",
      "url": "Coverage/a755c339-1116-4c45-b68f-933c0da25cb7"
    }
  }, {
    "fullUrl": "https://madie.cms.gov/MedicationAdministration/32202120-5d1e-488b-8af2-425dea560608",
    "resource": {
      "resourceType": "MedicationAdministration",
      "id": "32202120-5d1e-488b-8af2-425dea560608",
      "meta": {
        "profile": [ "http://hl7.org/fhir/us/qicore/StructureDefinition/qicore-medicationadministration" ]
      },
      "status": "completed",
      "medicationCodeableConcept": {
        "coding": [ {
          "system": "http://www.nlm.nih.gov/research/umls/rxnorm",
          "code": "200349"
        } ]
      },
      "subject": {
        "reference": "Patient/6ce8d015-efcf-4c8e-a715-cc7c460e3ba8"
      },
      "effectivePeriod": {
        "start": "2026-11-02T09:00:00.000+00:00",
        "end": "2026-11-02T09:10:00.000+00:00"
      }
    },
    "request": {
      "method": "PUT",
      "url": "MedicationAdministration/32202120-5d1e-488b-8af2-425dea560608"
    }
  }, {
    "fullUrl": "https://madie.cms.gov/Organization/be18c9d3-89e3-4746-83e8-0ae34d011504",
    "resource": {
      "resourceType": "Organization",
      "id": "be18c9d3-89e3-4746-83e8-0ae34d011504",
      "meta": {
        "profile": [ "http://hl7.org/fhir/us/qicore/StructureDefinition/qicore-organization" ]
      },
      "identifier": [ {
        "use": "temp",
        "system": "urn:oid:2.16.840.1.113883.4.4",
        "value": "21-3259825"
      } ],
      "active": true,
      "type": [ {
        "coding": [ {
          "system": "http://terminology.hl7.org/CodeSystem/organization-type",
          "code": "pay",
          "display": "Payer"
        } ]
      } ],
      "name": "Blue Cross Blue Shield of Texas",
      "telecom": [ {
        "system": "phone",
        "value": "(+1) 972-766-6900"
      } ],
      "address": [ {
        "use": "billing",
        "type": "postal",
        "line": [ "P.O. Box 660044" ],
        "city": "Dallas",
        "state": "TX",
        "postalCode": "75266-0044",
        "country": "USA"
      } ]
    },
    "request": {
      "method": "PUT",
      "url": "Organization/be18c9d3-89e3-4746-83e8-0ae34d011504"
    }
  }, {
    "fullUrl": "https://madie.cms.gov/Practitioner/f4d36e61-5353-4f3c-85b3-5339382198f3",
    "resource": {
      "resourceType": "Practitioner",
      "id": "f4d36e61-5353-4f3c-85b3-5339382198f3",
      "identifier": [ {
        "system": "http://hl7.org/fhir/sid/us-npi",
        "value": "123456"
      } ],
      "name": [ {
        "family": "Evil",
        "prefix": [ "Dr" ]
      } ]
    },
    "request": {
      "method": "PUT",
      "url": "Practitioner/f4d36e61-5353-4f3c-85b3-5339382198f3"
    }
  }, {
    "fullUrl": "https://madie.cms.gov/MeasureReport/07494d83-7dec-4e9a-9345-89ddd983c15a",
    "resource": {
      "resourceType": "MeasureReport",
      "id": "07494d83-7dec-4e9a-9345-89ddd983c15a",
      "meta": {
        "profile": [ "http://hl7.org/fhir/us/cqfmeasures/StructureDefinition/test-case-cqfm" ]
      },
      "contained": [ {
        "resourceType": "Parameters",
        "id": "2a775241-4bcc-4ad3-b6da-99215b369ca4-parameters",
        "parameter": [ {
          "name": "subject",
          "valueString": "6ce8d015-efcf-4c8e-a715-cc7c460e3ba8"
        } ]
      } ],
      "extension": [ {
        "url": "http://hl7.org/fhir/StructureDefinition/cqf-inputParameters",
        "valueReference": {
          "reference": "#2a775241-4bcc-4ad3-b6da-99215b369ca4-parameters"
        }
      }, {
        "url": "http://hl7.org/fhir/us/cqfmeasures/StructureDefinition/cqfm-testCaseDescription",
        "valueMarkdown": "glycoprotein IIb/IIIa inhibitor = 1 day after start of IP encounter\n"
      } ],
      "modifierExtension": [ {
        "url": "http://hl7.org/fhir/us/cqfmeasures/StructureDefinition/cqfm-isTestCase",
        "valueBoolean": true
      } ],
      "status": "complete",
      "type": "individual",
      "measure": "https://madie.cms.gov/Measure/CMS108FHIRVTEProphylaxis",
      "period": {
        "start": "2026-01-01",
        "end": "2026-12-31"
      },
      "group": [ {
        "id": "Group_1",
        "population": [ {
          "id": "InitialPopulation_1",
          "code": {
            "coding": [ {
              "system": "http://terminology.hl7.org/CodeSystem/measure-population",
              "code": "initial-population",
              "display": "Initial Population"
            } ]
          },
          "count": 1
        }, {
          "id": "Denominator_1",
          "code": {
            "coding": [ {
              "system": "http://terminology.hl7.org/CodeSystem/measure-population",
              "code": "denominator",
              "display": "Denominator"
            } ]
          },
          "count": 1
        }, {
          "id": "DenominatorExclusion_1",
          "code": {
            "coding": [ {
              "system": "http://terminology.hl7.org/CodeSystem/measure-population",
              "code": "denominator-exclusion",
              "display": "Denominator Exclusion"
            } ]
          },
          "count": 0
        }, {
          "id": "Numerator_1",
          "code": {
            "coding": [ {
              "system": "http://terminology.hl7.org/CodeSystem/measure-population",
              "code": "numerator",
              "display": "Numerator"
            } ]
          },
          "count": 1
        } ],
        "measureScore": {
          "value": 0.0
        }
      } ],
      "evaluatedResource": [ {
        "reference": "Patient/6ce8d015-efcf-4c8e-a715-cc7c460e3ba8"
      }, {
        "reference": "Encounter/34dfe47d-dda8-4cde-9f23-4ebc244b012f"
      }, {
        "reference": "Coverage/a755c339-1116-4c45-b68f-933c0da25cb7"
      }, {
        "reference": "MedicationAdministration/32202120-5d1e-488b-8af2-425dea560608"
      }, {
        "reference": "Organization/be18c9d3-89e3-4746-83e8-0ae34d011504"
      }, {
        "reference": "Practitioner/f4d36e61-5353-4f3c-85b3-5339382198f3"
      } ]
    },
    "request": {
      "method": "PUT",
      "url": "MeasureReport/07494d83-7dec-4e9a-9345-89ddd983c15a"
    }
  } ]
}