{
  "resourceType": "Bundle",
  "id": "612e6eb702c62a011f2ef567",
  "type": "transaction",
  "entry": [ {
    "fullUrl": "https://madie.cms.gov/Patient/298f3f92-5047-46fc-ad92-9f27887ffc55",
    "resource": {
      "resourceType": "Patient",
      "id": "298f3f92-5047-46fc-ad92-9f27887ffc55",
      "meta": {
        "profile": [ "http://hl7.org/fhir/us/qicore/StructureDefinition/qicore-patient" ]
      },
      "text": {
        "status": "generated",
        "div": "<div xmlns=\"http://www.w3.org/1999/xhtml\"><div class=\"hapiHeaderText\">MALDUH1DayAfterICU <b>NUMERPASS </b></div><table class=\"hapiPropertyTable\"><tbody><tr><td>Identifier</td><td>4a57e8e4a87323501c4bde2e71e8e471</td></tr><tr><td>Date of birth</td><td><span>03 March 1974</span></td></tr></tbody></table></div>"
      },
      "extension": [ {
        "url": "http://hl7.org/fhir/us/core/StructureDefinition/us-core-race",
        "extension": [ {
          "url": "ombCategory",
          "valueCoding": {
            "system": "urn:oid:2.16.840.1.113883.6.238",
            "code": "1002-5",
            "display": "American Indian or Alaska Native",
            "userSelected": true
          }
        }, {
          "url": "text",
          "valueString": "American Indian or Alaska Native"
        } ]
      }, {
        "url": "http://hl7.org/fhir/us/core/StructureDefinition/us-core-ethnicity",
        "extension": [ {
          "url": "ombCategory",
          "valueCoding": {
            "system": "urn:oid:2.16.840.1.113883.6.238",
            "code": "2135-2",
            "display": "Hispanic or Latino",
            "userSelected": true
          }
        }, {
          "url": "text",
          "valueString": "Hispanic or Latino"
        } ]
      } ],
      "identifier": [ {
        "type": {
          "coding": [ {
            "system": "http://terminology.hl7.org/CodeSystem/v2-0203",
            "code": "MR"
          } ]
        },
        "system": "https://bonnie-fhir.healthit.gov/",
        "value": "612e6eb702c62a011f2ef567"
      } ],
      "active": true,
      "name": [ {
        "use": "usual",
        "family": "NUMERPass",
        "given": [ "MALDUH1DayAfterICU" ]
      } ],
      "gender": "female",
      "birthDate": "1975-03-03"
    },
    "request": {
      "method": "PUT",
      "url": "Patient/298f3f92-5047-46fc-ad92-9f27887ffc55"
    }
  }, {
    "fullUrl": "https://madie.cms.gov/Encounter/87be3277-99c8-439c-b133-1d4027b9e273",
    "resource": {
      "resourceType": "Encounter",
      "id": "87be3277-99c8-439c-b133-1d4027b9e273",
      "meta": {
        "profile": [ "http://hl7.org/fhir/us/qicore/StructureDefinition/qicore-encounter" ]
      },
      "status": "finished",
      "class": {
        "system": "http://terminology.hl7.org/CodeSystem/v3-ActCode",
        "code": "IMP",
        "display": "inpatient encounter"
      },
      "type": [ {
        "coding": [ {
          "system": "http://snomed.info/sct",
          "code": "8715000"
        } ]
      } ],
      "subject": {
        "reference": "Patient/298f3f92-5047-46fc-ad92-9f27887ffc55"
      },
      "period": {
        "start": "2026-12-01T00:00:00.000+00:00",
        "end": "2026-12-31T23:59:00.000+00:00"
      },
      "length": {
        "value": 30,
        "unit": "days"
      },
      "location": [ {
        "location": {
          "reference": "Location/a1a1a1ca-7fa9-4aff-85cf-5ab5c0dedd4d"
        },
        "period": {
          "start": "2026-12-01T09:00:00.000+00:00",
          "end": "2026-12-10T08:15:00.000+00:00"
        }
      } ]
    },
    "request": {
      "method": "PUT",
      "url": "Encounter/87be3277-99c8-439c-b133-1d4027b9e273"
    }
  }, {
    "fullUrl": "https://madie.cms.gov/Coverage/2c8d7381-9dba-4cd1-9439-5a580f87d8e7",
    "resource": {
      "resourceType": "Coverage",
      "id": "2c8d7381-9dba-4cd1-9439-5a580f87d8e7",
      "status": "active",
      "beneficiary": {
        "reference": "Patient/298f3f92-5047-46fc-ad92-9f27887ffc55"
      },
      "period": {
        "start": "1975-03-03T08:00:00.000+00:00"
      },
      "payor": [ {
        "reference": "Organization/877bb848-7747-49e0-b4b7-9a76a509ff24"
      } ]
    },
    "request": {
      "method": "PUT",
      "url": "Coverage/2c8d7381-9dba-4cd1-9439-5a580f87d8e7"
    }
  }, {
    "fullUrl": "https://madie.cms.gov/MedicationAdministration/f1d2665c-53d6-454a-a1fb-25ff773dac89",
    "resource": {
      "resourceType": "MedicationAdministration",
      "id": "f1d2665c-53d6-454a-a1fb-25ff773dac89",
      "meta": {
        "profile": [ "http://hl7.org/fhir/us/qicore/StructureDefinition/qicore-medicationadministration" ]
      },
      "status": "completed",
      "medicationCodeableConcept": {
        "coding": [ {
          "system": "http://www.nlm.nih.gov/research/umls/rxnorm",
          "code": "1361574"
        } ]
      },
      "subject": {
        "reference": "Patient/298f3f92-5047-46fc-ad92-9f27887ffc55"
      },
      "effectivePeriod": {
        "start": "2026-12-02T23:59:00.000+00:00"
      },
      "dosage": {
        "route": {
          "coding": [ {
            "system": "http://snomed.info/sct",
            "code": "34206005",
            "display": "Subcutaneous route"
          } ]
        },
        "dose": {
          "value": 20000,
          "unit": "UNT/ML",
          "system": "http://unitsofmeasure.org",
          "code": "ML"
        }
      }
    },
    "request": {
      "method": "PUT",
      "url": "MedicationAdministration/f1d2665c-53d6-454a-a1fb-25ff773dac89"
    }
  }, {
    "fullUrl": "https://madie.cms.gov/Location/a1a1a1ca-7fa9-4aff-85cf-5ab5c0dedd4d",
    "resource": {
      "resourceType": "Location",
      "id": "a1a1a1ca-7fa9-4aff-85cf-5ab5c0dedd4d",
      "meta": {
        "profile": [ "http://hl7.org/fhir/us/qicore/StructureDefinition/qicore-location" ]
      },
      "identifier": [ {
        "use": "usual",
        "system": "http://exampleoflocation.com",
        "value": "B1-S.F2"
      } ],
      "name": "Medical Surgical East, first floor",
      "type": [ {
        "coding": [ {
          "system": "https://www.cdc.gov/nhsn/cdaportal/terminology/codesystem/hsloc.html",
          "version": "2020",
          "code": "1025-6",
          "display": "Trauma Critical Care",
          "userSelected": true
        } ]
      } ]
    },
    "request": {
      "method": "PUT",
      "url": "Location/a1a1a1ca-7fa9-4aff-85cf-5ab5c0dedd4d"
    }
  }, {
    "fullUrl": "https://madie.cms.gov/Organization/877bb848-7747-49e0-b4b7-9a76a509ff24",
    "resource": {
      "resourceType": "Organization",
      "id": "877bb848-7747-49e0-b4b7-9a76a509ff24",
      "meta": {
        "profile": [ "http://hl7.org/fhir/us/qicore/StructureDefinition/qicore-organization" ]
      },
      "identifier": [ {
        "use": "temp",
        "system": "urn:oid:2.16.840.1.113883.4.4",
        "value": "21-3259825"
      } ],
      "active": true,
      "type": [ {
        "coding": [ {
          "system": "http://terminology.hl7.org/CodeSystem/organization-type",
          "code": "pay",
          "display": "Payer"
        } ]
      } ],
      "name": "Blue Cross Blue Shield of Texas",
      "telecom": [ {
        "system": "phone",
        "value": "(+1) 972-766-6900"
      } ],
      "address": [ {
        "use": "billing",
        "type": "postal",
        "line": [ "P.O. Box 660044" ],
        "city": "Dallas",
        "state": "TX",
        "postalCode": "75266-0044",
        "country": "USA"
      } ]
    },
    "request": {
      "method": "PUT",
      "url": "Organization/877bb848-7747-49e0-b4b7-9a76a509ff24"
    }
  }, {
    "fullUrl": "https://madie.cms.gov/Practitioner/e2849d1c-394e-4f68-8d7d-0dcfb7172854",
    "resource": {
      "resourceType": "Practitioner",
      "id": "e2849d1c-394e-4f68-8d7d-0dcfb7172854",
      "identifier": [ {
        "system": "http://hl7.org/fhir/sid/us-npi",
        "value": "123456"
      } ],
      "name": [ {
        "family": "Evil",
        "prefix": [ "Dr" ]
      } ]
    },
    "request": {
      "method": "PUT",
      "url": "Practitioner/e2849d1c-394e-4f68-8d7d-0dcfb7172854"
    }
  }, {
    "fullUrl": "https://madie.cms.gov/MeasureReport/46cdf3a3-9160-48ff-8d58-582578f50e70",
    "resource": {
      "resourceType": "MeasureReport",
      "id": "46cdf3a3-9160-48ff-8d58-582578f50e70",
      "meta": {
        "profile": [ "http://hl7.org/fhir/us/cqfmeasures/StructureDefinition/test-case-cqfm" ]
      },
      "contained": [ {
        "resourceType": "Parameters",
        "id": "ccb9f9df-56c4-4923-abea-5550289020b4-parameters",
        "parameter": [ {
          "name": "subject",
          "valueString": "298f3f92-5047-46fc-ad92-9f27887ffc55"
        } ]
      } ],
      "extension": [ {
        "url": "http://hl7.org/fhir/StructureDefinition/cqf-inputParameters",
        "valueReference": {
          "reference": "#ccb9f9df-56c4-4923-abea-5550289020b4-parameters"
        }
      }, {
        "url": "http://hl7.org/fhir/us/cqfmeasures/StructureDefinition/cqfm-testCaseDescription",
        "valueMarkdown": "LDUH 1 day after ICU admission, no anesthesia. \n"
      } ],
      "modifierExtension": [ {
        "url": "http://hl7.org/fhir/us/cqfmeasures/StructureDefinition/cqfm-isTestCase",
        "valueBoolean": true
      } ],
      "status": "complete",
      "type": "individual",
      "measure": "https://madie.cms.gov/Measure/CMS190FHIRVTEProphylaxisICU",
      "period": {
        "start": "2026-01-01",
        "end": "2026-12-31"
      },
      "group": [ {
        "id": "Group_1",
        "population": [ {
          "id": "InitialPopulation_1",
          "code": {
            "coding": [ {
              "system": "http://terminology.hl7.org/CodeSystem/measure-population",
              "code": "initial-population",
              "display": "Initial Population"
            } ]
          },
          "count": 1
        }, {
          "id": "Denominator_1",
          "code": {
            "coding": [ {
              "system": "http://terminology.hl7.org/CodeSystem/measure-population",
              "code": "denominator",
              "display": "Denominator"
            } ]
          },
          "count": 1
        }, {
          "id": "DenominatorExclusion_1",
          "code": {
            "coding": [ {
              "system": "http://terminology.hl7.org/CodeSystem/measure-population",
              "code": "denominator-exclusion",
              "display": "Denominator Exclusion"
            } ]
          },
          "count": 0
        }, {
          "id": "Numerator_1",
          "code": {
            "coding": [ {
              "system": "http://terminology.hl7.org/CodeSystem/measure-population",
              "code": "numerator",
              "display": "Numerator"
            } ]
          },
          "count": 1
        }, {
          "id": "DenominatorException_1",
          "code": {
            "coding": [ {
              "system": "http://terminology.hl7.org/CodeSystem/measure-population",
              "code": "denominator-exception",
              "display": "Denominator Exception"
            } ]
          },
          "count": 0
        } ],
        "measureScore": {
          "value": 0.0
        }
      } ],
      "evaluatedResource": [ {
        "reference": "Patient/298f3f92-5047-46fc-ad92-9f27887ffc55"
      }, {
        "reference": "Encounter/87be3277-99c8-439c-b133-1d4027b9e273"
      }, {
        "reference": "Coverage/2c8d7381-9dba-4cd1-9439-5a580f87d8e7"
      }, {
        "reference": "MedicationAdministration/f1d2665c-53d6-454a-a1fb-25ff773dac89"
      }, {
        "reference": "Location/a1a1a1ca-7fa9-4aff-85cf-5ab5c0dedd4d"
      }, {
        "reference": "Organization/877bb848-7747-49e0-b4b7-9a76a509ff24"
      }, {
        "reference": "Practitioner/e2849d1c-394e-4f68-8d7d-0dcfb7172854"
      } ]
    },
    "request": {
      "method": "PUT",
      "url": "MeasureReport/46cdf3a3-9160-48ff-8d58-582578f50e70"
    }
  } ]
}