{
  "resourceType": "Bundle",
  "id": "63487c2e0968f80122540188",
  "type": "transaction",
  "entry": [ {
    "fullUrl": "https://madie.cms.gov/Patient/c58acff5-248b-49c9-b18d-69e4a84a08d9",
    "resource": {
      "resourceType": "Patient",
      "id": "c58acff5-248b-49c9-b18d-69e4a84a08d9",
      "meta": {
        "profile": [ "http://hl7.org/fhir/us/qicore/StructureDefinition/qicore-patient" ]
      },
      "text": {
        "status": "generated",
        "div": "<div xmlns=\"http://www.w3.org/1999/xhtml\"><div class=\"hapiHeaderText\">ReasonCodeAbnPres<b>DENEXPASS</b></div><table class=\"hapiPropertyTable\"><tbody><tr><td>Identifier</td><td>db09244543fe550232b604cb7d87decbeb851047882e641e3fe736fdce398a0a</td></tr><tr><td>Date of birth</td><td><span>14 February 1985</span></td></tr></tbody></table></div>"
      },
      "extension": [ {
        "url": "http://hl7.org/fhir/us/core/StructureDefinition/us-core-race",
        "extension": [ {
          "url": "ombCategory",
          "valueCoding": {
            "system": "urn:oid:2.16.840.1.113883.6.238",
            "code": "1002-5",
            "display": "American Indian or Alaska Native",
            "userSelected": true
          }
        }, {
          "url": "text",
          "valueString": "American Indian or Alaska Native"
        } ]
      }, {
        "url": "http://hl7.org/fhir/us/core/StructureDefinition/us-core-ethnicity",
        "extension": [ {
          "url": "ombCategory",
          "valueCoding": {
            "system": "urn:oid:2.16.840.1.113883.6.238",
            "code": "2135-2",
            "display": "Hispanic or Latino",
            "userSelected": true
          }
        }, {
          "url": "text",
          "valueString": "Hispanic or Latino"
        } ]
      } ],
      "identifier": [ {
        "type": {
          "coding": [ {
            "system": "http://terminology.hl7.org/CodeSystem/v2-0203",
            "code": "MR"
          } ]
        },
        "system": "https://bonnie-fhir.healthit.gov/",
        "value": "63487c2e0968f80122540188"
      } ],
      "active": true,
      "name": [ {
        "use": "usual",
        "family": "DENEXPass",
        "given": [ "ReasonCodeAbnPres" ]
      } ],
      "gender": "female",
      "birthDate": "1998-02-14"
    },
    "request": {
      "method": "PUT",
      "url": "Patient/c58acff5-248b-49c9-b18d-69e4a84a08d9"
    }
  }, {
    "fullUrl": "https://madie.cms.gov/Observation/172cb4e1-f9ce-4f10-b783-3c5695dee1dd",
    "resource": {
      "resourceType": "Observation",
      "id": "172cb4e1-f9ce-4f10-b783-3c5695dee1dd",
      "meta": {
        "profile": [ "http://hl7.org/fhir/us/qicore/StructureDefinition/qicore-simple-observation" ]
      },
      "status": "final",
      "category": [ {
        "coding": [ {
          "system": "http://terminology.hl7.org/CodeSystem/observation-category",
          "code": "exam",
          "display": "exam",
          "userSelected": true
        } ]
      } ],
      "code": {
        "coding": [ {
          "system": "http://loinc.org",
          "code": "11996-6"
        } ]
      },
      "subject": {
        "reference": "Patient/c58acff5-248b-49c9-b18d-69e4a84a08d9"
      },
      "effectiveDateTime": "2026-06-08T08:00:00.000+00:00",
      "performer": [ {
        "reference": "Organization/example1",
        "display": "Hendricks Country Hospital"
      } ],
      "valueInteger": 1
    },
    "request": {
      "method": "PUT",
      "url": "Observation/172cb4e1-f9ce-4f10-b783-3c5695dee1dd"
    }
  }, {
    "fullUrl": "https://madie.cms.gov/Observation/930d4523-9a52-4612-8631-5743f86700ed",
    "resource": {
      "resourceType": "Observation",
      "id": "930d4523-9a52-4612-8631-5743f86700ed",
      "meta": {
        "profile": [ "http://hl7.org/fhir/us/qicore/StructureDefinition/qicore-simple-observation" ]
      },
      "status": "final",
      "category": [ {
        "coding": [ {
          "system": "http://terminology.hl7.org/CodeSystem/observation-category",
          "code": "exam",
          "display": "exam",
          "userSelected": true
        } ]
      } ],
      "code": {
        "coding": [ {
          "system": "http://loinc.org",
          "code": "11884-4"
        } ]
      },
      "subject": {
        "reference": "Patient/c58acff5-248b-49c9-b18d-69e4a84a08d9"
      },
      "effectiveDateTime": "2026-06-08T08:00:00.000+00:00",
      "performer": [ {
        "reference": "Organization/example1",
        "display": "Hendricks Country Hospital"
      } ],
      "valueQuantity": {
        "value": 43,
        "system": "http://unitsofmeasure.org",
        "code": "wk"
      }
    },
    "request": {
      "method": "PUT",
      "url": "Observation/930d4523-9a52-4612-8631-5743f86700ed"
    }
  }, {
    "fullUrl": "https://madie.cms.gov/Observation/8aa761a6-2bcc-44ce-b76e-79798db0886b",
    "resource": {
      "resourceType": "Observation",
      "id": "8aa761a6-2bcc-44ce-b76e-79798db0886b",
      "meta": {
        "profile": [ "http://hl7.org/fhir/us/qicore/StructureDefinition/qicore-simple-observation" ]
      },
      "status": "final",
      "category": [ {
        "coding": [ {
          "system": "http://terminology.hl7.org/CodeSystem/observation-category",
          "code": "exam",
          "display": "exam",
          "userSelected": true
        } ]
      } ],
      "code": {
        "coding": [ {
          "system": "http://loinc.org",
          "code": "93857-1"
        } ]
      },
      "subject": {
        "reference": "Patient/c58acff5-248b-49c9-b18d-69e4a84a08d9"
      },
      "effectiveDateTime": "2026-06-08T20:00:00.000+00:00",
      "performer": [ {
        "reference": "Organization/example1",
        "display": "Hendricks Country Hospital"
      } ],
      "valueDateTime": "2026-06-08T20:00:00.000+00:00"
    },
    "request": {
      "method": "PUT",
      "url": "Observation/8aa761a6-2bcc-44ce-b76e-79798db0886b"
    }
  }, {
    "fullUrl": "https://madie.cms.gov/Encounter/9d6ea959-0e00-4cd6-bf60-a90e1d6e90c1",
    "resource": {
      "resourceType": "Encounter",
      "id": "9d6ea959-0e00-4cd6-bf60-a90e1d6e90c1",
      "meta": {
        "profile": [ "http://hl7.org/fhir/us/qicore/StructureDefinition/qicore-encounter" ]
      },
      "status": "finished",
      "class": {
        "system": "http://terminology.hl7.org/CodeSystem/v3-ActCode",
        "code": "IMP",
        "display": "inpatient encounter"
      },
      "type": [ {
        "coding": [ {
          "system": "http://snomed.info/sct",
          "code": "8715000"
        } ]
      } ],
      "subject": {
        "reference": "Patient/c58acff5-248b-49c9-b18d-69e4a84a08d9"
      },
      "period": {
        "start": "2026-06-08T08:00:00.000+00:00",
        "end": "2026-06-10T08:15:00.000+00:00"
      },
      "reasonCode": [ {
        "coding": [ {
          "system": "http://snomed.info/sct",
          "code": "18559007",
          "display": "Frank breech presentation (finding)"
        } ]
      } ],
      "reasonReference": [ {
        "reference": "delivery-of-singleton-0997"
      } ]
    },
    "request": {
      "method": "PUT",
      "url": "Encounter/9d6ea959-0e00-4cd6-bf60-a90e1d6e90c1"
    }
  }, {
    "fullUrl": "https://madie.cms.gov/Procedure/00eb2232-2b9b-480d-94a1-80da2b386a4b",
    "resource": {
      "resourceType": "Procedure",
      "id": "00eb2232-2b9b-480d-94a1-80da2b386a4b",
      "meta": {
        "profile": [ "http://hl7.org/fhir/us/qicore/StructureDefinition/qicore-procedure" ]
      },
      "extension": [ {
        "url": "http://hl7.org/fhir/us/qicore/StructureDefinition/qicore-recorded",
        "valueDateTime": "2014-04-05T13:35:00.000+00:00"
      } ],
      "status": "completed",
      "code": {
        "coding": [ {
          "system": "http://www.cms.gov/Medicare/Coding/ICD10",
          "code": "10D00Z0"
        } ]
      },
      "subject": {
        "reference": "Patient/c58acff5-248b-49c9-b18d-69e4a84a08d9"
      },
      "performedDateTime": "2026-06-08T20:00:00.000+00:00"
    },
    "request": {
      "method": "PUT",
      "url": "Procedure/00eb2232-2b9b-480d-94a1-80da2b386a4b"
    }
  }, {
    "fullUrl": "https://madie.cms.gov/Condition/8f7d2289-fe66-4bde-8ed8-3223de1da063",
    "resource": {
      "resourceType": "Condition",
      "id": "8f7d2289-fe66-4bde-8ed8-3223de1da063",
      "meta": {
        "profile": [ "http://hl7.org/fhir/us/qicore/StructureDefinition/qicore-condition-encounter-diagnosis" ]
      },
      "category": [ {
        "coding": [ {
          "system": "http://terminology.hl7.org/CodeSystem/condition-category",
          "code": "encounter-diagnosis",
          "display": "Encounter Diagnosis"
        } ]
      } ],
      "code": {
        "coding": [ {
          "system": "http://snomed.info/sct",
          "version": "2022-09",
          "code": "169826009",
          "display": "Single live birth (finding)",
          "userSelected": true
        } ]
      },
      "subject": {
        "reference": "Patient/c58acff5-248b-49c9-b18d-69e4a84a08d9"
      },
      "encounter": {
        "reference": "Encounter/9d6ea959-0e00-4cd6-bf60-a90e1d6e90c1"
      }
    },
    "request": {
      "method": "PUT",
      "url": "Condition/8f7d2289-fe66-4bde-8ed8-3223de1da063"
    }
  }, {
    "fullUrl": "https://madie.cms.gov/Coverage/9b524c31-19a2-425e-b7ba-f695654ed34d",
    "resource": {
      "resourceType": "Coverage",
      "id": "9b524c31-19a2-425e-b7ba-f695654ed34d",
      "meta": {
        "profile": [ "http://hl7.org/fhir/us/qicore/StructureDefinition/qicore-coverage" ]
      },
      "status": "active",
      "subscriberId": "523435",
      "beneficiary": {
        "reference": "Patient/c58acff5-248b-49c9-b18d-69e4a84a08d9"
      },
      "relationship": {
        "coding": [ {
          "system": "http://terminology.hl7.org/CodeSystem/subscriber-relationship",
          "code": "self"
        } ]
      },
      "payor": [ {
        "reference": "Organization/c1ab0d4d-a188-4f17-916d-5ef310c9850b"
      } ]
    },
    "request": {
      "method": "PUT",
      "url": "Coverage/9b524c31-19a2-425e-b7ba-f695654ed34d"
    }
  }, {
    "fullUrl": "https://madie.cms.gov/Organization/c1ab0d4d-a188-4f17-916d-5ef310c9850b",
    "resource": {
      "resourceType": "Organization",
      "id": "c1ab0d4d-a188-4f17-916d-5ef310c9850b",
      "meta": {
        "profile": [ "http://hl7.org/fhir/us/qicore/StructureDefinition/qicore-organization" ]
      },
      "identifier": [ {
        "use": "temp",
        "system": "urn:oid:2.16.840.1.113883.4.4",
        "value": "21-3259825"
      } ],
      "active": true,
      "type": [ {
        "coding": [ {
          "system": "http://terminology.hl7.org/CodeSystem/organization-type",
          "code": "pay",
          "display": "Payer"
        } ]
      } ],
      "name": "Blue Cross Blue Shield of Texas",
      "telecom": [ {
        "system": "phone",
        "value": "(+1) 972-766-6900"
      } ],
      "address": [ {
        "use": "billing",
        "type": "postal",
        "line": [ "P.O. Box 660044" ],
        "city": "Dallas",
        "state": "TX",
        "postalCode": "75266-0044",
        "country": "USA"
      } ]
    },
    "request": {
      "method": "PUT",
      "url": "Organization/c1ab0d4d-a188-4f17-916d-5ef310c9850b"
    }
  }, {
    "fullUrl": "https://madie.cms.gov/Practitioner/b140a486-d54d-4b21-9b3f-d921f9662204",
    "resource": {
      "resourceType": "Practitioner",
      "id": "b140a486-d54d-4b21-9b3f-d921f9662204",
      "meta": {
        "profile": [ "http://hl7.org/fhir/us/qicore/StructureDefinition/qicore-practitioner" ]
      },
      "identifier": [ {
        "system": "http://hl7.org/fhir/sid/us-npi",
        "value": "1234567890"
      } ],
      "name": [ {
        "family": "Evil",
        "prefix": [ "Dr" ]
      } ]
    },
    "request": {
      "method": "PUT",
      "url": "Practitioner/b140a486-d54d-4b21-9b3f-d921f9662204"
    }
  }, {
    "fullUrl": "https://madie.cms.gov/Condition/88fef1fd-dbb9-41b2-bef3-2f7236bc339e",
    "resource": {
      "resourceType": "Condition",
      "id": "88fef1fd-dbb9-41b2-bef3-2f7236bc339e",
      "meta": {
        "profile": [ "http://hl7.org/fhir/us/qicore/StructureDefinition/qicore-condition" ]
      },
      "category": [ {
        "coding": [ {
          "system": "http://terminology.hl7.org/CodeSystem/condition-category",
          "code": "encounter-diagnosis",
          "display": "Encounter Diagnosis"
        } ]
      } ],
      "code": {
        "coding": [ {
          "system": "http://snomed.info/sct",
          "code": "169826009",
          "display": "Single live birth (finding)"
        } ]
      },
      "subject": {
        "reference": "Patient/c58acff5-248b-49c9-b18d-69e4a84a08d9"
      }
    },
    "request": {
      "method": "PUT",
      "url": "Condition/88fef1fd-dbb9-41b2-bef3-2f7236bc339e"
    }
  }, {
    "fullUrl": "https://madie.cms.gov/MeasureReport/920b0c2e-1f1f-42d3-ab1f-1d7b12fa4bd0",
    "resource": {
      "resourceType": "MeasureReport",
      "id": "920b0c2e-1f1f-42d3-ab1f-1d7b12fa4bd0",
      "meta": {
        "profile": [ "http://hl7.org/fhir/us/cqfmeasures/StructureDefinition/test-case-cqfm" ]
      },
      "contained": [ {
        "resourceType": "Parameters",
        "id": "b26666f0-067f-4b1e-a1f1-994d9833ef18-parameters",
        "parameter": [ {
          "name": "subject",
          "valueString": "c58acff5-248b-49c9-b18d-69e4a84a08d9"
        } ]
      } ],
      "extension": [ {
        "url": "http://hl7.org/fhir/StructureDefinition/cqf-inputParameters",
        "valueReference": {
          "reference": "#b26666f0-067f-4b1e-a1f1-994d9833ef18-parameters"
        }
      }, {
        "url": "http://hl7.org/fhir/us/cqfmeasures/StructureDefinition/cqfm-testCaseDescription",
        "valueMarkdown": "EGA 43 weeks; Encounter diagnosis reasonCode Abnormal presentation (frank breech), gravida 1\n"
      } ],
      "modifierExtension": [ {
        "url": "http://hl7.org/fhir/us/cqfmeasures/StructureDefinition/cqfm-isTestCase",
        "valueBoolean": true
      } ],
      "status": "complete",
      "type": "individual",
      "measure": "https://madie.cms.gov/Measure/CMS0334FHIRPCCesareanBirth",
      "period": {
        "start": "2026-01-01",
        "end": "2026-12-31"
      },
      "group": [ {
        "id": "Group_1",
        "population": [ {
          "id": "InitialPopulation_1",
          "code": {
            "coding": [ {
              "system": "http://terminology.hl7.org/CodeSystem/measure-population",
              "code": "initial-population",
              "display": "Initial Population"
            } ]
          },
          "count": 1
        }, {
          "id": "Denominator_1",
          "code": {
            "coding": [ {
              "system": "http://terminology.hl7.org/CodeSystem/measure-population",
              "code": "denominator",
              "display": "Denominator"
            } ]
          },
          "count": 1
        }, {
          "id": "DenominatorExclusion_1",
          "code": {
            "coding": [ {
              "system": "http://terminology.hl7.org/CodeSystem/measure-population",
              "code": "denominator-exclusion",
              "display": "Denominator Exclusion"
            } ]
          },
          "count": 1
        }, {
          "id": "Numerator_1",
          "code": {
            "coding": [ {
              "system": "http://terminology.hl7.org/CodeSystem/measure-population",
              "code": "numerator",
              "display": "Numerator"
            } ]
          },
          "count": 0
        } ],
        "measureScore": {
          "value": 0.0
        }
      } ],
      "evaluatedResource": [ {
        "reference": "Patient/c58acff5-248b-49c9-b18d-69e4a84a08d9"
      }, {
        "reference": "Observation/172cb4e1-f9ce-4f10-b783-3c5695dee1dd"
      }, {
        "reference": "Observation/930d4523-9a52-4612-8631-5743f86700ed"
      }, {
        "reference": "Observation/8aa761a6-2bcc-44ce-b76e-79798db0886b"
      }, {
        "reference": "Encounter/9d6ea959-0e00-4cd6-bf60-a90e1d6e90c1"
      }, {
        "reference": "Procedure/00eb2232-2b9b-480d-94a1-80da2b386a4b"
      }, {
        "reference": "Condition/8f7d2289-fe66-4bde-8ed8-3223de1da063"
      }, {
        "reference": "Coverage/9b524c31-19a2-425e-b7ba-f695654ed34d"
      }, {
        "reference": "Organization/c1ab0d4d-a188-4f17-916d-5ef310c9850b"
      }, {
        "reference": "Practitioner/b140a486-d54d-4b21-9b3f-d921f9662204"
      }, {
        "reference": "Condition/88fef1fd-dbb9-41b2-bef3-2f7236bc339e"
      } ]
    },
    "request": {
      "method": "PUT",
      "url": "MeasureReport/920b0c2e-1f1f-42d3-ab1f-1d7b12fa4bd0"
    }
  } ]
}