{
  "resourceType": "Bundle",
  "id": "tests-DENOMPass-MedsEndOfEncounterEdgeCase-bundle",
  "type": "transaction",
  "entry": [ {
    "fullUrl": "https://madie.cms.gov/Encounter/8bccbd6b-738c-4874-960f-d6381d20acb5",
    "resource": {
      "resourceType": "Encounter",
      "id": "8bccbd6b-738c-4874-960f-d6381d20acb5",
      "meta": {
        "profile": [ "http://hl7.org/fhir/us/qicore/StructureDefinition/qicore-encounter" ]
      },
      "status": "finished",
      "class": {
        "system": "http://terminology.hl7.org/CodeSystem/v3-ActCode",
        "code": "IMP",
        "display": "Inpatient encounter"
      },
      "type": [ {
        "coding": [ {
          "system": "http://snomed.info/sct",
          "code": "183452005",
          "display": "Inpatient encounter"
        } ]
      } ],
      "period": {
        "start": "2026-07-11T08:00:00.000+00:00",
        "end": "2026-07-12T21:00:00.000+00:00"
      }
    },
    "request": {
      "method": "PUT",
      "url": "Encounter/8bccbd6b-738c-4874-960f-d6381d20acb5"
    }
  }, {
    "fullUrl": "https://madie.cms.gov/MedicationAdministration/10a301ec-b7d3-4a63-8541-5c1dffcdcac4",
    "resource": {
      "resourceType": "MedicationAdministration",
      "id": "10a301ec-b7d3-4a63-8541-5c1dffcdcac4",
      "meta": {
        "profile": [ "http://hl7.org/fhir/us/qicore/StructureDefinition/qicore-medicationadministration" ]
      },
      "status": "completed",
      "medicationCodeableConcept": {
        "coding": [ {
          "system": "http://www.nlm.nih.gov/research/umls/rxnorm",
          "code": "1670021",
          "display": "Hypoglycemics Severe Hypoglycemia"
        } ]
      },
      "subject": {
        "reference": "Patient/8301c6c8-e50c-4457-add0-1ebd909c8ca7"
      },
      "effectivePeriod": {
        "start": "2026-07-12T21:00:00.000+00:00"
      }
    },
    "request": {
      "method": "PUT",
      "url": "MedicationAdministration/10a301ec-b7d3-4a63-8541-5c1dffcdcac4"
    }
  }, {
    "fullUrl": "https://madie.cms.gov/Patient/8301c6c8-e50c-4457-add0-1ebd909c8ca7",
    "resource": {
      "resourceType": "Patient",
      "id": "8301c6c8-e50c-4457-add0-1ebd909c8ca7",
      "meta": {
        "profile": [ "http://hl7.org/fhir/us/qicore/StructureDefinition/qicore-patient" ]
      },
      "extension": [ {
        "url": "http://hl7.org/fhir/us/core/StructureDefinition/us-core-race",
        "extension": [ {
          "url": "ombCategory",
          "valueCoding": {
            "system": "urn:oid:2.16.840.1.113883.6.238",
            "code": "2106-3",
            "display": "White"
          }
        }, {
          "url": "text",
          "valueString": "White"
        } ]
      }, {
        "url": "http://hl7.org/fhir/us/core/StructureDefinition/us-core-ethnicity",
        "extension": [ {
          "url": "ombCategory",
          "valueCoding": {
            "system": "urn:oid:2.16.840.1.113883.6.238",
            "code": "2135-2",
            "display": "Hispanic or Latino"
          }
        }, {
          "url": "text",
          "valueString": "Hispanic or Latino"
        } ]
      }, {
        "url": "http://hl7.org/fhir/us/core/StructureDefinition/us-core-sex",
        "valueCode": "248153007"
      } ],
      "identifier": [ {
        "system": "http://hospital.smarthealthit.org",
        "value": "999999999"
      } ],
      "name": [ {
        "family": "Example",
        "given": [ "Patient" ]
      } ],
      "gender": "female",
      "birthDate": "1956-01-01"
    },
    "request": {
      "method": "PUT",
      "url": "Patient/8301c6c8-e50c-4457-add0-1ebd909c8ca7"
    }
  }, {
    "fullUrl": "https://madie.cms.gov/MeasureReport/a821b7fb-7913-45e4-82e2-cf232818d643",
    "resource": {
      "resourceType": "MeasureReport",
      "id": "a821b7fb-7913-45e4-82e2-cf232818d643",
      "meta": {
        "profile": [ "http://hl7.org/fhir/us/cqfmeasures/StructureDefinition/test-case-cqfm" ]
      },
      "contained": [ {
        "resourceType": "Parameters",
        "id": "dc87e381-dc78-4c4b-aea6-9f7164dc33cd-parameters",
        "parameter": [ {
          "name": "subject",
          "valueString": "8301c6c8-e50c-4457-add0-1ebd909c8ca7"
        } ]
      } ],
      "extension": [ {
        "url": "http://hl7.org/fhir/StructureDefinition/cqf-inputParameters",
        "valueReference": {
          "reference": "#dc87e381-dc78-4c4b-aea6-9f7164dc33cd-parameters"
        }
      }, {
        "url": "http://hl7.org/fhir/us/cqfmeasures/StructureDefinition/cqfm-testCaseDescription",
        "valueMarkdown": "Encounter, med relevant period start date/time is same date/time as end of encounter date/time. No lab tests. Meets denom rule - med must start during encounter."
      } ],
      "modifierExtension": [ {
        "url": "http://hl7.org/fhir/us/cqfmeasures/StructureDefinition/cqfm-isTestCase",
        "valueBoolean": true
      } ],
      "status": "complete",
      "type": "individual",
      "measure": "https://madie.cms.gov/Measure/CMS816FHIRHHHypo",
      "period": {
        "start": "2026-01-01",
        "end": "2026-12-31"
      },
      "group": [ {
        "id": "Group_1",
        "population": [ {
          "id": "InitialPopulation_1",
          "code": {
            "coding": [ {
              "system": "http://terminology.hl7.org/CodeSystem/measure-population",
              "code": "initial-population",
              "display": "Initial Population"
            } ]
          },
          "count": 1
        }, {
          "id": "Denominator_1",
          "code": {
            "coding": [ {
              "system": "http://terminology.hl7.org/CodeSystem/measure-population",
              "code": "denominator",
              "display": "Denominator"
            } ]
          },
          "count": 1
        }, {
          "id": "Numerator_1",
          "code": {
            "coding": [ {
              "system": "http://terminology.hl7.org/CodeSystem/measure-population",
              "code": "numerator",
              "display": "Numerator"
            } ]
          },
          "count": 0
        } ],
        "measureScore": {
          "value": 0.0
        }
      } ],
      "evaluatedResource": [ {
        "reference": "Encounter/8bccbd6b-738c-4874-960f-d6381d20acb5"
      }, {
        "reference": "MedicationAdministration/10a301ec-b7d3-4a63-8541-5c1dffcdcac4"
      }, {
        "reference": "Patient/8301c6c8-e50c-4457-add0-1ebd909c8ca7"
      } ]
    },
    "request": {
      "method": "PUT",
      "url": "MeasureReport/a821b7fb-7913-45e4-82e2-cf232818d643"
    }
  } ]
}