{
  "resourceType": "Bundle",
  "id": "64d118d91252352a0771c3b9",
  "type": "transaction",
  "entry": [ {
    "fullUrl": "https://madie.cms.gov/Patient/680126f3-1c0b-4b3a-af0d-aca37e1fc979",
    "resource": {
      "resourceType": "Patient",
      "id": "680126f3-1c0b-4b3a-af0d-aca37e1fc979",
      "meta": {
        "profile": [ "http://hl7.org/fhir/us/qicore/StructureDefinition/qicore-patient" ]
      },
      "extension": [ {
        "url": "http://hl7.org/fhir/us/core/StructureDefinition/us-core-race",
        "extension": [ {
          "url": "ombCategory",
          "valueCoding": {
            "system": "urn:oid:2.16.840.1.113883.6.238",
            "code": "2054-5",
            "display": "Black or African American",
            "userSelected": true
          }
        }, {
          "url": "text",
          "valueString": "Black or African American"
        } ]
      }, {
        "url": "http://hl7.org/fhir/us/core/StructureDefinition/us-core-ethnicity",
        "extension": [ {
          "url": "ombCategory",
          "valueCoding": {
            "system": "urn:oid:2.16.840.1.113883.6.238",
            "code": "2186-5",
            "display": "Not Hispanic or Latino",
            "userSelected": true
          }
        }, {
          "url": "text",
          "valueString": "Not Hispanic or Latino"
        } ]
      } ],
      "identifier": [ {
        "type": {
          "coding": [ {
            "system": "http://terminology.hl7.org/CodeSystem/v2-0203",
            "code": "MR"
          } ]
        },
        "system": "https://bonnie-fhir.healthit.gov/",
        "value": "64d118d91252352a0771c3b9"
      } ],
      "name": [ {
        "family": "DENOMPass",
        "given": [ "EncDuringMP" ]
      } ],
      "gender": "male",
      "birthDate": "2019-08-15"
    },
    "request": {
      "method": "PUT",
      "url": "Patient/680126f3-1c0b-4b3a-af0d-aca37e1fc979"
    }
  }, {
    "fullUrl": "https://madie.cms.gov/Encounter/6c4b6a8b-7a55-465d-ba92-0c783ca3e6df",
    "resource": {
      "resourceType": "Encounter",
      "id": "6c4b6a8b-7a55-465d-ba92-0c783ca3e6df",
      "meta": {
        "profile": [ "http://hl7.org/fhir/us/qicore/StructureDefinition/qicore-encounter" ]
      },
      "status": "finished",
      "class": {
        "system": "http://terminology.hl7.org/CodeSystem/v3-ActCode",
        "code": "AMB",
        "display": "ambulatory",
        "userSelected": true
      },
      "type": [ {
        "coding": [ {
          "system": "http://www.ama-assn.org/go/cpt",
          "code": "90845",
          "userSelected": true
        } ]
      } ],
      "subject": {
        "reference": "Patient/680126f3-1c0b-4b3a-af0d-aca37e1fc979"
      },
      "period": {
        "start": "2026-02-26T08:00:00.000+00:00",
        "end": "2026-02-26T08:15:00.000+00:00"
      },
      "reasonCode": [ {
        "coding": [ {
          "system": "http://snomed.info/sct",
          "version": "2023-09",
          "code": "191610000",
          "display": "Recurrent major depressive episodes, mild (disorder)",
          "userSelected": true
        } ]
      } ],
      "diagnosis": [ {
        "condition": {
          "reference": "Condition/c3a9117f-4327-4aec-9138-67e1152d48d0"
        },
        "use": {
          "coding": [ {
            "system": "http://snomed.info/sct",
            "version": "2023-09",
            "code": "10811161000119107",
            "display": "Major depressive disorder in mother complicating pregnancy (disorder)",
            "userSelected": true
          } ]
        }
      } ]
    },
    "request": {
      "method": "PUT",
      "url": "Encounter/6c4b6a8b-7a55-465d-ba92-0c783ca3e6df"
    }
  }, {
    "fullUrl": "https://madie.cms.gov/Condition/c3a9117f-4327-4aec-9138-67e1152d48d0",
    "resource": {
      "resourceType": "Condition",
      "id": "c3a9117f-4327-4aec-9138-67e1152d48d0",
      "meta": {
        "profile": [ "http://hl7.org/fhir/us/qicore/StructureDefinition/qicore-condition" ]
      },
      "clinicalStatus": {
        "coding": [ {
          "system": "http://terminology.hl7.org/CodeSystem/condition-clinical",
          "code": "active"
        } ]
      },
      "verificationStatus": {
        "coding": [ {
          "system": "http://terminology.hl7.org/CodeSystem/condition-ver-status",
          "code": "confirmed"
        } ]
      },
      "category": [ {
        "coding": [ {
          "system": "http://terminology.hl7.org/CodeSystem/condition-category",
          "code": "encounter-diagnosis",
          "display": "Encounter Diagnosis"
        } ]
      } ],
      "code": {
        "coding": [ {
          "system": "http://snomed.info/sct",
          "version": "2023-09",
          "code": "10811121000119102",
          "display": "Major depressive disorder in mother complicating childbirth (disorder)",
          "userSelected": true
        } ]
      },
      "subject": {
        "reference": "Patient/680126f3-1c0b-4b3a-af0d-aca37e1fc979"
      },
      "recordedDate": "2026-02-26T08:00:00.000+00:00"
    },
    "request": {
      "method": "PUT",
      "url": "Condition/c3a9117f-4327-4aec-9138-67e1152d48d0"
    }
  }, {
    "fullUrl": "https://madie.cms.gov/Coverage/757a4b97-8858-4a36-ba12-2c5344dc6cc2",
    "resource": {
      "resourceType": "Coverage",
      "id": "757a4b97-8858-4a36-ba12-2c5344dc6cc2",
      "meta": {
        "profile": [ "http://hl7.org/fhir/us/qicore/StructureDefinition/qicore-coverage" ]
      },
      "identifier": [ {
        "system": "http://benefitsinc.com/certificate",
        "value": "12345"
      } ],
      "status": "active",
      "type": {
        "coding": [ {
          "system": "https://nahdo.org/sopt",
          "code": "59",
          "display": "Other Private Insurance"
        } ]
      },
      "beneficiary": {
        "reference": "Patient/680126f3-1c0b-4b3a-af0d-aca37e1fc979"
      },
      "payor": [ {
        "reference": "Organization/3cbdee55-f10e-44f9-93c4-6e6fd60e6d17"
      } ]
    },
    "request": {
      "method": "PUT",
      "url": "Coverage/757a4b97-8858-4a36-ba12-2c5344dc6cc2"
    }
  }, {
    "fullUrl": "https://madie.cms.gov/Organization/3cbdee55-f10e-44f9-93c4-6e6fd60e6d17",
    "resource": {
      "resourceType": "Organization",
      "id": "3cbdee55-f10e-44f9-93c4-6e6fd60e6d17",
      "meta": {
        "profile": [ "http://hl7.org/fhir/us/qicore/StructureDefinition/qicore-organization" ]
      },
      "identifier": [ {
        "use": "temp",
        "system": "urn:oid:2.16.840.1.113883.4.4",
        "value": "21-3259825"
      } ],
      "active": true,
      "type": [ {
        "coding": [ {
          "system": "http://terminology.hl7.org/CodeSystem/organization-type",
          "code": "pay",
          "display": "Payer"
        } ]
      } ],
      "name": "Blue Cross Blue Shield of Texas",
      "telecom": [ {
        "system": "phone",
        "value": "(+1) 972-766-6900"
      } ],
      "address": [ {
        "use": "billing",
        "type": "postal",
        "line": [ "P.O. Box 660044" ],
        "city": "Dallas",
        "state": "TX",
        "postalCode": "75266-0044",
        "country": "USA"
      } ]
    },
    "request": {
      "method": "PUT",
      "url": "Organization/3cbdee55-f10e-44f9-93c4-6e6fd60e6d17"
    }
  }, {
    "fullUrl": "https://madie.cms.gov/Practitioner/b69eaaf9-bf6c-4303-9742-ceafa50fc3b2",
    "resource": {
      "resourceType": "Practitioner",
      "id": "b69eaaf9-bf6c-4303-9742-ceafa50fc3b2",
      "meta": {
        "profile": [ "http://hl7.org/fhir/us/qicore/StructureDefinition/qicore-practitioner" ]
      },
      "identifier": [ {
        "system": "http://hl7.org/fhir/sid/us-npi",
        "value": "123456"
      } ],
      "name": [ {
        "family": "Evil",
        "prefix": [ "Dr" ]
      } ]
    },
    "request": {
      "method": "PUT",
      "url": "Practitioner/b69eaaf9-bf6c-4303-9742-ceafa50fc3b2"
    }
  }, {
    "fullUrl": "https://madie.cms.gov/MeasureReport/d4215b9e-5fe4-497a-94e9-1b1918f73485",
    "resource": {
      "resourceType": "MeasureReport",
      "id": "d4215b9e-5fe4-497a-94e9-1b1918f73485",
      "meta": {
        "profile": [ "http://hl7.org/fhir/us/cqfmeasures/StructureDefinition/test-case-cqfm" ]
      },
      "contained": [ {
        "resourceType": "Parameters",
        "id": "da4e194c-bdd3-48b0-9efe-33af63a984ad-parameters",
        "parameter": [ {
          "name": "subject",
          "valueString": "680126f3-1c0b-4b3a-af0d-aca37e1fc979"
        } ]
      } ],
      "extension": [ {
        "url": "http://hl7.org/fhir/StructureDefinition/cqf-inputParameters",
        "valueReference": {
          "reference": "#da4e194c-bdd3-48b0-9efe-33af63a984ad-parameters"
        }
      }, {
        "url": "http://hl7.org/fhir/us/cqfmeasures/StructureDefinition/cqfm-testCaseDescription",
        "valueMarkdown": "Psychoanalysis encounter with Depression Diagnosis recorded in MP"
      } ],
      "modifierExtension": [ {
        "url": "http://hl7.org/fhir/us/cqfmeasures/StructureDefinition/cqfm-isTestCase",
        "valueBoolean": true
      } ],
      "status": "complete",
      "type": "individual",
      "measure": "https://madie.cms.gov/Measure/CMS177FHIRChildMDDSuicideAssmt",
      "period": {
        "start": "2026-01-01",
        "end": "2026-12-31"
      },
      "group": [ {
        "id": "Group_1",
        "population": [ {
          "id": "InitialPopulation_1",
          "code": {
            "coding": [ {
              "system": "http://terminology.hl7.org/CodeSystem/measure-population",
              "code": "initial-population",
              "display": "Initial Population"
            } ]
          },
          "count": 1
        }, {
          "id": "Denominator_1",
          "code": {
            "coding": [ {
              "system": "http://terminology.hl7.org/CodeSystem/measure-population",
              "code": "denominator",
              "display": "Denominator"
            } ]
          },
          "count": 1
        }, {
          "id": "Numerator_1",
          "code": {
            "coding": [ {
              "system": "http://terminology.hl7.org/CodeSystem/measure-population",
              "code": "numerator",
              "display": "Numerator"
            } ]
          },
          "count": 0
        } ],
        "measureScore": {
          "value": 0.0
        }
      } ],
      "evaluatedResource": [ {
        "reference": "Patient/680126f3-1c0b-4b3a-af0d-aca37e1fc979"
      }, {
        "reference": "Encounter/6c4b6a8b-7a55-465d-ba92-0c783ca3e6df"
      }, {
        "reference": "Condition/c3a9117f-4327-4aec-9138-67e1152d48d0"
      }, {
        "reference": "Coverage/757a4b97-8858-4a36-ba12-2c5344dc6cc2"
      }, {
        "reference": "Organization/3cbdee55-f10e-44f9-93c4-6e6fd60e6d17"
      }, {
        "reference": "Practitioner/b69eaaf9-bf6c-4303-9742-ceafa50fc3b2"
      } ]
    },
    "request": {
      "method": "PUT",
      "url": "MeasureReport/d4215b9e-5fe4-497a-94e9-1b1918f73485"
    }
  } ]
}