{
  "resourceType": "Bundle",
  "id": "2EncounterBothNotAtrisk",
  "type": "transaction",
  "entry": [ {
    "fullUrl": "https://madie.cms.gov/Patient/e87069c9-7889-4954-858f-33d6ad24cd7a",
    "resource": {
      "resourceType": "Patient",
      "id": "e87069c9-7889-4954-858f-33d6ad24cd7a",
      "meta": {
        "profile": [ "http://hl7.org/fhir/us/qicore/StructureDefinition/qicore-patient" ]
      },
      "extension": [ {
        "url": "http://hl7.org/fhir/us/core/StructureDefinition/us-core-race",
        "extension": [ {
          "url": "ombCategory",
          "valueCoding": {
            "system": "urn:oid:2.16.840.1.113883.6.238",
            "code": "2106-3",
            "display": "White",
            "userSelected": true
          }
        }, {
          "url": "text",
          "valueString": "White"
        } ]
      }, {
        "url": "http://hl7.org/fhir/us/core/StructureDefinition/us-core-ethnicity",
        "extension": [ {
          "url": "ombCategory",
          "valueCoding": {
            "system": "urn:oid:2.16.840.1.113883.6.238",
            "code": "2186-5",
            "display": "Not Hispanic or Latino",
            "userSelected": true
          }
        }, {
          "url": "text",
          "valueString": "Not Hispanic or Latino"
        } ]
      }, {
        "url": "http://hl7.org/fhir/us/core/StructureDefinition/us-core-sex",
        "valueCode": "248153007"
      } ],
      "identifier": [ {
        "type": {
          "coding": [ {
            "system": "http://terminology.hl7.org/CodeSystem/v2-0203",
            "code": "MR"
          } ]
        },
        "system": "https://madie.cms.gov/",
        "value": "2EncounterBothNotAtrisk"
      } ],
      "active": true,
      "name": [ {
        "use": "usual",
        "text": "2EncounterBothNotAtrisk",
        "family": "MSROBSPass1",
        "given": [ "2EncounterBothNotAtrisk" ]
      } ],
      "gender": "male",
      "birthDate": "1954-01-01",
      "address": [ {
        "text": "2EncounterBothNotAtrisk, Screened at risk then not at risk, ID=2EncounterBothNotAtrisk, DOB: 01 Jan 1954"
      } ]
    },
    "request": {
      "method": "PUT",
      "url": "Patient/e87069c9-7889-4954-858f-33d6ad24cd7a"
    }
  }, {
    "fullUrl": "https://madie.cms.gov/Encounter/70e33357-1396-4004-bca9-5889d646533c",
    "resource": {
      "resourceType": "Encounter",
      "id": "70e33357-1396-4004-bca9-5889d646533c",
      "meta": {
        "profile": [ "http://hl7.org/fhir/us/qicore/StructureDefinition/qicore-encounter" ]
      },
      "status": "finished",
      "class": {
        "system": "http://terminology.hl7.org/CodeSystem/v3-ActCode",
        "code": "IMP",
        "display": "inpatient encounter"
      },
      "type": [ {
        "coding": [ {
          "system": "http://snomed.info/sct",
          "code": "183452005"
        } ]
      } ],
      "subject": {
        "reference": "Patient/e87069c9-7889-4954-858f-33d6ad24cd7a"
      },
      "period": {
        "start": "2026-10-01T08:00:00.000+00:00",
        "end": "2026-10-07T08:15:00.000+00:00"
      }
    },
    "request": {
      "method": "PUT",
      "url": "Encounter/70e33357-1396-4004-bca9-5889d646533c"
    }
  }, {
    "fullUrl": "https://madie.cms.gov/Condition/60f1aedb-cf7c-4c15-8dc3-30792cb545b4",
    "resource": {
      "resourceType": "Condition",
      "id": "60f1aedb-cf7c-4c15-8dc3-30792cb545b4",
      "meta": {
        "profile": [ "http://hl7.org/fhir/us/qicore/StructureDefinition/qicore-condition-encounter-diagnosis" ]
      },
      "clinicalStatus": {
        "coding": [ {
          "system": "http://terminology.hl7.org/CodeSystem/condition-clinical",
          "code": "active",
          "display": "Active",
          "userSelected": true
        } ]
      },
      "verificationStatus": {
        "coding": [ {
          "system": "http://terminology.hl7.org/CodeSystem/condition-ver-status",
          "code": "confirmed",
          "display": "Confirmed",
          "userSelected": true
        } ]
      },
      "category": [ {
        "coding": [ {
          "system": "http://terminology.hl7.org/CodeSystem/condition-category",
          "code": "encounter-diagnosis",
          "display": "Encounter Diagnosis",
          "userSelected": true
        } ]
      } ],
      "code": {
        "coding": [ {
          "system": "http://hl7.org/fhir/sid/icd-10-cm",
          "code": "O25.2",
          "display": "Malnutrition in childbirth",
          "userSelected": true
        } ]
      },
      "subject": {
        "reference": "Patient/e87069c9-7889-4954-858f-33d6ad24cd7a"
      },
      "onsetPeriod": {
        "start": "2026-10-01T08:00:00.000+00:00"
      },
      "recordedDate": "2026-10-01T11:00:00.000+00:00"
    },
    "request": {
      "method": "PUT",
      "url": "Condition/60f1aedb-cf7c-4c15-8dc3-30792cb545b4"
    }
  }, {
    "fullUrl": "https://madie.cms.gov/Observation/79c4f0fc-08d5-486d-acf4-831231164fe0",
    "resource": {
      "resourceType": "Observation",
      "id": "79c4f0fc-08d5-486d-acf4-831231164fe0",
      "meta": {
        "profile": [ "http://hl7.org/fhir/us/qicore/StructureDefinition/qicore-observation-screening-assessment" ]
      },
      "status": "final",
      "category": [ {
        "coding": [ {
          "system": "http://terminology.hl7.org/CodeSystem/observation-category",
          "code": "survey",
          "display": "Survey"
        } ]
      } ],
      "code": {
        "coding": [ {
          "system": "http://loinc.org",
          "code": "98967-3",
          "display": "Nutritional Risk Screening 2002 panel",
          "userSelected": true
        } ]
      },
      "subject": {
        "reference": "Patient/e87069c9-7889-4954-858f-33d6ad24cd7a"
      },
      "effectiveDateTime": "2026-10-01T09:00:00.000+00:00",
      "valueCodeableConcept": {
        "coding": [ {
          "system": "http://loinc.org",
          "code": "LA33699-2",
          "display": "Not at risk for malnutrition",
          "userSelected": true
        } ]
      }
    },
    "request": {
      "method": "PUT",
      "url": "Observation/79c4f0fc-08d5-486d-acf4-831231164fe0"
    }
  }, {
    "fullUrl": "https://madie.cms.gov/Observation/5b34eace-6c91-4c8d-b365-db47de4aa668",
    "resource": {
      "resourceType": "Observation",
      "id": "5b34eace-6c91-4c8d-b365-db47de4aa668",
      "meta": {
        "profile": [ "http://hl7.org/fhir/us/qicore/StructureDefinition/qicore-observation-screening-assessment" ]
      },
      "status": "final",
      "category": [ {
        "coding": [ {
          "system": "http://terminology.hl7.org/CodeSystem/observation-category",
          "code": "survey",
          "display": "Survey"
        } ]
      } ],
      "code": {
        "coding": [ {
          "system": "http://loinc.org",
          "code": "75282-4",
          "display": "Nutrition assessment panel",
          "userSelected": true
        } ]
      },
      "subject": {
        "reference": "Patient/e87069c9-7889-4954-858f-33d6ad24cd7a"
      },
      "effectiveDateTime": "2026-10-01T10:00:00.000+00:00",
      "valueCodeableConcept": {
        "coding": [ {
          "system": "http://snomed.info/sct",
          "code": "102636009",
          "display": "Chronic nutritional deficiency (finding)",
          "userSelected": true
        } ]
      }
    },
    "request": {
      "method": "PUT",
      "url": "Observation/5b34eace-6c91-4c8d-b365-db47de4aa668"
    }
  }, {
    "fullUrl": "https://madie.cms.gov/Procedure/e85fe5bd-168d-40a6-8a20-4637146f26c6",
    "resource": {
      "resourceType": "Procedure",
      "id": "e85fe5bd-168d-40a6-8a20-4637146f26c6",
      "meta": {
        "profile": [ "http://hl7.org/fhir/us/qicore/StructureDefinition/qicore-procedure" ]
      },
      "extension": [ {
        "url": "http://hl7.org/fhir/us/qicore/StructureDefinition/qicore-recorded",
        "valueDateTime": "2025-10-02T11:30:00.000+00:00"
      } ],
      "status": "completed",
      "code": {
        "coding": [ {
          "system": "http://snomed.info/sct",
          "code": "410175003",
          "display": "Dietary regime management (procedure)"
        } ],
        "text": "Dietary regime management (procedure"
      },
      "subject": {
        "reference": "Patient/e87069c9-7889-4954-858f-33d6ad24cd7a"
      },
      "encounter": {
        "reference": "Encounter/2EncounterBothNotAtriskMSROBSPass4"
      },
      "performedPeriod": {
        "start": "2026-10-01T11:30:00.000+00:00",
        "end": "2026-10-07T08:15:00.000+00:00"
      }
    },
    "request": {
      "method": "PUT",
      "url": "Procedure/e85fe5bd-168d-40a6-8a20-4637146f26c6"
    }
  }, {
    "fullUrl": "https://madie.cms.gov/Coverage/f463a3d4-13f2-4727-9438-2288b5bcb4e6",
    "resource": {
      "resourceType": "Coverage",
      "id": "f463a3d4-13f2-4727-9438-2288b5bcb4e6",
      "meta": {
        "profile": [ "http://hl7.org/fhir/us/qicore/StructureDefinition/qicore-coverage" ]
      },
      "status": "active",
      "type": {
        "coding": [ {
          "system": "https://nahdo.org/sopt",
          "version": "9.2",
          "code": "11",
          "display": "Medicare Managed Care (Includes Medicare Advantage Plans)"
        } ]
      },
      "subscriberId": "97531",
      "beneficiary": {
        "reference": "Patient/e87069c9-7889-4954-858f-33d6ad24cd7a"
      },
      "dependent": "0",
      "relationship": {
        "coding": [ {
          "system": "http://terminology.hl7.org/CodeSystem/subscriber-relationship",
          "code": "self"
        } ]
      },
      "period": {
        "start": "2024-10-01T00:00:00.000+00:00"
      },
      "payor": [ {
        "reference": "Organization/5257eb78-6079-42c2-971c-e0442f2c222b"
      } ]
    },
    "request": {
      "method": "PUT",
      "url": "Coverage/f463a3d4-13f2-4727-9438-2288b5bcb4e6"
    }
  }, {
    "fullUrl": "https://madie.cms.gov/Encounter/f969b493-3632-44f2-a824-01a007b381e6",
    "resource": {
      "resourceType": "Encounter",
      "id": "f969b493-3632-44f2-a824-01a007b381e6",
      "meta": {
        "profile": [ "http://hl7.org/fhir/us/qicore/StructureDefinition/qicore-encounter" ]
      },
      "status": "finished",
      "class": {
        "system": "http://terminology.hl7.org/CodeSystem/v3-ActCode",
        "code": "IMP",
        "display": "inpatient encounter"
      },
      "type": [ {
        "coding": [ {
          "system": "http://snomed.info/sct",
          "code": "183452005"
        } ]
      } ],
      "subject": {
        "reference": "Patient/e87069c9-7889-4954-858f-33d6ad24cd7a"
      },
      "period": {
        "start": "2026-08-01T08:00:00.000+00:00",
        "end": "2026-08-07T08:15:00.000+00:00"
      }
    },
    "request": {
      "method": "PUT",
      "url": "Encounter/f969b493-3632-44f2-a824-01a007b381e6"
    }
  }, {
    "fullUrl": "https://madie.cms.gov/Condition/e5031e12-1dbc-4758-82ba-c13d9b113e40",
    "resource": {
      "resourceType": "Condition",
      "id": "e5031e12-1dbc-4758-82ba-c13d9b113e40",
      "meta": {
        "profile": [ "http://hl7.org/fhir/us/qicore/StructureDefinition/qicore-condition-encounter-diagnosis" ]
      },
      "clinicalStatus": {
        "coding": [ {
          "system": "http://terminology.hl7.org/CodeSystem/condition-clinical",
          "code": "active",
          "display": "Active",
          "userSelected": true
        } ]
      },
      "verificationStatus": {
        "coding": [ {
          "system": "http://terminology.hl7.org/CodeSystem/condition-ver-status",
          "code": "confirmed",
          "display": "Confirmed",
          "userSelected": true
        } ]
      },
      "category": [ {
        "coding": [ {
          "system": "http://terminology.hl7.org/CodeSystem/condition-category",
          "code": "encounter-diagnosis",
          "display": "Encounter Diagnosis",
          "userSelected": true
        } ]
      } ],
      "code": {
        "coding": [ {
          "system": "http://snomed.info/sct",
          "code": "190606006",
          "display": "Moderate protein energy malnutrition (disorder)",
          "userSelected": true
        } ]
      },
      "subject": {
        "reference": "Patient/e87069c9-7889-4954-858f-33d6ad24cd7a"
      },
      "onsetPeriod": {
        "start": "2026-08-01T08:00:00.000+00:00"
      },
      "recordedDate": "2026-08-01T11:00:00.000+00:00"
    },
    "request": {
      "method": "PUT",
      "url": "Condition/e5031e12-1dbc-4758-82ba-c13d9b113e40"
    }
  }, {
    "fullUrl": "https://madie.cms.gov/Observation/1a91842a-e299-490f-ba5f-17df1ce5fb37",
    "resource": {
      "resourceType": "Observation",
      "id": "1a91842a-e299-490f-ba5f-17df1ce5fb37",
      "meta": {
        "profile": [ "http://hl7.org/fhir/us/qicore/StructureDefinition/qicore-observation-screening-assessment" ]
      },
      "status": "final",
      "category": [ {
        "coding": [ {
          "system": "http://terminology.hl7.org/CodeSystem/observation-category",
          "code": "survey",
          "display": "Survey"
        } ]
      } ],
      "code": {
        "coding": [ {
          "system": "http://loinc.org",
          "code": "75282-4",
          "display": "Nutrition assessment panel",
          "userSelected": true
        } ]
      },
      "subject": {
        "reference": "Patient/e87069c9-7889-4954-858f-33d6ad24cd7a"
      },
      "effectiveDateTime": "2026-08-01T10:00:00.000+00:00",
      "valueCodeableConcept": {
        "coding": [ {
          "system": "http://snomed.info/sct",
          "code": "102636009",
          "display": "Chronic nutritional deficiency (finding)",
          "userSelected": true
        } ]
      }
    },
    "request": {
      "method": "PUT",
      "url": "Observation/1a91842a-e299-490f-ba5f-17df1ce5fb37"
    }
  }, {
    "fullUrl": "https://madie.cms.gov/Observation/b098c3b9-17ab-4331-b353-95d0d0c2488a",
    "resource": {
      "resourceType": "Observation",
      "id": "b098c3b9-17ab-4331-b353-95d0d0c2488a",
      "meta": {
        "profile": [ "http://hl7.org/fhir/us/qicore/StructureDefinition/qicore-observation-screening-assessment" ]
      },
      "status": "final",
      "category": [ {
        "coding": [ {
          "system": "http://terminology.hl7.org/CodeSystem/observation-category",
          "code": "survey",
          "display": "Survey"
        } ]
      } ],
      "code": {
        "coding": [ {
          "system": "http://loinc.org",
          "code": "98968-1",
          "display": "Initial screening NRS_2002",
          "userSelected": true
        } ]
      },
      "subject": {
        "reference": "Patient/e87069c9-7889-4954-858f-33d6ad24cd7a"
      },
      "effectiveDateTime": "2026-08-01T09:00:00.000+00:00",
      "valueCodeableConcept": {
        "coding": [ {
          "system": "http://loinc.org",
          "code": "LA33699-2",
          "display": "Not at risk for malnutrition",
          "userSelected": true
        } ]
      }
    },
    "request": {
      "method": "PUT",
      "url": "Observation/b098c3b9-17ab-4331-b353-95d0d0c2488a"
    }
  }, {
    "fullUrl": "https://madie.cms.gov/Procedure/86e006e3-cddf-4d6a-b923-fe92ea28c1ce",
    "resource": {
      "resourceType": "Procedure",
      "id": "86e006e3-cddf-4d6a-b923-fe92ea28c1ce",
      "meta": {
        "profile": [ "http://hl7.org/fhir/us/qicore/StructureDefinition/qicore-procedure" ]
      },
      "extension": [ {
        "url": "http://hl7.org/fhir/us/qicore/StructureDefinition/qicore-recorded",
        "valueDateTime": "2026-08-02T11:30:00.000+00:00"
      } ],
      "status": "completed",
      "code": {
        "coding": [ {
          "system": "http://snomed.info/sct",
          "code": "413315001",
          "display": "Nutrition / feeding management (regime/therapy)"
        } ],
        "text": "Nutrition / feeding management (regime/therapy)"
      },
      "subject": {
        "reference": "Patient/e87069c9-7889-4954-858f-33d6ad24cd7a"
      },
      "encounter": {
        "reference": "Encounter/2EncounterBothNotAtriskMSROBSPass4"
      },
      "performedPeriod": {
        "start": "2026-08-01T11:30:00.000+00:00",
        "end": "2026-08-07T08:15:00.000+00:00"
      }
    },
    "request": {
      "method": "PUT",
      "url": "Procedure/86e006e3-cddf-4d6a-b923-fe92ea28c1ce"
    }
  }, {
    "fullUrl": "https://madie.cms.gov/Coverage/07bc7d12-6a30-41fb-aaa2-1e28b591b5ea",
    "resource": {
      "resourceType": "Coverage",
      "id": "07bc7d12-6a30-41fb-aaa2-1e28b591b5ea",
      "meta": {
        "profile": [ "http://hl7.org/fhir/us/qicore/StructureDefinition/qicore-coverage" ]
      },
      "status": "active",
      "type": {
        "coding": [ {
          "system": "https://nahdo.org/sopt",
          "version": "9.2",
          "code": "11",
          "display": "Medicare Managed Care (Includes Medicare Advantage Plans)"
        } ]
      },
      "subscriberId": "97531",
      "beneficiary": {
        "reference": "Patient/e87069c9-7889-4954-858f-33d6ad24cd7a"
      },
      "dependent": "0",
      "relationship": {
        "coding": [ {
          "system": "http://terminology.hl7.org/CodeSystem/subscriber-relationship",
          "code": "self"
        } ]
      },
      "period": {
        "start": "2024-10-01T00:00:00.000+00:00"
      },
      "payor": [ {
        "reference": "Organization/5257eb78-6079-42c2-971c-e0442f2c222b"
      } ]
    },
    "request": {
      "method": "PUT",
      "url": "Coverage/07bc7d12-6a30-41fb-aaa2-1e28b591b5ea"
    }
  }, {
    "fullUrl": "https://madie.cms.gov/Organization/5257eb78-6079-42c2-971c-e0442f2c222b",
    "resource": {
      "resourceType": "Organization",
      "id": "5257eb78-6079-42c2-971c-e0442f2c222b",
      "meta": {
        "profile": [ "http://hl7.org/fhir/us/qicore/StructureDefinition/qicore-organization" ]
      },
      "identifier": [ {
        "use": "temp",
        "system": "urn:oid:2.16.840.1.113883.4.4",
        "value": "21-3259825"
      } ],
      "active": true,
      "type": [ {
        "coding": [ {
          "system": "http://terminology.hl7.org/CodeSystem/organization-type",
          "code": "pay",
          "display": "Payer"
        } ]
      } ],
      "name": "Blue Cross Blue Shield of Texas",
      "telecom": [ {
        "system": "phone",
        "value": "(+1) 972-766-6900"
      } ],
      "address": [ {
        "use": "billing",
        "type": "postal",
        "line": [ "P.O. Box 660044" ],
        "city": "Dallas",
        "state": "TX",
        "postalCode": "75266-0044",
        "country": "USA"
      } ]
    },
    "request": {
      "method": "PUT",
      "url": "Organization/5257eb78-6079-42c2-971c-e0442f2c222b"
    }
  }, {
    "fullUrl": "https://madie.cms.gov/MeasureReport/eb2a09f3-f637-4676-9420-576ac9a1a8eb",
    "resource": {
      "resourceType": "MeasureReport",
      "id": "eb2a09f3-f637-4676-9420-576ac9a1a8eb",
      "meta": {
        "profile": [ "http://hl7.org/fhir/us/cqfmeasures/StructureDefinition/test-case-cqfm" ]
      },
      "contained": [ {
        "resourceType": "Parameters",
        "id": "d391fe17-c990-424d-b4e9-e92a0e8ef905-parameters",
        "parameter": [ {
          "name": "subject",
          "valueString": "e87069c9-7889-4954-858f-33d6ad24cd7a"
        } ]
      } ],
      "extension": [ {
        "url": "http://hl7.org/fhir/StructureDefinition/cqf-inputParameters",
        "valueReference": {
          "reference": "#d391fe17-c990-424d-b4e9-e92a0e8ef905-parameters"
        }
      }, {
        "url": "http://hl7.org/fhir/us/cqfmeasures/StructureDefinition/cqfm-testCaseDescription",
        "valueMarkdown": "2 encounters both screens not at risk, no referral"
      } ],
      "modifierExtension": [ {
        "url": "http://hl7.org/fhir/us/cqfmeasures/StructureDefinition/cqfm-isTestCase",
        "valueBoolean": true
      } ],
      "status": "complete",
      "type": "individual",
      "measure": "https://madie.cms.gov/Measure/CMS986FHIRMalnutritionScore",
      "period": {
        "start": "2026-01-01",
        "end": "2026-12-31"
      },
      "group": [ {
        "id": "Group_1",
        "population": [ {
          "id": "InitialPopulation_1",
          "code": {
            "coding": [ {
              "system": "http://terminology.hl7.org/CodeSystem/measure-population",
              "code": "initial-population",
              "display": "Initial Population"
            } ]
          },
          "count": 2
        }, {
          "id": "MeasurePopulation_1",
          "code": {
            "coding": [ {
              "system": "http://terminology.hl7.org/CodeSystem/measure-population",
              "code": "measure-population",
              "display": "Measure Population"
            } ]
          },
          "count": 2
        }, {
          "id": "MeasurePopulationExclusion_1",
          "code": {
            "coding": [ {
              "system": "http://terminology.hl7.org/CodeSystem/measure-population",
              "code": "measure-population-exclusion",
              "display": "Measure Population Exclusion"
            } ]
          },
          "count": 0
        }, {
          "id": "MeasureObservation_1_1",
          "code": {
            "coding": [ {
              "system": "http://terminology.hl7.org/CodeSystem/measure-population",
              "code": "measure-population-observation",
              "display": "Measure Population Observation"
            } ]
          },
          "count": 1
        }, {
          "id": "MeasureObservation_1_2",
          "code": {
            "coding": [ {
              "system": "http://terminology.hl7.org/CodeSystem/measure-population",
              "code": "measure-population-observation",
              "display": "Measure Population Observation"
            } ]
          },
          "count": 1
        } ],
        "measureScore": {
          "value": 0.0
        }
      }, {
        "id": "Group_2",
        "population": [ {
          "id": "InitialPopulation_2",
          "code": {
            "coding": [ {
              "system": "http://terminology.hl7.org/CodeSystem/measure-population",
              "code": "initial-population",
              "display": "Initial Population"
            } ]
          },
          "count": 2
        }, {
          "id": "MeasurePopulation_2",
          "code": {
            "coding": [ {
              "system": "http://terminology.hl7.org/CodeSystem/measure-population",
              "code": "measure-population",
              "display": "Measure Population"
            } ]
          },
          "count": 2
        }, {
          "id": "MeasurePopulationExclusion_2",
          "code": {
            "coding": [ {
              "system": "http://terminology.hl7.org/CodeSystem/measure-population",
              "code": "measure-population-exclusion",
              "display": "Measure Population Exclusion"
            } ]
          },
          "count": 0
        }, {
          "id": "MeasureObservation_2_1",
          "code": {
            "coding": [ {
              "system": "http://terminology.hl7.org/CodeSystem/measure-population",
              "code": "measure-population-observation",
              "display": "Measure Population Observation"
            } ]
          },
          "count": 0
        }, {
          "id": "MeasureObservation_2_2",
          "code": {
            "coding": [ {
              "system": "http://terminology.hl7.org/CodeSystem/measure-population",
              "code": "measure-population-observation",
              "display": "Measure Population Observation"
            } ]
          },
          "count": 0
        } ],
        "measureScore": {
          "value": 0.0
        }
      }, {
        "id": "Group_3",
        "population": [ {
          "id": "InitialPopulation_3",
          "code": {
            "coding": [ {
              "system": "http://terminology.hl7.org/CodeSystem/measure-population",
              "code": "initial-population",
              "display": "Initial Population"
            } ]
          },
          "count": 2
        }, {
          "id": "MeasurePopulation_3",
          "code": {
            "coding": [ {
              "system": "http://terminology.hl7.org/CodeSystem/measure-population",
              "code": "measure-population",
              "display": "Measure Population"
            } ]
          },
          "count": 2
        }, {
          "id": "MeasurePopulationExclusion_3",
          "code": {
            "coding": [ {
              "system": "http://terminology.hl7.org/CodeSystem/measure-population",
              "code": "measure-population-exclusion",
              "display": "Measure Population Exclusion"
            } ]
          },
          "count": 0
        }, {
          "id": "MeasureObservation_3_1",
          "code": {
            "coding": [ {
              "system": "http://terminology.hl7.org/CodeSystem/measure-population",
              "code": "measure-population-observation",
              "display": "Measure Population Observation"
            } ]
          },
          "count": 0
        }, {
          "id": "MeasureObservation_3_2",
          "code": {
            "coding": [ {
              "system": "http://terminology.hl7.org/CodeSystem/measure-population",
              "code": "measure-population-observation",
              "display": "Measure Population Observation"
            } ]
          },
          "count": 0
        } ],
        "measureScore": {
          "value": 0.0
        }
      }, {
        "id": "Group_4",
        "population": [ {
          "id": "InitialPopulation_4",
          "code": {
            "coding": [ {
              "system": "http://terminology.hl7.org/CodeSystem/measure-population",
              "code": "initial-population",
              "display": "Initial Population"
            } ]
          },
          "count": 2
        }, {
          "id": "MeasurePopulation_4",
          "code": {
            "coding": [ {
              "system": "http://terminology.hl7.org/CodeSystem/measure-population",
              "code": "measure-population",
              "display": "Measure Population"
            } ]
          },
          "count": 2
        }, {
          "id": "MeasurePopulationExclusion_4",
          "code": {
            "coding": [ {
              "system": "http://terminology.hl7.org/CodeSystem/measure-population",
              "code": "measure-population-exclusion",
              "display": "Measure Population Exclusion"
            } ]
          },
          "count": 0
        }, {
          "id": "MeasureObservation_4_1",
          "code": {
            "coding": [ {
              "system": "http://terminology.hl7.org/CodeSystem/measure-population",
              "code": "measure-population-observation",
              "display": "Measure Population Observation"
            } ]
          },
          "count": 0
        }, {
          "id": "MeasureObservation_4_2",
          "code": {
            "coding": [ {
              "system": "http://terminology.hl7.org/CodeSystem/measure-population",
              "code": "measure-population-observation",
              "display": "Measure Population Observation"
            } ]
          },
          "count": 0
        } ],
        "measureScore": {
          "value": 0.0
        }
      }, {
        "id": "Group_5",
        "population": [ {
          "id": "InitialPopulation_5",
          "code": {
            "coding": [ {
              "system": "http://terminology.hl7.org/CodeSystem/measure-population",
              "code": "initial-population",
              "display": "Initial Population"
            } ]
          },
          "count": 2
        }, {
          "id": "MeasurePopulation_5",
          "code": {
            "coding": [ {
              "system": "http://terminology.hl7.org/CodeSystem/measure-population",
              "code": "measure-population",
              "display": "Measure Population"
            } ]
          },
          "count": 2
        }, {
          "id": "MeasurePopulationExclusion_5",
          "code": {
            "coding": [ {
              "system": "http://terminology.hl7.org/CodeSystem/measure-population",
              "code": "measure-population-exclusion",
              "display": "Measure Population Exclusion"
            } ]
          },
          "count": 0
        }, {
          "id": "MeasureObservation_5_1",
          "code": {
            "coding": [ {
              "system": "http://terminology.hl7.org/CodeSystem/measure-population",
              "code": "measure-population-observation",
              "display": "Measure Population Observation"
            } ]
          },
          "count": 1
        }, {
          "id": "MeasureObservation_5_2",
          "code": {
            "coding": [ {
              "system": "http://terminology.hl7.org/CodeSystem/measure-population",
              "code": "measure-population-observation",
              "display": "Measure Population Observation"
            } ]
          },
          "count": 1
        } ],
        "measureScore": {
          "value": 0.0
        }
      }, {
        "id": "Group_6",
        "population": [ {
          "id": "InitialPopulation_6",
          "code": {
            "coding": [ {
              "system": "http://terminology.hl7.org/CodeSystem/measure-population",
              "code": "initial-population",
              "display": "Initial Population"
            } ]
          },
          "count": 2
        }, {
          "id": "MeasurePopulation_6",
          "code": {
            "coding": [ {
              "system": "http://terminology.hl7.org/CodeSystem/measure-population",
              "code": "measure-population",
              "display": "Measure Population"
            } ]
          },
          "count": 2
        }, {
          "id": "MeasurePopulationExclusion_6",
          "code": {
            "coding": [ {
              "system": "http://terminology.hl7.org/CodeSystem/measure-population",
              "code": "measure-population-exclusion",
              "display": "Measure Population Exclusion"
            } ]
          },
          "count": 0
        }, {
          "id": "MeasureObservation_6_1",
          "code": {
            "coding": [ {
              "system": "http://terminology.hl7.org/CodeSystem/measure-population",
              "code": "measure-population-observation",
              "display": "Measure Population Observation"
            } ]
          },
          "count": 100
        }, {
          "id": "MeasureObservation_6_2",
          "code": {
            "coding": [ {
              "system": "http://terminology.hl7.org/CodeSystem/measure-population",
              "code": "measure-population-observation",
              "display": "Measure Population Observation"
            } ]
          },
          "count": 100
        } ],
        "measureScore": {
          "value": 0.0
        }
      } ],
      "evaluatedResource": [ {
        "reference": "Patient/e87069c9-7889-4954-858f-33d6ad24cd7a"
      }, {
        "reference": "Encounter/70e33357-1396-4004-bca9-5889d646533c"
      }, {
        "reference": "Condition/60f1aedb-cf7c-4c15-8dc3-30792cb545b4"
      }, {
        "reference": "Observation/79c4f0fc-08d5-486d-acf4-831231164fe0"
      }, {
        "reference": "Observation/5b34eace-6c91-4c8d-b365-db47de4aa668"
      }, {
        "reference": "Procedure/e85fe5bd-168d-40a6-8a20-4637146f26c6"
      }, {
        "reference": "Coverage/f463a3d4-13f2-4727-9438-2288b5bcb4e6"
      }, {
        "reference": "Encounter/f969b493-3632-44f2-a824-01a007b381e6"
      }, {
        "reference": "Condition/e5031e12-1dbc-4758-82ba-c13d9b113e40"
      }, {
        "reference": "Observation/1a91842a-e299-490f-ba5f-17df1ce5fb37"
      }, {
        "reference": "Observation/b098c3b9-17ab-4331-b353-95d0d0c2488a"
      }, {
        "reference": "Procedure/86e006e3-cddf-4d6a-b923-fe92ea28c1ce"
      }, {
        "reference": "Coverage/07bc7d12-6a30-41fb-aaa2-1e28b591b5ea"
      }, {
        "reference": "Organization/5257eb78-6079-42c2-971c-e0442f2c222b"
      } ]
    },
    "request": {
      "method": "PUT",
      "url": "MeasureReport/eb2a09f3-f637-4676-9420-576ac9a1a8eb"
    }
  } ]
}