{
  "resourceType": "Bundle",
  "id": "612e6af902c62a011f2ebf85",
  "type": "transaction",
  "entry": [ {
    "fullUrl": "https://madie.cms.gov/Patient/cbd1de91-441a-4588-b000-2e589d099ab6",
    "resource": {
      "resourceType": "Patient",
      "id": "cbd1de91-441a-4588-b000-2e589d099ab6",
      "meta": {
        "profile": [ "http://hl7.org/fhir/us/qicore/StructureDefinition/qicore-patient" ]
      },
      "text": {
        "status": "generated",
        "div": "<div xmlns=\"http://www.w3.org/1999/xhtml\"><div class=\"hapiHeaderText\">MA_OralXaHipOnEncStartTime <b>NUMERPASS </b></div><table class=\"hapiPropertyTable\"><tbody><tr><td>Date of birth</td><td><span>02 January 1974</span></td></tr></tbody></table></div>"
      },
      "extension": [ {
        "url": "http://hl7.org/fhir/us/core/StructureDefinition/us-core-race",
        "extension": [ {
          "url": "ombCategory",
          "valueCoding": {
            "system": "urn:oid:2.16.840.1.113883.6.238",
            "code": "1002-5",
            "display": "American Indian or Alaska Native",
            "userSelected": true
          }
        }, {
          "url": "text",
          "valueString": "American Indian or Alaska Native"
        } ]
      }, {
        "url": "http://hl7.org/fhir/us/core/StructureDefinition/us-core-ethnicity",
        "extension": [ {
          "url": "ombCategory",
          "valueCoding": {
            "system": "urn:oid:2.16.840.1.113883.6.238",
            "code": "2135-2",
            "display": "Hispanic or Latino",
            "userSelected": true
          }
        }, {
          "url": "text",
          "valueString": "Hispanic or Latino"
        } ]
      } ],
      "identifier": [ {
        "type": {
          "coding": [ {
            "system": "http://terminology.hl7.org/CodeSystem/v2-0203",
            "code": "MR"
          } ]
        },
        "system": "https://bonnie-fhir.healthit.gov/",
        "value": "612e6af902c62a011f2ebf85"
      } ],
      "active": true,
      "name": [ {
        "use": "usual",
        "family": "NUMERPass",
        "given": [ "MAOralXaHipOnEncStartTime" ]
      } ],
      "gender": "female",
      "birthDate": "1975-01-02"
    },
    "request": {
      "method": "PUT",
      "url": "Patient/cbd1de91-441a-4588-b000-2e589d099ab6"
    }
  }, {
    "fullUrl": "https://madie.cms.gov/Encounter/811bd6a5-a5e7-40a8-8fea-347019317d1f",
    "resource": {
      "resourceType": "Encounter",
      "id": "811bd6a5-a5e7-40a8-8fea-347019317d1f",
      "meta": {
        "profile": [ "http://hl7.org/fhir/us/qicore/StructureDefinition/qicore-encounter" ]
      },
      "status": "finished",
      "class": {
        "system": "http://terminology.hl7.org/CodeSystem/v3-ActCode",
        "code": "IMP",
        "display": "inpatient encounter"
      },
      "type": [ {
        "coding": [ {
          "system": "http://snomed.info/sct",
          "code": "183452005"
        } ]
      } ],
      "subject": {
        "reference": "Patient/cbd1de91-441a-4588-b000-2e589d099ab6"
      },
      "period": {
        "start": "2026-11-01T08:00:00.000+00:00",
        "end": "2026-11-26T08:15:00.000+00:00"
      },
      "length": {
        "value": 25,
        "unit": "day"
      }
    },
    "request": {
      "method": "PUT",
      "url": "Encounter/811bd6a5-a5e7-40a8-8fea-347019317d1f"
    }
  }, {
    "fullUrl": "https://madie.cms.gov/Coverage/067c1e7e-5c7d-4a38-91d8-aff412429cfa",
    "resource": {
      "resourceType": "Coverage",
      "id": "067c1e7e-5c7d-4a38-91d8-aff412429cfa",
      "status": "active",
      "beneficiary": {
        "reference": "Patient/cbd1de91-441a-4588-b000-2e589d099ab6"
      },
      "period": {
        "start": "1975-01-02T08:00:00.000+00:00"
      },
      "payor": [ {
        "reference": "Organization/63cfebdf-93f9-4290-bf81-bf7099fd11ac"
      } ]
    },
    "request": {
      "method": "PUT",
      "url": "Coverage/067c1e7e-5c7d-4a38-91d8-aff412429cfa"
    }
  }, {
    "fullUrl": "https://madie.cms.gov/MedicationAdministration/03e0f7cd-43c7-43d9-890e-07eb4d1567cc",
    "resource": {
      "resourceType": "MedicationAdministration",
      "id": "03e0f7cd-43c7-43d9-890e-07eb4d1567cc",
      "meta": {
        "profile": [ "http://hl7.org/fhir/us/qicore/StructureDefinition/qicore-medicationadministration" ]
      },
      "status": "completed",
      "medicationCodeableConcept": {
        "coding": [ {
          "system": "http://www.nlm.nih.gov/research/umls/rxnorm",
          "code": "1599543"
        } ]
      },
      "subject": {
        "reference": "Patient/cbd1de91-441a-4588-b000-2e589d099ab6"
      },
      "effectivePeriod": {
        "start": "2026-11-01T08:00:00.000+00:00"
      }
    },
    "request": {
      "method": "PUT",
      "url": "MedicationAdministration/03e0f7cd-43c7-43d9-890e-07eb4d1567cc"
    }
  }, {
    "fullUrl": "https://madie.cms.gov/Procedure/2b25f94e-75bd-475c-987f-fbe9ccface16",
    "resource": {
      "resourceType": "Procedure",
      "id": "2b25f94e-75bd-475c-987f-fbe9ccface16",
      "meta": {
        "profile": [ "http://hl7.org/fhir/us/qicore/StructureDefinition/qicore-procedure" ]
      },
      "extension": [ {
        "url": "http://hl7.org/fhir/us/qicore/StructureDefinition/qicore-recorded",
        "valueDateTime": "2013-11-01T13:35:00.000+00:00"
      } ],
      "status": "completed",
      "code": {
        "coding": [ {
          "system": "http://snomed.info/sct",
          "code": "68491008"
        } ]
      },
      "subject": {
        "reference": "Patient/cbd1de91-441a-4588-b000-2e589d099ab6"
      },
      "performedPeriod": {
        "start": "2026-11-01T08:00:00.000+00:00",
        "end": "2026-11-01T10:15:00.000+00:00"
      }
    },
    "request": {
      "method": "PUT",
      "url": "Procedure/2b25f94e-75bd-475c-987f-fbe9ccface16"
    }
  }, {
    "fullUrl": "https://madie.cms.gov/Organization/63cfebdf-93f9-4290-bf81-bf7099fd11ac",
    "resource": {
      "resourceType": "Organization",
      "id": "63cfebdf-93f9-4290-bf81-bf7099fd11ac",
      "meta": {
        "profile": [ "http://hl7.org/fhir/us/qicore/StructureDefinition/qicore-organization" ]
      },
      "identifier": [ {
        "use": "temp",
        "system": "urn:oid:2.16.840.1.113883.4.4",
        "value": "21-3259825"
      } ],
      "active": true,
      "type": [ {
        "coding": [ {
          "system": "http://terminology.hl7.org/CodeSystem/organization-type",
          "code": "pay",
          "display": "Payer"
        } ]
      } ],
      "name": "Blue Cross Blue Shield of Texas",
      "telecom": [ {
        "system": "phone",
        "value": "(+1) 972-766-6900"
      } ],
      "address": [ {
        "use": "billing",
        "type": "postal",
        "line": [ "P.O. Box 660044" ],
        "city": "Dallas",
        "state": "TX",
        "postalCode": "75266-0044",
        "country": "USA"
      } ]
    },
    "request": {
      "method": "PUT",
      "url": "Organization/63cfebdf-93f9-4290-bf81-bf7099fd11ac"
    }
  }, {
    "fullUrl": "https://madie.cms.gov/Practitioner/7fd9b71c-eba8-4dde-b76c-2ffa5fd09b57",
    "resource": {
      "resourceType": "Practitioner",
      "id": "7fd9b71c-eba8-4dde-b76c-2ffa5fd09b57",
      "identifier": [ {
        "system": "http://hl7.org/fhir/sid/us-npi",
        "value": "123456"
      } ],
      "name": [ {
        "family": "Evil",
        "prefix": [ "Dr" ]
      } ]
    },
    "request": {
      "method": "PUT",
      "url": "Practitioner/7fd9b71c-eba8-4dde-b76c-2ffa5fd09b57"
    }
  }, {
    "fullUrl": "https://madie.cms.gov/MeasureReport/6fafc10a-1c91-44b3-b0e3-91de3e1bff0f",
    "resource": {
      "resourceType": "MeasureReport",
      "id": "6fafc10a-1c91-44b3-b0e3-91de3e1bff0f",
      "meta": {
        "profile": [ "http://hl7.org/fhir/us/cqfmeasures/StructureDefinition/test-case-cqfm" ]
      },
      "contained": [ {
        "resourceType": "Parameters",
        "id": "3b83c611-7385-4637-a749-2ff6a41d8090-parameters",
        "parameter": [ {
          "name": "subject",
          "valueString": "cbd1de91-441a-4588-b000-2e589d099ab6"
        } ]
      } ],
      "extension": [ {
        "url": "http://hl7.org/fhir/StructureDefinition/cqf-inputParameters",
        "valueReference": {
          "reference": "#3b83c611-7385-4637-a749-2ff6a41d8090-parameters"
        }
      }, {
        "url": "http://hl7.org/fhir/us/cqfmeasures/StructureDefinition/cqfm-testCaseDescription",
        "valueMarkdown": "oral factor Xa administered concurrent with start of IP encounter, Hip replacement concurrent with Start of IP encounter\n"
      } ],
      "modifierExtension": [ {
        "url": "http://hl7.org/fhir/us/cqfmeasures/StructureDefinition/cqfm-isTestCase",
        "valueBoolean": true
      } ],
      "status": "complete",
      "type": "individual",
      "measure": "https://madie.cms.gov/Measure/CMS108FHIRVTEProphylaxis",
      "period": {
        "start": "2026-01-01",
        "end": "2026-12-31"
      },
      "group": [ {
        "id": "Group_1",
        "population": [ {
          "id": "InitialPopulation_1",
          "code": {
            "coding": [ {
              "system": "http://terminology.hl7.org/CodeSystem/measure-population",
              "code": "initial-population",
              "display": "Initial Population"
            } ]
          },
          "count": 1
        }, {
          "id": "Denominator_1",
          "code": {
            "coding": [ {
              "system": "http://terminology.hl7.org/CodeSystem/measure-population",
              "code": "denominator",
              "display": "Denominator"
            } ]
          },
          "count": 1
        }, {
          "id": "DenominatorExclusion_1",
          "code": {
            "coding": [ {
              "system": "http://terminology.hl7.org/CodeSystem/measure-population",
              "code": "denominator-exclusion",
              "display": "Denominator Exclusion"
            } ]
          },
          "count": 0
        }, {
          "id": "Numerator_1",
          "code": {
            "coding": [ {
              "system": "http://terminology.hl7.org/CodeSystem/measure-population",
              "code": "numerator",
              "display": "Numerator"
            } ]
          },
          "count": 1
        } ],
        "measureScore": {
          "value": 0.0
        }
      } ],
      "evaluatedResource": [ {
        "reference": "Patient/cbd1de91-441a-4588-b000-2e589d099ab6"
      }, {
        "reference": "Encounter/811bd6a5-a5e7-40a8-8fea-347019317d1f"
      }, {
        "reference": "Coverage/067c1e7e-5c7d-4a38-91d8-aff412429cfa"
      }, {
        "reference": "MedicationAdministration/03e0f7cd-43c7-43d9-890e-07eb4d1567cc"
      }, {
        "reference": "Procedure/2b25f94e-75bd-475c-987f-fbe9ccface16"
      }, {
        "reference": "Organization/63cfebdf-93f9-4290-bf81-bf7099fd11ac"
      }, {
        "reference": "Practitioner/7fd9b71c-eba8-4dde-b76c-2ffa5fd09b57"
      } ]
    },
    "request": {
      "method": "PUT",
      "url": "MeasureReport/6fafc10a-1c91-44b3-b0e3-91de3e1bff0f"
    }
  } ]
}