{
  "resourceType": "Bundle",
  "id": "60f82c2e98086b570510e28a",
  "type": "transaction",
  "entry": [ {
    "fullUrl": "https://madie.cms.gov/Patient/9915271c-d175-41e1-8550-2f698a2b9dc7",
    "resource": {
      "resourceType": "Patient",
      "id": "9915271c-d175-41e1-8550-2f698a2b9dc7",
      "meta": {
        "profile": [ "http://hl7.org/fhir/us/qicore/StructureDefinition/qicore-patient" ]
      },
      "text": {
        "status": "generated",
        "div": "<div xmlns=\"http://www.w3.org/1999/xhtml\"><div class=\"hapiHeaderText\">CMP&lt;1Day_DuringGap_ofEdandEncIP <b>DENEXPASS </b></div><table class=\"hapiPropertyTable\"><tbody><tr><td>Identifier</td><td>dad0cebb56286a674a92a9f3fadbb6cf</td></tr><tr><td>Date of birth</td><td><span>26 September 1975</span></td></tr></tbody></table></div>"
      },
      "extension": [ {
        "url": "http://hl7.org/fhir/us/core/StructureDefinition/us-core-race",
        "extension": [ {
          "url": "ombCategory",
          "valueCoding": {
            "system": "urn:oid:2.16.840.1.113883.6.238",
            "code": "2054-5",
            "display": "Black or African American",
            "userSelected": true
          }
        }, {
          "url": "text",
          "valueString": "Black or African American"
        } ]
      }, {
        "url": "http://hl7.org/fhir/us/core/StructureDefinition/us-core-ethnicity",
        "extension": [ {
          "url": "ombCategory",
          "valueCoding": {
            "system": "urn:oid:2.16.840.1.113883.6.238",
            "code": "2186-5",
            "display": "Not Hispanic or Latino",
            "userSelected": true
          }
        }, {
          "url": "text",
          "valueString": "Not Hispanic or Latino"
        } ]
      } ],
      "identifier": [ {
        "type": {
          "coding": [ {
            "system": "http://terminology.hl7.org/CodeSystem/v2-0203",
            "code": "MR"
          } ]
        },
        "system": "https://bonnie-fhir.healthit.gov/",
        "value": "60f82c2e98086b570510e28a"
      } ],
      "active": true,
      "name": [ {
        "use": "usual",
        "family": "DENEXPass",
        "given": [ "CMP<1DayDuringGapofEdandEncIP" ]
      } ],
      "gender": "female",
      "birthDate": "1976-09-26"
    },
    "request": {
      "method": "PUT",
      "url": "Patient/9915271c-d175-41e1-8550-2f698a2b9dc7"
    }
  }, {
    "fullUrl": "https://madie.cms.gov/Encounter/b6efe705-a2b5-43b9-aef5-26771e780de9",
    "resource": {
      "resourceType": "Encounter",
      "id": "b6efe705-a2b5-43b9-aef5-26771e780de9",
      "meta": {
        "profile": [ "http://hl7.org/fhir/us/qicore/StructureDefinition/qicore-encounter" ]
      },
      "status": "finished",
      "class": {
        "system": "http://terminology.hl7.org/CodeSystem/v3-ActCode",
        "code": "EMER",
        "display": "emergency",
        "userSelected": true
      },
      "type": [ {
        "coding": [ {
          "system": "http://snomed.info/sct",
          "code": "4525004"
        } ]
      } ],
      "subject": {
        "reference": "Patient/9915271c-d175-41e1-8550-2f698a2b9dc7"
      },
      "period": {
        "start": "2026-10-10T04:00:00.000+00:00",
        "end": "2026-10-10T06:15:00.000+00:00"
      },
      "length": {
        "value": 0,
        "unit": "days"
      }
    },
    "request": {
      "method": "PUT",
      "url": "Encounter/b6efe705-a2b5-43b9-aef5-26771e780de9"
    }
  }, {
    "fullUrl": "https://madie.cms.gov/Encounter/37a8a004-9d89-443d-b917-6bcdd08e79e4",
    "resource": {
      "resourceType": "Encounter",
      "id": "37a8a004-9d89-443d-b917-6bcdd08e79e4",
      "meta": {
        "profile": [ "http://hl7.org/fhir/us/qicore/StructureDefinition/qicore-encounter" ]
      },
      "status": "finished",
      "class": {
        "system": "http://terminology.hl7.org/CodeSystem/v3-ActCode",
        "code": "IMP",
        "display": "inpatient encounter",
        "userSelected": true
      },
      "type": [ {
        "coding": [ {
          "system": "http://snomed.info/sct",
          "code": "32485007"
        } ]
      } ],
      "subject": {
        "reference": "Patient/9915271c-d175-41e1-8550-2f698a2b9dc7"
      },
      "period": {
        "start": "2026-10-10T07:00:00.000+00:00",
        "end": "2026-10-12T06:31:00.000+00:00"
      },
      "length": {
        "value": 2,
        "unit": "days"
      },
      "reasonReference": [ {
        "reference": "Condition/1fb968e2-3598-4f3e-a0be-d88c90c8674a"
      } ]
    },
    "request": {
      "method": "PUT",
      "url": "Encounter/37a8a004-9d89-443d-b917-6bcdd08e79e4"
    }
  }, {
    "fullUrl": "https://madie.cms.gov/claim/5ca62962b8484628b8de1ec5",
    "resource": {
      "resourceType": "Claim",
      "id": "5ca62962b8484628b8de1ec5",
      "meta": {
        "profile": [ "http://hl7.org/fhir/us/qicore/StructureDefinition/qicore-claim" ]
      },
      "status": "active",
      "type": {
        "coding": [ {
          "system": "http://terminology.hl7.org/CodeSystem/claim-type",
          "code": "institutional"
        } ]
      },
      "use": "claim",
      "patient": {
        "reference": "Patient/9915271c-d175-41e1-8550-2f698a2b9dc7"
      },
      "created": "2026-12-01",
      "provider": {
        "reference": "Practitioner/practitioner-123456"
      },
      "priority": {
        "coding": [ {
          "system": "http://terminology.hl7.org/CodeSystem/processpriority",
          "code": "normal"
        } ]
      },
      "diagnosis": [ {
        "sequence": 1,
        "diagnosisCodeableConcept": {
          "coding": [ {
            "system": "http://hl7.org/fhir/sid/icd-10-cm",
            "code": "I63.00"
          } ]
        },
        "type": [ {
          "coding": [ {
            "system": "http://terminology.hl7.org/CodeSystem/ex-diagnosistype",
            "code": "principal"
          } ]
        } ]
      } ],
      "insurance": [ {
        "sequence": 1,
        "focal": true,
        "coverage": {
          "reference": "Coverage/e90da970-6777-4adc-b23c-02f4b05ecf14"
        }
      } ],
      "item": [ {
        "sequence": 1,
        "diagnosisSequence": [ 1 ],
        "productOrService": {
          "coding": [ {
            "system": "http://terminology.hl7.org/CodeSystem/ex-USCLS",
            "code": "99555"
          } ]
        },
        "encounter": [ {
          "reference": "Encounter/37a8a004-9d89-443d-b917-6bcdd08e79e4"
        } ]
      } ]
    },
    "request": {
      "method": "PUT",
      "url": "Claim/5ca62962b8484628b8de1ec5"
    }
  }, {
    "fullUrl": "https://madie.cms.gov/Procedure/516f323d-fa1b-4a23-b50d-d1fa988460e0",
    "resource": {
      "resourceType": "Procedure",
      "id": "516f323d-fa1b-4a23-b50d-d1fa988460e0",
      "meta": {
        "profile": [ "http://hl7.org/fhir/us/qicore/StructureDefinition/qicore-procedure" ]
      },
      "extension": [ {
        "url": "http://hl7.org/fhir/us/qicore/StructureDefinition/qicore-recorded",
        "valueDateTime": "2026-11-19T13:35:00.000+00:00"
      } ],
      "status": "completed",
      "code": {
        "coding": [ {
          "system": "http://snomed.info/sct",
          "code": "133918004"
        } ]
      },
      "subject": {
        "reference": "Patient/9915271c-d175-41e1-8550-2f698a2b9dc7"
      },
      "performedPeriod": {
        "start": "2026-10-10T06:20:00.000+00:00"
      }
    },
    "request": {
      "method": "PUT",
      "url": "Procedure/516f323d-fa1b-4a23-b50d-d1fa988460e0"
    }
  }, {
    "fullUrl": "https://madie.cms.gov/Coverage/e90da970-6777-4adc-b23c-02f4b05ecf14",
    "resource": {
      "resourceType": "Coverage",
      "id": "e90da970-6777-4adc-b23c-02f4b05ecf14",
      "status": "active",
      "beneficiary": {
        "reference": "Patient/9915271c-d175-41e1-8550-2f698a2b9dc7"
      },
      "period": {
        "start": "1976-09-26T08:00:00.000+00:00"
      },
      "payor": [ {
        "reference": "Organization/7f8302a6-7bf0-44e9-a8fc-f8983ae8f22b"
      } ]
    },
    "request": {
      "method": "PUT",
      "url": "Coverage/e90da970-6777-4adc-b23c-02f4b05ecf14"
    }
  }, {
    "fullUrl": "https://madie.cms.gov/Condition/1fb968e2-3598-4f3e-a0be-d88c90c8674a",
    "resource": {
      "resourceType": "Condition",
      "id": "1fb968e2-3598-4f3e-a0be-d88c90c8674a",
      "meta": {
        "profile": [ "http://hl7.org/fhir/us/qicore/StructureDefinition/qicore-condition-encounter-diagnosis" ]
      },
      "clinicalStatus": {
        "coding": [ {
          "system": "http://terminology.hl7.org/CodeSystem/condition-clinical",
          "code": "active"
        } ]
      },
      "verificationStatus": {
        "coding": [ {
          "system": "http://terminology.hl7.org/CodeSystem/condition-ver-status",
          "code": "confirmed"
        } ]
      },
      "category": [ {
        "coding": [ {
          "system": "http://terminology.hl7.org/CodeSystem/condition-category",
          "code": "encounter-diagnosis",
          "display": "Encounter Diagnosis"
        } ]
      } ],
      "code": {
        "coding": [ {
          "system": "http://snomed.info/sct",
          "version": "2020-09",
          "code": "111297002",
          "display": "Nonparalytic stroke (disorder)",
          "userSelected": true
        } ]
      },
      "subject": {
        "reference": "Patient/9915271c-d175-41e1-8550-2f698a2b9dc7"
      },
      "recordedDate": "2026-08-13T08:00:00.000+00:00"
    },
    "request": {
      "method": "PUT",
      "url": "Condition/1fb968e2-3598-4f3e-a0be-d88c90c8674a"
    }
  }, {
    "fullUrl": "https://madie.cms.gov/Organization/7f8302a6-7bf0-44e9-a8fc-f8983ae8f22b",
    "resource": {
      "resourceType": "Organization",
      "id": "7f8302a6-7bf0-44e9-a8fc-f8983ae8f22b",
      "meta": {
        "profile": [ "http://hl7.org/fhir/us/qicore/StructureDefinition/qicore-organization" ]
      },
      "identifier": [ {
        "use": "temp",
        "system": "urn:oid:2.16.840.1.113883.4.4",
        "value": "21-3259825"
      } ],
      "active": true,
      "type": [ {
        "coding": [ {
          "system": "http://terminology.hl7.org/CodeSystem/organization-type",
          "code": "pay",
          "display": "Payer"
        } ]
      } ],
      "name": "Blue Cross Blue Shield of Texas",
      "telecom": [ {
        "system": "phone",
        "value": "(+1) 972-766-6900"
      } ],
      "address": [ {
        "use": "billing",
        "type": "postal",
        "line": [ "P.O. Box 660044" ],
        "city": "Dallas",
        "state": "TX",
        "postalCode": "75266-0044",
        "country": "USA"
      } ]
    },
    "request": {
      "method": "PUT",
      "url": "Organization/7f8302a6-7bf0-44e9-a8fc-f8983ae8f22b"
    }
  }, {
    "fullUrl": "https://madie.cms.gov/MeasureReport/88be4ec4-2e88-452d-9e79-475428db99b3",
    "resource": {
      "resourceType": "MeasureReport",
      "id": "88be4ec4-2e88-452d-9e79-475428db99b3",
      "meta": {
        "profile": [ "http://hl7.org/fhir/us/cqfmeasures/StructureDefinition/test-case-cqfm" ]
      },
      "contained": [ {
        "resourceType": "Parameters",
        "id": "f2d45419-79b7-4986-9a60-3da18d4f5340-parameters",
        "parameter": [ {
          "name": "subject",
          "valueString": "9915271c-d175-41e1-8550-2f698a2b9dc7"
        } ]
      } ],
      "extension": [ {
        "url": "http://hl7.org/fhir/StructureDefinition/cqf-inputParameters",
        "valueReference": {
          "reference": "#f2d45419-79b7-4986-9a60-3da18d4f5340-parameters"
        }
      }, {
        "url": "http://hl7.org/fhir/us/cqfmeasures/StructureDefinition/cqfm-testCaseDescription",
        "valueMarkdown": "Patient receives comfort measures performed <= 1 (=0 day) day during Gap of Ed and IP encounter\n"
      } ],
      "modifierExtension": [ {
        "url": "http://hl7.org/fhir/us/cqfmeasures/StructureDefinition/cqfm-isTestCase",
        "valueBoolean": true
      } ],
      "status": "complete",
      "type": "individual",
      "measure": "https://madie.cms.gov/Measure/CMS72FHIRSTKAntithromboticDay2",
      "period": {
        "start": "2026-01-01",
        "end": "2026-12-31"
      },
      "group": [ {
        "id": "Group_1",
        "population": [ {
          "id": "InitialPopulation_1",
          "code": {
            "coding": [ {
              "system": "http://terminology.hl7.org/CodeSystem/measure-population",
              "code": "initial-population",
              "display": "Initial Population"
            } ]
          },
          "count": 1
        }, {
          "id": "Denominator_1",
          "code": {
            "coding": [ {
              "system": "http://terminology.hl7.org/CodeSystem/measure-population",
              "code": "denominator",
              "display": "Denominator"
            } ]
          },
          "count": 1
        }, {
          "id": "DenominatorExclusion_1",
          "code": {
            "coding": [ {
              "system": "http://terminology.hl7.org/CodeSystem/measure-population",
              "code": "denominator-exclusion",
              "display": "Denominator Exclusion"
            } ]
          },
          "count": 1
        }, {
          "id": "Numerator_1",
          "code": {
            "coding": [ {
              "system": "http://terminology.hl7.org/CodeSystem/measure-population",
              "code": "numerator",
              "display": "Numerator"
            } ]
          },
          "count": 0
        }, {
          "id": "DenominatorException_1",
          "code": {
            "coding": [ {
              "system": "http://terminology.hl7.org/CodeSystem/measure-population",
              "code": "denominator-exception",
              "display": "Denominator Exception"
            } ]
          },
          "count": 0
        } ],
        "measureScore": {
          "value": 0.0
        }
      } ],
      "evaluatedResource": [ {
        "reference": "Patient/9915271c-d175-41e1-8550-2f698a2b9dc7"
      }, {
        "reference": "Encounter/b6efe705-a2b5-43b9-aef5-26771e780de9"
      }, {
        "reference": "Encounter/37a8a004-9d89-443d-b917-6bcdd08e79e4"
      }, {
        "reference": "Claim/5ca62962b8484628b8de1ec5"
      }, {
        "reference": "Procedure/516f323d-fa1b-4a23-b50d-d1fa988460e0"
      }, {
        "reference": "Coverage/e90da970-6777-4adc-b23c-02f4b05ecf14"
      }, {
        "reference": "Condition/1fb968e2-3598-4f3e-a0be-d88c90c8674a"
      }, {
        "reference": "Organization/7f8302a6-7bf0-44e9-a8fc-f8983ae8f22b"
      } ]
    },
    "request": {
      "method": "PUT",
      "url": "MeasureReport/88be4ec4-2e88-452d-9e79-475428db99b3"
    }
  } ]
}