{
  "resourceType": "Bundle",
  "id": "6109658e98086b538055b9d0",
  "type": "collection",
  "entry": [ {
    "fullUrl": "https://madie.cms.gov/Patient/0e80afcd-6020-4d72-a5fd-d6db3f1f1a05",
    "resource": {
      "resourceType": "Patient",
      "id": "0e80afcd-6020-4d72-a5fd-d6db3f1f1a05",
      "meta": {
        "profile": [ "http://hl7.org/fhir/us/qicore/StructureDefinition/qicore-patient" ]
      },
      "extension": [ {
        "url": "http://hl7.org/fhir/us/core/StructureDefinition/us-core-race",
        "extension": [ {
          "url": "ombCategory",
          "valueCoding": {
            "system": "urn:oid:2.16.840.1.113883.6.238",
            "code": "2106-3",
            "display": "White",
            "userSelected": true
          }
        }, {
          "url": "text",
          "valueString": "White"
        } ]
      }, {
        "url": "http://hl7.org/fhir/us/core/StructureDefinition/us-core-ethnicity",
        "extension": [ {
          "url": "ombCategory",
          "valueCoding": {
            "system": "urn:oid:2.16.840.1.113883.6.238",
            "code": "2135-2",
            "display": "Hispanic or Latino",
            "userSelected": true
          }
        }, {
          "url": "text",
          "valueString": "Hispanic or Latino"
        } ]
      } ],
      "identifier": [ {
        "type": {
          "coding": [ {
            "system": "http://terminology.hl7.org/CodeSystem/v2-0203",
            "code": "MR"
          } ]
        },
        "system": "https://bonnie-fhir.healthit.gov/",
        "value": "6109658e98086b538055b9d0"
      } ],
      "active": true,
      "name": [ {
        "use": "usual",
        "family": "NUMERFail",
        "given": [ "MissingOpticDiscExam" ]
      } ],
      "gender": "male",
      "birthDate": "1968-09-10"
    }
  }, {
    "fullUrl": "https://madie.cms.gov/Condition/69ec460e-d1c5-474c-8930-98e68b9b84ef",
    "resource": {
      "resourceType": "Condition",
      "id": "69ec460e-d1c5-474c-8930-98e68b9b84ef",
      "meta": {
        "profile": [ "http://hl7.org/fhir/us/qicore/StructureDefinition/qicore-condition-problems-health-concerns" ]
      },
      "clinicalStatus": {
        "coding": [ {
          "system": "http://terminology.hl7.org/CodeSystem/condition-clinical",
          "code": "active",
          "display": "active",
          "userSelected": true
        } ]
      },
      "category": [ {
        "coding": [ {
          "system": "http://terminology.hl7.org/CodeSystem/condition-category",
          "code": "problem-list-item",
          "display": "Problem List Item",
          "userSelected": true
        } ]
      } ],
      "code": {
        "coding": [ {
          "system": "http://hl7.org/fhir/sid/icd-10-cm",
          "code": "H40.10X0"
        } ]
      },
      "subject": {
        "reference": "Patient/0e80afcd-6020-4d72-a5fd-d6db3f1f1a05"
      },
      "onsetDateTime": "2016-06-15T07:00:00.000+00:00"
    }
  }, {
    "fullUrl": "https://madie.cms.gov/Observation/ac94959a-4497-498c-9a26-d536c4a42dd4",
    "resource": {
      "resourceType": "Observation",
      "id": "ac94959a-4497-498c-9a26-d536c4a42dd4",
      "meta": {
        "profile": [ "http://hl7.org/fhir/us/qicore/StructureDefinition/qicore-observation-clinical-result" ]
      },
      "status": "final",
      "category": [ {
        "coding": [ {
          "system": "http://terminology.hl7.org/CodeSystem/observation-category",
          "code": "laboratory",
          "display": "laboratory",
          "userSelected": true
        } ]
      }, {
        "coding": [ {
          "system": "http://terminology.hl7.org/CodeSystem/observation-category",
          "code": "survey"
        } ]
      } ],
      "code": {
        "coding": [ {
          "system": "http://loinc.org",
          "version": "2.73",
          "code": "71484-0"
        } ]
      },
      "subject": {
        "reference": "Patient/0e80afcd-6020-4d72-a5fd-d6db3f1f1a05"
      },
      "effectiveDateTime": "2026-01-22T08:00:00.000+00:00",
      "valueString": "Within Normal Limits"
    }
  }, {
    "fullUrl": "https://madie.cms.gov/Encounter/a499e13e-146d-417a-8cef-2b3f5768e37d",
    "resource": {
      "resourceType": "Encounter",
      "id": "a499e13e-146d-417a-8cef-2b3f5768e37d",
      "meta": {
        "profile": [ "http://hl7.org/fhir/us/qicore/StructureDefinition/qicore-encounter" ]
      },
      "status": "finished",
      "class": {
        "system": "http://terminology.hl7.org/CodeSystem/v3-ActCode",
        "code": "AMB",
        "display": "ambulatory",
        "userSelected": true
      },
      "type": [ {
        "coding": [ {
          "system": "http://www.ama-assn.org/go/cpt",
          "version": "2023",
          "code": "99213"
        } ]
      } ],
      "subject": {
        "reference": "Patient/0e80afcd-6020-4d72-a5fd-d6db3f1f1a05"
      },
      "period": {
        "start": "2026-01-26T08:00:00.000+00:00",
        "end": "2026-01-26T08:00:00.000+00:00"
      },
      "length": {
        "value": 0.0,
        "unit": "days"
      }
    }
  }, {
    "fullUrl": "https://madie.cms.gov/MeasureReport/58315ab9-f6b6-429a-b728-761bf6e1efd8",
    "resource": {
      "resourceType": "MeasureReport",
      "id": "58315ab9-f6b6-429a-b728-761bf6e1efd8",
      "meta": {
        "profile": [ "http://hl7.org/fhir/us/cqfmeasures/StructureDefinition/test-case-cqfm" ]
      },
      "contained": [ {
        "resourceType": "Parameters",
        "id": "ef45f448-6f14-4019-9342-5ca7c61b4bf8-parameters",
        "parameter": [ {
          "name": "subject",
          "valueString": "0e80afcd-6020-4d72-a5fd-d6db3f1f1a05"
        } ]
      } ],
      "extension": [ {
        "url": "http://hl7.org/fhir/StructureDefinition/cqf-inputParameters",
        "valueReference": {
          "reference": "#ef45f448-6f14-4019-9342-5ca7c61b4bf8-parameters"
        }
      }, {
        "url": "http://hl7.org/fhir/us/cqfmeasures/StructureDefinition/cqfm-testCaseDescription",
        "valueMarkdown": "Patient has POAG diagnosis and qualifying encounter in MP with associated Cup Disc Ratio Exam but is missing an Optic Disc Examination needed to qualify for numerator"
      } ],
      "modifierExtension": [ {
        "url": "http://hl7.org/fhir/us/cqfmeasures/StructureDefinition/cqfm-isTestCase",
        "valueBoolean": true
      } ],
      "status": "complete",
      "type": "individual",
      "measure": "https://madie.cms.gov/Measure/CMS143FHIRPOAGOpticNerveEval",
      "period": {
        "start": "2026-01-01",
        "end": "2026-12-31"
      },
      "group": [ {
        "id": "Group_1",
        "population": [ {
          "id": "InitialPopulation_1",
          "code": {
            "coding": [ {
              "system": "http://terminology.hl7.org/CodeSystem/measure-population",
              "code": "initial-population",
              "display": "Initial Population"
            } ]
          },
          "count": 1
        }, {
          "id": "Denominator_1",
          "code": {
            "coding": [ {
              "system": "http://terminology.hl7.org/CodeSystem/measure-population",
              "code": "denominator",
              "display": "Denominator"
            } ]
          },
          "count": 1
        }, {
          "id": "Numerator_1",
          "code": {
            "coding": [ {
              "system": "http://terminology.hl7.org/CodeSystem/measure-population",
              "code": "numerator",
              "display": "Numerator"
            } ]
          },
          "count": 0
        }, {
          "id": "DenominatorException_1",
          "code": {
            "coding": [ {
              "system": "http://terminology.hl7.org/CodeSystem/measure-population",
              "code": "denominator-exception",
              "display": "Denominator Exception"
            } ]
          },
          "count": 0
        } ],
        "measureScore": {
          "value": 1.0
        }
      } ],
      "evaluatedResource": [ {
        "reference": "Patient/0e80afcd-6020-4d72-a5fd-d6db3f1f1a05"
      }, {
        "reference": "Condition/69ec460e-d1c5-474c-8930-98e68b9b84ef"
      }, {
        "reference": "Observation/ac94959a-4497-498c-9a26-d536c4a42dd4"
      }, {
        "reference": "Encounter/a499e13e-146d-417a-8cef-2b3f5768e37d"
      } ]
    }
  } ]
}