{
  "resourceType": "Bundle",
  "id": "62fa55e0f4a8c3cd9f455399",
  "type": "transaction",
  "entry": [ {
    "fullUrl": "https://madie.cms.gov/Patient/b49e5ec9-8a2d-4ed4-acae-9e13e21d67f2",
    "resource": {
      "resourceType": "Patient",
      "id": "b49e5ec9-8a2d-4ed4-acae-9e13e21d67f2",
      "meta": {
        "profile": [ "http://hl7.org/fhir/us/qicore/StructureDefinition/qicore-patient" ]
      },
      "extension": [ {
        "url": "http://hl7.org/fhir/us/core/StructureDefinition/us-core-race",
        "extension": [ {
          "url": "ombCategory",
          "valueCoding": {
            "system": "urn:oid:2.16.840.1.113883.6.238",
            "code": "2106-3",
            "display": "White",
            "userSelected": true
          }
        }, {
          "url": "text",
          "valueString": "White"
        } ]
      }, {
        "url": "http://hl7.org/fhir/us/core/StructureDefinition/us-core-ethnicity",
        "extension": [ {
          "url": "ombCategory",
          "valueCoding": {
            "system": "urn:oid:2.16.840.1.113883.6.238",
            "code": "2186-5",
            "display": "Not Hispanic or Latino",
            "userSelected": true
          }
        }, {
          "url": "text",
          "valueString": "Not Hispanic or Latino"
        } ]
      } ],
      "identifier": [ {
        "type": {
          "coding": [ {
            "system": "http://terminology.hl7.org/CodeSystem/v2-0203",
            "code": "MR"
          } ]
        },
        "system": "https://bonnie-fhir.healthit.gov/",
        "value": "62fa55e0f4a8c3cd9f455399"
      } ],
      "name": [ {
        "family": "DENEXPass",
        "given": [ "WithCKDStage5" ]
      } ],
      "gender": "male",
      "birthDate": "2006-12-01"
    },
    "request": {
      "method": "PUT",
      "url": "Patient/b49e5ec9-8a2d-4ed4-acae-9e13e21d67f2"
    }
  }, {
    "fullUrl": "https://madie.cms.gov/Condition/82815944-4b22-4ed9-936a-cfa91ca165e6",
    "resource": {
      "resourceType": "Condition",
      "id": "82815944-4b22-4ed9-936a-cfa91ca165e6",
      "meta": {
        "profile": [ "http://hl7.org/fhir/us/qicore/StructureDefinition/qicore-condition-encounter-diagnosis" ]
      },
      "clinicalStatus": {
        "coding": [ {
          "system": "http://terminology.hl7.org/CodeSystem/condition-clinical",
          "code": "active",
          "display": "active",
          "userSelected": true
        } ]
      },
      "category": [ {
        "coding": [ {
          "system": "http://terminology.hl7.org/CodeSystem/condition-category",
          "code": "encounter-diagnosis",
          "display": "Encounter Diagnosis",
          "userSelected": true
        } ]
      } ],
      "code": {
        "coding": [ {
          "system": "http://snomed.info/sct",
          "version": "2021-09",
          "code": "102781000119107",
          "display": "Sensory neuropathy due to type 1 diabetes mellitus (disorder)",
          "userSelected": true
        } ]
      },
      "subject": {
        "reference": "Patient/b49e5ec9-8a2d-4ed4-acae-9e13e21d67f2"
      },
      "onsetDateTime": "2022-05-22T12:00:00.000+00:00"
    },
    "request": {
      "method": "PUT",
      "url": "Condition/82815944-4b22-4ed9-936a-cfa91ca165e6"
    }
  }, {
    "fullUrl": "https://madie.cms.gov/Encounter/52639c75-9825-41f1-bb84-ddea14646fa8",
    "resource": {
      "resourceType": "Encounter",
      "id": "52639c75-9825-41f1-bb84-ddea14646fa8",
      "meta": {
        "profile": [ "http://hl7.org/fhir/us/qicore/StructureDefinition/qicore-encounter" ]
      },
      "status": "finished",
      "class": {
        "system": "http://terminology.hl7.org/CodeSystem/v3-ActCode",
        "code": "AMB",
        "display": "ambulatory",
        "userSelected": true
      },
      "type": [ {
        "coding": [ {
          "system": "http://snomed.info/sct",
          "version": "2021-09",
          "code": "185463005",
          "display": "Visit out of hours (procedure)",
          "userSelected": true
        } ]
      } ],
      "subject": {
        "reference": "Patient/b49e5ec9-8a2d-4ed4-acae-9e13e21d67f2"
      },
      "period": {
        "start": "2026-08-15T08:00:00.000+00:00",
        "end": "2026-08-15T08:15:00.000+00:00"
      }
    },
    "request": {
      "method": "PUT",
      "url": "Encounter/52639c75-9825-41f1-bb84-ddea14646fa8"
    }
  }, {
    "fullUrl": "https://madie.cms.gov/Condition/800c28f6-0abc-462e-8333-98109ce9dbe3",
    "resource": {
      "resourceType": "Condition",
      "id": "800c28f6-0abc-462e-8333-98109ce9dbe3",
      "meta": {
        "profile": [ "http://hl7.org/fhir/us/qicore/StructureDefinition/qicore-condition-encounter-diagnosis" ]
      },
      "clinicalStatus": {
        "coding": [ {
          "system": "http://terminology.hl7.org/CodeSystem/condition-clinical",
          "code": "active",
          "display": "active",
          "userSelected": true
        } ]
      },
      "category": [ {
        "coding": [ {
          "system": "http://terminology.hl7.org/CodeSystem/condition-category",
          "code": "encounter-diagnosis",
          "display": "Encounter Diagnosis",
          "userSelected": true
        } ]
      } ],
      "code": {
        "coding": [ {
          "system": "http://snomed.info/sct",
          "version": "2021-09",
          "code": "433146000",
          "display": "Chronic kidney disease stage 5 (disorder)",
          "userSelected": true
        } ]
      },
      "subject": {
        "reference": "Patient/b49e5ec9-8a2d-4ed4-acae-9e13e21d67f2"
      },
      "onsetDateTime": "2025-08-15T08:00:00.000+00:00"
    },
    "request": {
      "method": "PUT",
      "url": "Condition/800c28f6-0abc-462e-8333-98109ce9dbe3"
    }
  }, {
    "fullUrl": "https://madie.cms.gov/MeasureReport/1059d3dc-e4d8-46ab-a980-ffad6e3996fc",
    "resource": {
      "resourceType": "MeasureReport",
      "id": "1059d3dc-e4d8-46ab-a980-ffad6e3996fc",
      "meta": {
        "profile": [ "http://hl7.org/fhir/us/cqfmeasures/StructureDefinition/test-case-cqfm" ]
      },
      "contained": [ {
        "resourceType": "Parameters",
        "id": "de44efdb-eda4-4922-a578-29952c9207b5-parameters",
        "parameter": [ {
          "name": "subject",
          "valueString": "b49e5ec9-8a2d-4ed4-acae-9e13e21d67f2"
        } ]
      } ],
      "extension": [ {
        "url": "http://hl7.org/fhir/StructureDefinition/cqf-inputParameters",
        "valueReference": {
          "reference": "#de44efdb-eda4-4922-a578-29952c9207b5-parameters"
        }
      }, {
        "url": "http://hl7.org/fhir/us/cqfmeasures/StructureDefinition/cqfm-testCaseDescription",
        "valueMarkdown": "Patient has diabetes diagnosis and both labs plus CKD stage 5. This case tests the denominator exclusions."
      } ],
      "modifierExtension": [ {
        "url": "http://hl7.org/fhir/us/cqfmeasures/StructureDefinition/cqfm-isTestCase",
        "valueBoolean": true
      } ],
      "status": "complete",
      "type": "individual",
      "measure": "https://madie.cms.gov/Measure/CMS951FHIRKidneyHealthEval",
      "period": {
        "start": "2026-01-01",
        "end": "2026-12-31"
      },
      "group": [ {
        "id": "Group_1",
        "population": [ {
          "id": "InitialPopulation_1",
          "code": {
            "coding": [ {
              "system": "http://terminology.hl7.org/CodeSystem/measure-population",
              "code": "initial-population",
              "display": "Initial Population"
            } ]
          },
          "count": 1
        }, {
          "id": "Denominator_1",
          "code": {
            "coding": [ {
              "system": "http://terminology.hl7.org/CodeSystem/measure-population",
              "code": "denominator",
              "display": "Denominator"
            } ]
          },
          "count": 1
        }, {
          "id": "DenominatorExclusion_1",
          "code": {
            "coding": [ {
              "system": "http://terminology.hl7.org/CodeSystem/measure-population",
              "code": "denominator-exclusion",
              "display": "Denominator Exclusion"
            } ]
          },
          "count": 1
        }, {
          "id": "Numerator_1",
          "code": {
            "coding": [ {
              "system": "http://terminology.hl7.org/CodeSystem/measure-population",
              "code": "numerator",
              "display": "Numerator"
            } ]
          },
          "count": 0
        } ],
        "measureScore": {
          "value": 1.0
        }
      } ],
      "evaluatedResource": [ {
        "reference": "Patient/b49e5ec9-8a2d-4ed4-acae-9e13e21d67f2"
      }, {
        "reference": "Condition/82815944-4b22-4ed9-936a-cfa91ca165e6"
      }, {
        "reference": "Encounter/52639c75-9825-41f1-bb84-ddea14646fa8"
      }, {
        "reference": "Condition/800c28f6-0abc-462e-8333-98109ce9dbe3"
      } ]
    },
    "request": {
      "method": "PUT",
      "url": "MeasureReport/1059d3dc-e4d8-46ab-a980-ffad6e3996fc"
    }
  } ]
}