{
  "resourceType": "Bundle",
  "id": "617835c74bf8e25b8f204e27",
  "type": "transaction",
  "entry": [ {
    "fullUrl": "https://madie.cms.gov/Patient/3acd8622-beff-4663-8fb9-5804e6a4313c",
    "resource": {
      "resourceType": "Patient",
      "id": "3acd8622-beff-4663-8fb9-5804e6a4313c",
      "meta": {
        "profile": [ "http://hl7.org/fhir/us/qicore/StructureDefinition/qicore-patient" ]
      },
      "extension": [ {
        "url": "http://hl7.org/fhir/us/core/StructureDefinition/us-core-race",
        "extension": [ {
          "url": "ombCategory",
          "valueCoding": {
            "system": "urn:oid:2.16.840.1.113883.6.238",
            "code": "2076-8",
            "display": "Native Hawaiian or Other Pacific Islander",
            "userSelected": true
          }
        }, {
          "url": "text",
          "valueString": "Native Hawaiian or Other Pacific Islander"
        } ]
      }, {
        "url": "http://hl7.org/fhir/us/core/StructureDefinition/us-core-ethnicity",
        "extension": [ {
          "url": "ombCategory",
          "valueCoding": {
            "system": "urn:oid:2.16.840.1.113883.6.238",
            "code": "2186-5",
            "display": "Not Hispanic or Latino",
            "userSelected": true
          }
        }, {
          "url": "text",
          "valueString": "Not Hispanic or Latino"
        } ]
      }, {
        "url": "http://hl7.org/fhir/us/core/StructureDefinition/us-core-sex",
        "valueCode": "248153007"
      } ],
      "identifier": [ {
        "type": {
          "coding": [ {
            "system": "http://terminology.hl7.org/CodeSystem/v2-0203",
            "code": "MR"
          } ]
        },
        "system": "https://bonnie-fhir.healthit.gov/",
        "value": "617835c74bf8e25b8f204e27"
      } ],
      "name": [ {
        "family": "NumFail",
        "given": [ "Depart46minsfromEDstartMultLocation" ]
      } ],
      "gender": "female",
      "birthDate": "1985-12-02"
    },
    "request": {
      "method": "PUT",
      "url": "Patient/3acd8622-beff-4663-8fb9-5804e6a4313c"
    }
  }, {
    "fullUrl": "https://madie.cms.gov/Encounter/d3ece508-be5e-430b-a3fd-accf064d2c6a",
    "resource": {
      "resourceType": "Encounter",
      "id": "d3ece508-be5e-430b-a3fd-accf064d2c6a",
      "meta": {
        "profile": [ "http://hl7.org/fhir/us/qicore/StructureDefinition/qicore-encounter" ]
      },
      "status": "finished",
      "class": {
        "system": "http://terminology.hl7.org/CodeSystem/v3-ActCode",
        "code": "EMER",
        "display": "emergency",
        "userSelected": true
      },
      "type": [ {
        "coding": [ {
          "system": "http://snomed.info/sct",
          "version": "2020-09",
          "code": "4525004",
          "display": "Emergency department patient visit (procedure)",
          "userSelected": true
        } ]
      } ],
      "subject": {
        "reference": "Patient/3acd8622-beff-4663-8fb9-5804e6a4313c"
      },
      "period": {
        "start": "2026-10-09T08:00:00.000+00:00",
        "end": "2026-10-09T08:50:00.000+00:00"
      },
      "reasonReference": [ {
        "reference": "Condition/e6f01bc9-fea0-4015-8810-fa388afb7a36"
      } ],
      "hospitalization": {
        "dischargeDisposition": {
          "coding": [ {
            "system": "http://snomed.info/sct",
            "version": "2020-09",
            "code": "306703003",
            "display": "Discharge to tertiary referral hospital (procedure)",
            "userSelected": true
          } ]
        }
      },
      "location": [ {
        "location": {
          "reference": "Location/ce79efce-d81a-4511-ad33-270c5a57e04c"
        },
        "period": {
          "start": "2026-10-09T08:05:00.000+00:00",
          "end": "2026-10-09T08:10:00.000+00:00"
        }
      }, {
        "location": {
          "reference": "Location/13cdcee5-96c9-468c-bfe5-42a5a938f39b"
        },
        "period": {
          "start": "2026-10-09T08:11:00.000+00:00",
          "end": "2026-10-09T08:51:00.000+00:00"
        }
      } ]
    },
    "request": {
      "method": "PUT",
      "url": "Encounter/d3ece508-be5e-430b-a3fd-accf064d2c6a"
    }
  }, {
    "fullUrl": "https://madie.cms.gov/Location/ce79efce-d81a-4511-ad33-270c5a57e04c",
    "resource": {
      "resourceType": "Location",
      "id": "ce79efce-d81a-4511-ad33-270c5a57e04c",
      "meta": {
        "profile": [ "http://hl7.org/fhir/us/qicore/StructureDefinition/qicore-location" ]
      },
      "identifier": [ {
        "use": "usual",
        "system": "http://exampleoflocation.com",
        "value": "ED-1.R3"
      } ],
      "name": "Emergency Department, first floor",
      "type": [ {
        "coding": [ {
          "system": "http://snomed.info/sct",
          "version": "20210611",
          "code": "4525004",
          "display": "Emergency department patient visit (procedure)",
          "userSelected": true
        } ]
      }, {
        "coding": [ {
          "system": "http://terminology.hl7.org/CodeSystem/v3-RoleCode",
          "version": "2019",
          "code": "ER",
          "display": "Emergency room",
          "userSelected": true
        } ]
      } ]
    },
    "request": {
      "method": "PUT",
      "url": "Location/ce79efce-d81a-4511-ad33-270c5a57e04c"
    }
  }, {
    "fullUrl": "https://madie.cms.gov/Location/13cdcee5-96c9-468c-bfe5-42a5a938f39b",
    "resource": {
      "resourceType": "Location",
      "id": "13cdcee5-96c9-468c-bfe5-42a5a938f39b",
      "meta": {
        "profile": [ "http://hl7.org/fhir/us/qicore/StructureDefinition/qicore-location" ]
      },
      "identifier": [ {
        "use": "usual",
        "system": "http://exampleoflocation.com",
        "value": "ED-1.R3"
      } ],
      "name": "Emergency Department, first floor",
      "type": [ {
        "coding": [ {
          "system": "http://snomed.info/sct",
          "version": "20210611",
          "code": "4525004",
          "display": "Emergency department patient visit (procedure)",
          "userSelected": true
        } ]
      }, {
        "coding": [ {
          "system": "http://terminology.hl7.org/CodeSystem/v3-RoleCode",
          "version": "2019",
          "code": "ER",
          "display": "Emergency room",
          "userSelected": true
        } ]
      } ]
    },
    "request": {
      "method": "PUT",
      "url": "Location/13cdcee5-96c9-468c-bfe5-42a5a938f39b"
    }
  }, {
    "fullUrl": "https://madie.cms.gov/Condition/e6f01bc9-fea0-4015-8810-fa388afb7a36",
    "resource": {
      "resourceType": "Condition",
      "id": "e6f01bc9-fea0-4015-8810-fa388afb7a36",
      "meta": {
        "profile": [ "http://hl7.org/fhir/us/qicore/StructureDefinition/qicore-condition-encounter-diagnosis" ]
      },
      "clinicalStatus": {
        "coding": [ {
          "system": "http://terminology.hl7.org/CodeSystem/condition-clinical",
          "code": "active",
          "display": "active",
          "userSelected": true
        } ]
      },
      "category": [ {
        "coding": [ {
          "system": "http://terminology.hl7.org/CodeSystem/condition-category",
          "code": "encounter-diagnosis",
          "display": "Encounter Diagnosis",
          "userSelected": true
        } ]
      } ],
      "code": {
        "coding": [ {
          "system": "http://hl7.org/fhir/sid/icd-10-cm",
          "code": "I21.3",
          "userSelected": true
        } ]
      },
      "subject": {
        "reference": "Patient/3acd8622-beff-4663-8fb9-5804e6a4313c"
      },
      "onsetDateTime": "2026-10-09T08:11:00.000+00:00"
    },
    "request": {
      "method": "PUT",
      "url": "Condition/e6f01bc9-fea0-4015-8810-fa388afb7a36"
    }
  }, {
    "fullUrl": "https://madie.cms.gov/MeasureReport/c4bc6306-f3b7-4f9c-8a96-e73f50e2b51d",
    "resource": {
      "resourceType": "MeasureReport",
      "id": "c4bc6306-f3b7-4f9c-8a96-e73f50e2b51d",
      "meta": {
        "profile": [ "http://hl7.org/fhir/us/cqfmeasures/StructureDefinition/test-case-cqfm" ]
      },
      "contained": [ {
        "resourceType": "Parameters",
        "id": "ae0058ee-ea7f-4e25-8929-79853ce5804a-parameters",
        "parameter": [ {
          "name": "subject",
          "valueString": "3acd8622-beff-4663-8fb9-5804e6a4313c"
        } ]
      } ],
      "extension": [ {
        "url": "http://hl7.org/fhir/StructureDefinition/cqf-inputParameters",
        "valueReference": {
          "reference": "#ae0058ee-ea7f-4e25-8929-79853ce5804a-parameters"
        }
      }, {
        "url": "http://hl7.org/fhir/us/cqfmeasures/StructureDefinition/cqfm-testCaseDescription",
        "valueMarkdown": "ED ends 46 minutes after start time to be transferred to acute care facility. Multiple locations"
      } ],
      "modifierExtension": [ {
        "url": "http://hl7.org/fhir/us/cqfmeasures/StructureDefinition/cqfm-isTestCase",
        "valueBoolean": true
      } ],
      "status": "complete",
      "type": "individual",
      "measure": "https://madie.cms.gov/Measure/CMS996FHIRAptTxforSTEMI",
      "period": {
        "start": "2026-01-01",
        "end": "2026-12-31"
      },
      "group": [ {
        "id": "Group_1",
        "population": [ {
          "id": "InitialPopulation_1",
          "code": {
            "coding": [ {
              "system": "http://terminology.hl7.org/CodeSystem/measure-population",
              "code": "initial-population",
              "display": "Initial Population"
            } ]
          },
          "count": 1
        }, {
          "id": "Denominator_1",
          "code": {
            "coding": [ {
              "system": "http://terminology.hl7.org/CodeSystem/measure-population",
              "code": "denominator",
              "display": "Denominator"
            } ]
          },
          "count": 1
        }, {
          "id": "DenominatorExclusion_1",
          "code": {
            "coding": [ {
              "system": "http://terminology.hl7.org/CodeSystem/measure-population",
              "code": "denominator-exclusion",
              "display": "Denominator Exclusion"
            } ]
          },
          "count": 0
        }, {
          "id": "Numerator_1",
          "code": {
            "coding": [ {
              "system": "http://terminology.hl7.org/CodeSystem/measure-population",
              "code": "numerator",
              "display": "Numerator"
            } ]
          },
          "count": 0
        }, {
          "id": "DenominatorException_1",
          "code": {
            "coding": [ {
              "system": "http://terminology.hl7.org/CodeSystem/measure-population",
              "code": "denominator-exception",
              "display": "Denominator Exception"
            } ]
          },
          "count": 0
        } ],
        "measureScore": {
          "value": 0.0
        }
      } ],
      "evaluatedResource": [ {
        "reference": "Patient/3acd8622-beff-4663-8fb9-5804e6a4313c"
      }, {
        "reference": "Encounter/d3ece508-be5e-430b-a3fd-accf064d2c6a"
      }, {
        "reference": "Location/ce79efce-d81a-4511-ad33-270c5a57e04c"
      }, {
        "reference": "Location/13cdcee5-96c9-468c-bfe5-42a5a938f39b"
      }, {
        "reference": "Condition/e6f01bc9-fea0-4015-8810-fa388afb7a36"
      } ]
    },
    "request": {
      "method": "PUT",
      "url": "MeasureReport/c4bc6306-f3b7-4f9c-8a96-e73f50e2b51d"
    }
  } ]
}