{
  "resourceType": "Bundle",
  "id": "62fa54d3f4a8c3cd9f455394",
  "type": "transaction",
  "entry": [ {
    "fullUrl": "https://madie.cms.gov/Patient/53abb201-a2ef-4966-9102-8fab192aa008",
    "resource": {
      "resourceType": "Patient",
      "id": "53abb201-a2ef-4966-9102-8fab192aa008",
      "meta": {
        "profile": [ "http://hl7.org/fhir/us/qicore/StructureDefinition/qicore-patient" ]
      },
      "extension": [ {
        "url": "http://hl7.org/fhir/us/core/StructureDefinition/us-core-race",
        "extension": [ {
          "url": "ombCategory",
          "valueCoding": {
            "system": "urn:oid:2.16.840.1.113883.6.238",
            "code": "2054-5",
            "display": "Black or African American",
            "userSelected": true
          }
        }, {
          "url": "text",
          "valueString": "Black or African American"
        } ]
      }, {
        "url": "http://hl7.org/fhir/us/core/StructureDefinition/us-core-ethnicity",
        "extension": [ {
          "url": "ombCategory",
          "valueCoding": {
            "system": "urn:oid:2.16.840.1.113883.6.238",
            "code": "2186-5",
            "display": "Not Hispanic or Latino",
            "userSelected": true
          }
        }, {
          "url": "text",
          "valueString": "Not Hispanic or Latino"
        } ]
      } ],
      "identifier": [ {
        "type": {
          "coding": [ {
            "system": "http://terminology.hl7.org/CodeSystem/v2-0203",
            "code": "MR"
          } ]
        },
        "system": "https://bonnie-fhir.healthit.gov/",
        "value": "62fa54d3f4a8c3cd9f455394"
      } ],
      "name": [ {
        "family": "IPPFail",
        "given": [ "NoActiveDiabetesDx" ]
      } ],
      "gender": "male",
      "birthDate": "2006-07-01"
    },
    "request": {
      "method": "PUT",
      "url": "Patient/53abb201-a2ef-4966-9102-8fab192aa008"
    }
  }, {
    "fullUrl": "https://madie.cms.gov/Condition/e2300e39-7995-4b73-acb9-6b8360d49495",
    "resource": {
      "resourceType": "Condition",
      "id": "e2300e39-7995-4b73-acb9-6b8360d49495",
      "meta": {
        "profile": [ "http://hl7.org/fhir/us/qicore/StructureDefinition/qicore-condition-encounter-diagnosis" ]
      },
      "clinicalStatus": {
        "coding": [ {
          "system": "http://terminology.hl7.org/CodeSystem/condition-clinical",
          "version": "4.0.1",
          "code": "inactive",
          "display": "Inactive",
          "userSelected": true
        } ]
      },
      "category": [ {
        "coding": [ {
          "system": "http://terminology.hl7.org/CodeSystem/condition-category",
          "code": "encounter-diagnosis",
          "display": "Encounter Diagnosis",
          "userSelected": true
        } ]
      } ],
      "code": {
        "coding": [ {
          "system": "http://snomed.info/sct",
          "version": "2021-09",
          "code": "102781000119107",
          "display": "Sensory neuropathy due to type 1 diabetes mellitus (disorder)",
          "userSelected": true
        } ]
      },
      "subject": {
        "reference": "Patient/53abb201-a2ef-4966-9102-8fab192aa008"
      },
      "onsetDateTime": "2013-05-10T08:00:00.000+00:00",
      "abatementDateTime": "2016-05-10T08:00:00.000+00:00"
    },
    "request": {
      "method": "PUT",
      "url": "Condition/e2300e39-7995-4b73-acb9-6b8360d49495"
    }
  }, {
    "fullUrl": "https://madie.cms.gov/Encounter/0b6060a2-44bb-4bda-9a18-1380526045af",
    "resource": {
      "resourceType": "Encounter",
      "id": "0b6060a2-44bb-4bda-9a18-1380526045af",
      "meta": {
        "profile": [ "http://hl7.org/fhir/us/qicore/StructureDefinition/qicore-encounter" ]
      },
      "status": "finished",
      "class": {
        "system": "http://terminology.hl7.org/CodeSystem/v3-ActCode",
        "code": "AMB",
        "display": "ambulatory",
        "userSelected": true
      },
      "type": [ {
        "coding": [ {
          "system": "http://snomed.info/sct",
          "version": "2021-09",
          "code": "185463005",
          "display": "Visit out of hours (procedure)",
          "userSelected": true
        } ]
      } ],
      "subject": {
        "reference": "Patient/53abb201-a2ef-4966-9102-8fab192aa008"
      },
      "period": {
        "start": "2026-08-15T08:00:00.000+00:00",
        "end": "2026-08-15T08:15:00.000+00:00"
      }
    },
    "request": {
      "method": "PUT",
      "url": "Encounter/0b6060a2-44bb-4bda-9a18-1380526045af"
    }
  }, {
    "fullUrl": "https://madie.cms.gov/MeasureReport/7bb3329f-1fcc-4cc3-9c76-f25e243cd029",
    "resource": {
      "resourceType": "MeasureReport",
      "id": "7bb3329f-1fcc-4cc3-9c76-f25e243cd029",
      "meta": {
        "profile": [ "http://hl7.org/fhir/us/cqfmeasures/StructureDefinition/test-case-cqfm" ]
      },
      "contained": [ {
        "resourceType": "Parameters",
        "id": "89db73dd-64df-4622-bf18-44f1036dfc44-parameters",
        "parameter": [ {
          "name": "subject",
          "valueString": "53abb201-a2ef-4966-9102-8fab192aa008"
        } ]
      } ],
      "extension": [ {
        "url": "http://hl7.org/fhir/StructureDefinition/cqf-inputParameters",
        "valueReference": {
          "reference": "#89db73dd-64df-4622-bf18-44f1036dfc44-parameters"
        }
      }, {
        "url": "http://hl7.org/fhir/us/cqfmeasures/StructureDefinition/cqfm-testCaseDescription",
        "valueMarkdown": "This patient has a qualifying encounter but no active diabetes diagnosis during the MP. This case tests the IPP criteria."
      } ],
      "modifierExtension": [ {
        "url": "http://hl7.org/fhir/us/cqfmeasures/StructureDefinition/cqfm-isTestCase",
        "valueBoolean": true
      } ],
      "status": "complete",
      "type": "individual",
      "measure": "https://madie.cms.gov/Measure/CMS951FHIRKidneyHealthEval",
      "period": {
        "start": "2026-01-01",
        "end": "2026-12-31"
      },
      "group": [ {
        "id": "Group_1",
        "population": [ {
          "id": "InitialPopulation_1",
          "code": {
            "coding": [ {
              "system": "http://terminology.hl7.org/CodeSystem/measure-population",
              "code": "initial-population",
              "display": "Initial Population"
            } ]
          },
          "count": 0
        }, {
          "id": "Denominator_1",
          "code": {
            "coding": [ {
              "system": "http://terminology.hl7.org/CodeSystem/measure-population",
              "code": "denominator",
              "display": "Denominator"
            } ]
          },
          "count": 0
        }, {
          "id": "DenominatorExclusion_1",
          "code": {
            "coding": [ {
              "system": "http://terminology.hl7.org/CodeSystem/measure-population",
              "code": "denominator-exclusion",
              "display": "Denominator Exclusion"
            } ]
          },
          "count": 0
        }, {
          "id": "Numerator_1",
          "code": {
            "coding": [ {
              "system": "http://terminology.hl7.org/CodeSystem/measure-population",
              "code": "numerator",
              "display": "Numerator"
            } ]
          },
          "count": 0
        } ],
        "measureScore": {
          "value": 1.0
        }
      } ],
      "evaluatedResource": [ {
        "reference": "Patient/53abb201-a2ef-4966-9102-8fab192aa008"
      }, {
        "reference": "Condition/e2300e39-7995-4b73-acb9-6b8360d49495"
      }, {
        "reference": "Encounter/0b6060a2-44bb-4bda-9a18-1380526045af"
      } ]
    },
    "request": {
      "method": "PUT",
      "url": "MeasureReport/7bb3329f-1fcc-4cc3-9c76-f25e243cd029"
    }
  } ]
}