{
  "resourceType": "Bundle",
  "id": "612e6eaa02c62a011f2ef349",
  "type": "transaction",
  "entry": [ {
    "fullUrl": "https://madie.cms.gov/Patient/64353924-37ba-4a43-b651-ceb3a0fa7f29",
    "resource": {
      "resourceType": "Patient",
      "id": "64353924-37ba-4a43-b651-ceb3a0fa7f29",
      "meta": {
        "profile": [ "http://hl7.org/fhir/us/qicore/StructureDefinition/qicore-patient" ]
      },
      "text": {
        "status": "generated",
        "div": "<div xmlns=\"http://www.w3.org/1999/xhtml\"><div class=\"hapiHeaderText\">Age18AfterEncStart <b>IPFAIL </b></div><table class=\"hapiPropertyTable\"><tbody><tr><td>Identifier</td><td>a13f1f4498c2fb92e48e2a73c439593d</td></tr><tr><td>Date of birth</td><td><span>02 December 2003</span></td></tr></tbody></table></div>"
      },
      "extension": [ {
        "url": "http://hl7.org/fhir/us/core/StructureDefinition/us-core-race",
        "extension": [ {
          "url": "ombCategory",
          "valueCoding": {
            "system": "urn:oid:2.16.840.1.113883.6.238",
            "code": "1002-5",
            "display": "American Indian or Alaska Native",
            "userSelected": true
          }
        }, {
          "url": "text",
          "valueString": "American Indian or Alaska Native"
        } ]
      }, {
        "url": "http://hl7.org/fhir/us/core/StructureDefinition/us-core-ethnicity",
        "extension": [ {
          "url": "ombCategory",
          "valueCoding": {
            "system": "urn:oid:2.16.840.1.113883.6.238",
            "code": "2135-2",
            "display": "Hispanic or Latino",
            "userSelected": true
          }
        }, {
          "url": "text",
          "valueString": "Hispanic or Latino"
        } ]
      } ],
      "identifier": [ {
        "type": {
          "coding": [ {
            "system": "http://terminology.hl7.org/CodeSystem/v2-0203",
            "code": "MR"
          } ]
        },
        "system": "https://bonnie-fhir.healthit.gov/",
        "value": "612e6eaa02c62a011f2ef349"
      } ],
      "active": true,
      "name": [ {
        "use": "usual",
        "family": "IPFail ",
        "given": [ "Age18AfterEncStart" ]
      } ],
      "gender": "male",
      "birthDate": "2008-12-02"
    },
    "request": {
      "method": "PUT",
      "url": "Patient/64353924-37ba-4a43-b651-ceb3a0fa7f29"
    }
  }, {
    "fullUrl": "https://madie.cms.gov/Encounter/211f7c70-9d8d-40d6-aec5-da9ba0cdc12b",
    "resource": {
      "resourceType": "Encounter",
      "id": "211f7c70-9d8d-40d6-aec5-da9ba0cdc12b",
      "meta": {
        "profile": [ "http://hl7.org/fhir/us/qicore/StructureDefinition/qicore-encounter" ]
      },
      "status": "finished",
      "class": {
        "system": "http://terminology.hl7.org/CodeSystem/v3-ActCode",
        "code": "IMP",
        "display": "inpatient encounter"
      },
      "type": [ {
        "coding": [ {
          "system": "http://snomed.info/sct",
          "code": "8715000"
        } ]
      } ],
      "subject": {
        "reference": "Patient/64353924-37ba-4a43-b651-ceb3a0fa7f29"
      },
      "period": {
        "start": "2026-12-01T00:00:00.000+00:00",
        "end": "2026-12-31T23:59:00.000+00:00"
      },
      "length": {
        "value": 30.0,
        "unit": "days"
      }
    },
    "request": {
      "method": "PUT",
      "url": "Encounter/211f7c70-9d8d-40d6-aec5-da9ba0cdc12b"
    }
  }, {
    "fullUrl": "https://madie.cms.gov/Coverage/4ba8bdd8-280e-44a6-aaa3-11f2d06c4296",
    "resource": {
      "resourceType": "Coverage",
      "id": "4ba8bdd8-280e-44a6-aaa3-11f2d06c4296",
      "status": "active",
      "beneficiary": {
        "reference": "Patient/64353924-37ba-4a43-b651-ceb3a0fa7f29"
      },
      "period": {
        "start": "2004-12-02T23:59:00.000+00:00"
      },
      "payor": [ {
        "reference": "Organization/7c03fc27-3dac-44a1-9af1-43b70b68e885"
      } ]
    },
    "request": {
      "method": "PUT",
      "url": "Coverage/4ba8bdd8-280e-44a6-aaa3-11f2d06c4296"
    }
  }, {
    "fullUrl": "https://madie.cms.gov/Organization/7c03fc27-3dac-44a1-9af1-43b70b68e885",
    "resource": {
      "resourceType": "Organization",
      "id": "7c03fc27-3dac-44a1-9af1-43b70b68e885",
      "meta": {
        "profile": [ "http://hl7.org/fhir/us/qicore/StructureDefinition/qicore-organization" ]
      },
      "identifier": [ {
        "use": "temp",
        "system": "urn:oid:2.16.840.1.113883.4.4",
        "value": "21-3259825"
      } ],
      "active": true,
      "type": [ {
        "coding": [ {
          "system": "http://terminology.hl7.org/CodeSystem/organization-type",
          "code": "pay",
          "display": "Payer"
        } ]
      } ],
      "name": "Blue Cross Blue Shield of Texas",
      "telecom": [ {
        "system": "phone",
        "value": "(+1) 972-766-6900"
      } ],
      "address": [ {
        "use": "billing",
        "type": "postal",
        "line": [ "P.O. Box 660044" ],
        "city": "Dallas",
        "state": "TX",
        "postalCode": "75266-0044",
        "country": "USA"
      } ]
    },
    "request": {
      "method": "PUT",
      "url": "Organization/7c03fc27-3dac-44a1-9af1-43b70b68e885"
    }
  }, {
    "fullUrl": "https://madie.cms.gov/Practitioner/66965136-244c-4544-a3fa-a6bc8f19d49e",
    "resource": {
      "resourceType": "Practitioner",
      "id": "66965136-244c-4544-a3fa-a6bc8f19d49e",
      "identifier": [ {
        "system": "http://hl7.org/fhir/sid/us-npi",
        "value": "123456"
      } ],
      "name": [ {
        "family": "Evil",
        "prefix": [ "Dr" ]
      } ]
    },
    "request": {
      "method": "PUT",
      "url": "Practitioner/66965136-244c-4544-a3fa-a6bc8f19d49e"
    }
  }, {
    "fullUrl": "https://madie.cms.gov/MeasureReport/986ea650-1718-4bd4-a034-29333d0cf880",
    "resource": {
      "resourceType": "MeasureReport",
      "id": "986ea650-1718-4bd4-a034-29333d0cf880",
      "meta": {
        "profile": [ "http://hl7.org/fhir/us/cqfmeasures/StructureDefinition/test-case-cqfm" ]
      },
      "contained": [ {
        "resourceType": "Parameters",
        "id": "b3ac5949-9942-4ddd-8346-b6ee3717eb18-parameters",
        "parameter": [ {
          "name": "subject",
          "valueString": "64353924-37ba-4a43-b651-ceb3a0fa7f29"
        } ]
      } ],
      "extension": [ {
        "url": "http://hl7.org/fhir/StructureDefinition/cqf-inputParameters",
        "valueReference": {
          "reference": "#b3ac5949-9942-4ddd-8346-b6ee3717eb18-parameters"
        }
      }, {
        "url": "http://hl7.org/fhir/us/cqfmeasures/StructureDefinition/cqfm-testCaseDescription",
        "valueMarkdown": "Patient turns 18 on the day after admission\n"
      } ],
      "modifierExtension": [ {
        "url": "http://hl7.org/fhir/us/cqfmeasures/StructureDefinition/cqfm-isTestCase",
        "valueBoolean": true
      } ],
      "status": "complete",
      "type": "individual",
      "measure": "https://madie.cms.gov/Measure/CMS190FHIRVTEProphylaxisICU",
      "period": {
        "start": "2026-01-01",
        "end": "2026-12-31"
      },
      "group": [ {
        "id": "Group_1",
        "population": [ {
          "id": "InitialPopulation_1",
          "code": {
            "coding": [ {
              "system": "http://terminology.hl7.org/CodeSystem/measure-population",
              "code": "initial-population",
              "display": "Initial Population"
            } ]
          },
          "count": 0
        }, {
          "id": "Denominator_1",
          "code": {
            "coding": [ {
              "system": "http://terminology.hl7.org/CodeSystem/measure-population",
              "code": "denominator",
              "display": "Denominator"
            } ]
          },
          "count": 0
        }, {
          "id": "DenominatorExclusion_1",
          "code": {
            "coding": [ {
              "system": "http://terminology.hl7.org/CodeSystem/measure-population",
              "code": "denominator-exclusion",
              "display": "Denominator Exclusion"
            } ]
          },
          "count": 0
        }, {
          "id": "Numerator_1",
          "code": {
            "coding": [ {
              "system": "http://terminology.hl7.org/CodeSystem/measure-population",
              "code": "numerator",
              "display": "Numerator"
            } ]
          },
          "count": 0
        }, {
          "id": "DenominatorException_1",
          "code": {
            "coding": [ {
              "system": "http://terminology.hl7.org/CodeSystem/measure-population",
              "code": "denominator-exception",
              "display": "Denominator Exception"
            } ]
          },
          "count": 0
        } ],
        "measureScore": {
          "value": 0.0
        }
      } ],
      "evaluatedResource": [ {
        "reference": "Patient/64353924-37ba-4a43-b651-ceb3a0fa7f29"
      }, {
        "reference": "Encounter/211f7c70-9d8d-40d6-aec5-da9ba0cdc12b"
      }, {
        "reference": "Coverage/4ba8bdd8-280e-44a6-aaa3-11f2d06c4296"
      }, {
        "reference": "Organization/7c03fc27-3dac-44a1-9af1-43b70b68e885"
      }, {
        "reference": "Practitioner/66965136-244c-4544-a3fa-a6bc8f19d49e"
      } ]
    },
    "request": {
      "method": "PUT",
      "url": "MeasureReport/986ea650-1718-4bd4-a034-29333d0cf880"
    }
  } ]
}