{
  "resourceType": "Bundle",
  "id": "63231ae12a56ae63756a53ee",
  "type": "transaction",
  "entry": [ {
    "fullUrl": "https://madie.cms.gov/Patient/cbf21555-f64b-427a-b274-111b94523cf7",
    "resource": {
      "resourceType": "Patient",
      "id": "cbf21555-f64b-427a-b274-111b94523cf7",
      "meta": {
        "profile": [ "http://hl7.org/fhir/us/qicore/StructureDefinition/qicore-patient" ]
      },
      "extension": [ {
        "url": "http://hl7.org/fhir/us/core/StructureDefinition/us-core-ethnicity",
        "extension": [ {
          "url": "ombCategory",
          "valueCoding": {
            "system": "urn:oid:2.16.840.1.113883.6.238",
            "code": "2135-2",
            "display": "Hispanic or Latino",
            "userSelected": true
          }
        }, {
          "url": "text",
          "valueString": "Hispanic or Latino"
        } ]
      } ],
      "identifier": [ {
        "system": "http://hospital.smarthealthit.org",
        "value": "999999999"
      } ],
      "name": [ {
        "family": "DENOMPass",
        "given": [ "EncounterWithOpioid" ]
      } ],
      "gender": "male",
      "birthDate": "2006-12-31"
    },
    "request": {
      "method": "PUT",
      "url": "Patient/cbf21555-f64b-427a-b274-111b94523cf7"
    }
  }, {
    "fullUrl": "https://madie.cms.gov/Encounter/e16bbe09-d0ae-40f9-918d-a3f7ca9858d1",
    "resource": {
      "resourceType": "Encounter",
      "id": "e16bbe09-d0ae-40f9-918d-a3f7ca9858d1",
      "meta": {
        "profile": [ "http://hl7.org/fhir/us/qicore/StructureDefinition/qicore-encounter" ]
      },
      "status": "finished",
      "class": {
        "system": "http://terminology.hl7.org/CodeSystem/v3-ActCode",
        "code": "IMP",
        "display": "inpatient encounter"
      },
      "type": [ {
        "coding": [ {
          "system": "http://snomed.info/sct",
          "code": "183452005",
          "display": "Emergency hospital admission (procedure)",
          "userSelected": true
        } ]
      } ],
      "subject": {
        "reference": "Patient/cbf21555-f64b-427a-b274-111b94523cf7"
      },
      "period": {
        "start": "2026-01-01T00:01:00.000+00:00",
        "end": "2026-01-05T00:30:00.000+00:00"
      }
    },
    "request": {
      "method": "PUT",
      "url": "Encounter/e16bbe09-d0ae-40f9-918d-a3f7ca9858d1"
    }
  }, {
    "fullUrl": "https://madie.cms.gov/MedicationRequest/88d2758b-7243-4349-8f19-e26a786921be",
    "resource": {
      "resourceType": "MedicationRequest",
      "id": "88d2758b-7243-4349-8f19-e26a786921be",
      "meta": {
        "profile": [ "http://hl7.org/fhir/us/qicore/StructureDefinition/qicore-medicationrequest" ]
      },
      "status": "active",
      "intent": "order",
      "category": [ {
        "coding": [ {
          "system": "http://terminology.hl7.org/CodeSystem/medicationrequest-category",
          "code": "discharge",
          "display": "Discharge",
          "userSelected": true
        } ]
      } ],
      "doNotPerform": false,
      "medicationCodeableConcept": {
        "coding": [ {
          "system": "http://www.nlm.nih.gov/research/umls/rxnorm",
          "code": "1014632",
          "display": "acetaminophen 300 MG / oxycodone hydrochloride 7.5 MG Oral Tablet",
          "userSelected": true
        } ]
      },
      "subject": {
        "reference": "Patient/cbf21555-f64b-427a-b274-111b94523cf7"
      },
      "authoredOn": "2026-01-05T00:29:00.000+00:00",
      "requester": {
        "reference": "Practitioner/91436b38-be2d-4257-8713-c5d1c737f92f"
      }
    },
    "request": {
      "method": "PUT",
      "url": "MedicationRequest/88d2758b-7243-4349-8f19-e26a786921be"
    }
  }, {
    "fullUrl": "https://madie.cms.gov/Practitioner/91436b38-be2d-4257-8713-c5d1c737f92f",
    "resource": {
      "resourceType": "Practitioner",
      "id": "91436b38-be2d-4257-8713-c5d1c737f92f",
      "meta": {
        "profile": [ "http://hl7.org/fhir/us/qicore/StructureDefinition/qicore-practitioner" ]
      },
      "identifier": [ {
        "system": "http://hl7.org/fhir/sid/us-npi",
        "value": "9999999896"
      } ],
      "active": true,
      "name": [ {
        "family": "Ramires",
        "given": [ "Alma" ],
        "prefix": [ "Dr" ]
      } ],
      "address": [ {
        "use": "home",
        "line": [ "534 Erewhon St" ],
        "city": "Netherville",
        "state": "IN",
        "postalCode": "46131"
      } ],
      "qualification": [ {
        "identifier": [ {
          "system": "http://goodhealth.org/prIdentifier",
          "value": "12345"
        } ],
        "code": {
          "coding": [ {
            "system": "http://terminology.hl7.org/CodeSystem/v2-0360|2.7",
            "code": "BS",
            "display": "Bachelor of Science"
          } ],
          "text": "Bachelor of Science"
        },
        "period": {
          "start": "1995"
        },
        "issuer": {
          "display": "Example University"
        }
      } ]
    },
    "request": {
      "method": "PUT",
      "url": "Practitioner/91436b38-be2d-4257-8713-c5d1c737f92f"
    }
  }, {
    "fullUrl": "https://madie.cms.gov/Coverage/77be7a9d-0beb-447f-a2d3-5da3d51403dd",
    "resource": {
      "resourceType": "Coverage",
      "id": "77be7a9d-0beb-447f-a2d3-5da3d51403dd",
      "meta": {
        "profile": [ "http://hl7.org/fhir/us/qicore/StructureDefinition/qicore-coverage" ]
      },
      "status": "active",
      "subscriberId": "523435",
      "beneficiary": {
        "reference": "Patient/cbf21555-f64b-427a-b274-111b94523cf7"
      },
      "relationship": {
        "coding": [ {
          "system": "http://terminology.hl7.org/CodeSystem/subscriber-relationship",
          "code": "self"
        } ]
      },
      "payor": [ {
        "reference": "Organization/0e94c32a-f189-430b-8457-b54fde666a83"
      } ]
    },
    "request": {
      "method": "PUT",
      "url": "Coverage/77be7a9d-0beb-447f-a2d3-5da3d51403dd"
    }
  }, {
    "fullUrl": "https://madie.cms.gov/Organization/0e94c32a-f189-430b-8457-b54fde666a83",
    "resource": {
      "resourceType": "Organization",
      "id": "0e94c32a-f189-430b-8457-b54fde666a83",
      "meta": {
        "profile": [ "http://hl7.org/fhir/us/qicore/StructureDefinition/qicore-organization" ]
      },
      "identifier": [ {
        "use": "temp",
        "system": "urn:oid:2.16.840.1.113883.4.4",
        "value": "21-3259825"
      } ],
      "active": true,
      "type": [ {
        "coding": [ {
          "system": "http://terminology.hl7.org/CodeSystem/organization-type",
          "code": "pay",
          "display": "Payer"
        } ]
      } ],
      "name": "Blue Cross Blue Shield of Texas",
      "telecom": [ {
        "system": "phone",
        "value": "(+1) 972-766-6900"
      } ],
      "address": [ {
        "use": "billing",
        "type": "postal",
        "line": [ "P.O. Box 660044" ],
        "city": "Dallas",
        "state": "TX",
        "postalCode": "75266-0044",
        "country": "USA"
      } ]
    },
    "request": {
      "method": "PUT",
      "url": "Organization/0e94c32a-f189-430b-8457-b54fde666a83"
    }
  }, {
    "fullUrl": "https://madie.cms.gov/MeasureReport/f7d11982-3175-459b-8916-4f83b4e60a31",
    "resource": {
      "resourceType": "MeasureReport",
      "id": "f7d11982-3175-459b-8916-4f83b4e60a31",
      "meta": {
        "profile": [ "http://hl7.org/fhir/us/cqfmeasures/StructureDefinition/test-case-cqfm" ]
      },
      "contained": [ {
        "resourceType": "Parameters",
        "id": "527b610c-e43b-414d-bc03-b5d86b00ce6f-parameters",
        "parameter": [ {
          "name": "subject",
          "valueString": "cbf21555-f64b-427a-b274-111b94523cf7"
        } ]
      } ],
      "extension": [ {
        "url": "http://hl7.org/fhir/StructureDefinition/cqf-inputParameters",
        "valueReference": {
          "reference": "#527b610c-e43b-414d-bc03-b5d86b00ce6f-parameters"
        }
      }, {
        "url": "http://hl7.org/fhir/us/cqfmeasures/StructureDefinition/cqfm-testCaseDescription",
        "valueMarkdown": "Encounter 01/01  - 1/5, age 18, opioid prescribed 1 min before discharge"
      } ],
      "modifierExtension": [ {
        "url": "http://hl7.org/fhir/us/cqfmeasures/StructureDefinition/cqfm-isTestCase",
        "valueBoolean": true
      } ],
      "status": "complete",
      "type": "individual",
      "measure": "https://madie.cms.gov/Measure/CMS506FHIRSafeUseofOpioids",
      "period": {
        "start": "2026-01-01",
        "end": "2026-12-31"
      },
      "group": [ {
        "id": "Group_1",
        "population": [ {
          "id": "InitialPopulation_1",
          "code": {
            "coding": [ {
              "system": "http://terminology.hl7.org/CodeSystem/measure-population",
              "code": "initial-population",
              "display": "Initial Population"
            } ]
          },
          "count": 1
        }, {
          "id": "Denominator_1",
          "code": {
            "coding": [ {
              "system": "http://terminology.hl7.org/CodeSystem/measure-population",
              "code": "denominator",
              "display": "Denominator"
            } ]
          },
          "count": 1
        }, {
          "id": "DenominatorExclusion_1",
          "code": {
            "coding": [ {
              "system": "http://terminology.hl7.org/CodeSystem/measure-population",
              "code": "denominator-exclusion",
              "display": "Denominator Exclusion"
            } ]
          },
          "count": 0
        }, {
          "id": "Numerator_1",
          "code": {
            "coding": [ {
              "system": "http://terminology.hl7.org/CodeSystem/measure-population",
              "code": "numerator",
              "display": "Numerator"
            } ]
          },
          "count": 0
        } ],
        "measureScore": {
          "value": 0.0
        }
      } ],
      "evaluatedResource": [ {
        "reference": "Patient/cbf21555-f64b-427a-b274-111b94523cf7"
      }, {
        "reference": "Encounter/e16bbe09-d0ae-40f9-918d-a3f7ca9858d1"
      }, {
        "reference": "MedicationRequest/88d2758b-7243-4349-8f19-e26a786921be"
      }, {
        "reference": "Practitioner/91436b38-be2d-4257-8713-c5d1c737f92f"
      }, {
        "reference": "Coverage/77be7a9d-0beb-447f-a2d3-5da3d51403dd"
      }, {
        "reference": "Organization/0e94c32a-f189-430b-8457-b54fde666a83"
      } ]
    },
    "request": {
      "method": "PUT",
      "url": "MeasureReport/f7d11982-3175-459b-8916-4f83b4e60a31"
    }
  } ]
}