{
  "resourceType": "Bundle",
  "id": "633b3f9f0968f80122503ce2",
  "type": "transaction",
  "entry": [ {
    "fullUrl": "https://madie.cms.gov/Patient/1a1411f1-a9f1-4b4c-b722-d0558b95a8df",
    "resource": {
      "resourceType": "Patient",
      "id": "1a1411f1-a9f1-4b4c-b722-d0558b95a8df",
      "meta": {
        "profile": [ "http://hl7.org/fhir/us/qicore/StructureDefinition/qicore-patient" ]
      },
      "text": {
        "status": "generated",
        "div": "<div xmlns=\"http://www.w3.org/1999/xhtml\"><div class=\"hapiHeaderText\">LastAssPrfEGAResultQuantityEQ21<b>DENOMPASS</b></div><table class=\"hapiPropertyTable\"><tbody><tr><td>Date of birth</td><td><span>01 February 2004</span></td></tr></tbody></table></div>"
      },
      "extension": [ {
        "url": "http://hl7.org/fhir/us/core/StructureDefinition/us-core-race",
        "extension": [ {
          "url": "ombCategory",
          "valueCoding": {
            "system": "urn:oid:2.16.840.1.113883.6.238",
            "code": "1002-5",
            "display": "American Indian or Alaska Native",
            "userSelected": true
          }
        }, {
          "url": "text",
          "valueString": "American Indian or Alaska Native"
        } ]
      }, {
        "url": "http://hl7.org/fhir/us/core/StructureDefinition/us-core-ethnicity",
        "extension": [ {
          "url": "ombCategory",
          "valueCoding": {
            "system": "urn:oid:2.16.840.1.113883.6.238",
            "code": "2135-2",
            "display": "Hispanic or Latino",
            "userSelected": true
          }
        }, {
          "url": "text",
          "valueString": "Hispanic or Latino"
        } ]
      } ],
      "identifier": [ {
        "type": {
          "coding": [ {
            "system": "http://terminology.hl7.org/CodeSystem/v2-0203",
            "code": "MR"
          } ]
        },
        "system": "https://bonnie-fhir.healthit.gov/",
        "value": "633b3f9f0968f80122503ce2"
      } ],
      "active": true,
      "name": [ {
        "use": "usual",
        "family": "DENOMPass",
        "given": [ "LastAssPrfEGAResultQuantityEQ21" ]
      } ],
      "gender": "female",
      "birthDate": "2017-02-01"
    },
    "request": {
      "method": "PUT",
      "url": "Patient/1a1411f1-a9f1-4b4c-b722-d0558b95a8df"
    }
  }, {
    "fullUrl": "https://madie.cms.gov/Observation/9bc51c3d-5391-43e9-becb-884f1625b392",
    "resource": {
      "resourceType": "Observation",
      "id": "9bc51c3d-5391-43e9-becb-884f1625b392",
      "meta": {
        "profile": [ "http://hl7.org/fhir/us/qicore/StructureDefinition/qicore-simple-observation" ]
      },
      "status": "final",
      "category": [ {
        "coding": [ {
          "system": "http://terminology.hl7.org/CodeSystem/observation-category",
          "code": "exam",
          "display": "exam",
          "userSelected": true
        } ]
      } ],
      "code": {
        "coding": [ {
          "system": "http://loinc.org",
          "code": "93857-1"
        } ]
      },
      "subject": {
        "reference": "Patient/1a1411f1-a9f1-4b4c-b722-d0558b95a8df"
      },
      "effectiveDateTime": "2026-02-01T08:00:00.000+00:00",
      "performer": [ {
        "reference": "Organization/example1",
        "display": "Hendricks Country Hospital"
      } ],
      "valueDateTime": "2026-02-01T08:00:00.000+00:00"
    },
    "request": {
      "method": "PUT",
      "url": "Observation/9bc51c3d-5391-43e9-becb-884f1625b392"
    }
  }, {
    "fullUrl": "https://madie.cms.gov/Observation/a72c0d66-632f-4079-97d7-cdb5abb83d3e",
    "resource": {
      "resourceType": "Observation",
      "id": "a72c0d66-632f-4079-97d7-cdb5abb83d3e",
      "meta": {
        "profile": [ "http://hl7.org/fhir/us/qicore/StructureDefinition/qicore-simple-observation" ]
      },
      "status": "final",
      "category": [ {
        "coding": [ {
          "system": "http://terminology.hl7.org/CodeSystem/observation-category",
          "code": "exam",
          "display": "exam",
          "userSelected": true
        } ]
      } ],
      "code": {
        "coding": [ {
          "system": "http://loinc.org",
          "code": "11884-4"
        } ]
      },
      "subject": {
        "reference": "Patient/1a1411f1-a9f1-4b4c-b722-d0558b95a8df"
      },
      "effectiveDateTime": "2026-02-01T08:00:00.000+00:00",
      "performer": [ {
        "reference": "Organization/example1",
        "display": "Hendricks Country Hospital"
      } ],
      "valueQuantity": {
        "value": 20,
        "unit": "wk"
      }
    },
    "request": {
      "method": "PUT",
      "url": "Observation/a72c0d66-632f-4079-97d7-cdb5abb83d3e"
    }
  }, {
    "fullUrl": "https://madie.cms.gov/Encounter/e3d8c1d5-1aff-4b3b-9153-caee3ed04561",
    "resource": {
      "resourceType": "Encounter",
      "id": "e3d8c1d5-1aff-4b3b-9153-caee3ed04561",
      "meta": {
        "profile": [ "http://hl7.org/fhir/us/qicore/StructureDefinition/qicore-encounter" ]
      },
      "status": "finished",
      "class": {
        "system": "http://terminology.hl7.org/CodeSystem/v3-ActCode",
        "code": "IMP",
        "display": "inpatient encounter"
      },
      "type": [ {
        "coding": [ {
          "system": "http://snomed.info/sct",
          "code": "183452005"
        } ]
      } ],
      "subject": {
        "reference": "Patient/1a1411f1-a9f1-4b4c-b722-d0558b95a8df"
      },
      "period": {
        "start": "2026-02-01T08:00:00.000+00:00",
        "end": "2026-02-05T08:15:00.000+00:00"
      }
    },
    "request": {
      "method": "PUT",
      "url": "Encounter/e3d8c1d5-1aff-4b3b-9153-caee3ed04561"
    }
  }, {
    "fullUrl": "https://madie.cms.gov/Procedure/db4afef7-a059-418e-8499-6320194daf0d",
    "resource": {
      "resourceType": "Procedure",
      "id": "db4afef7-a059-418e-8499-6320194daf0d",
      "meta": {
        "profile": [ "http://hl7.org/fhir/us/qicore/StructureDefinition/qicore-procedure" ]
      },
      "extension": [ {
        "url": "http://hl7.org/fhir/us/qicore/StructureDefinition/qicore-recorded",
        "valueDateTime": "2014-04-05T13:35:00.000+00:00"
      } ],
      "status": "completed",
      "code": {
        "coding": [ {
          "system": "http://snomed.info/sct",
          "code": "10745001"
        } ]
      },
      "subject": {
        "reference": "Patient/1a1411f1-a9f1-4b4c-b722-d0558b95a8df"
      },
      "performedPeriod": {
        "start": "2026-02-01T08:00:00.000+00:00",
        "end": "2026-02-05T08:15:00.000+00:00"
      }
    },
    "request": {
      "method": "PUT",
      "url": "Procedure/db4afef7-a059-418e-8499-6320194daf0d"
    }
  }, {
    "fullUrl": "https://madie.cms.gov/Coverage/cdfc92c5-dc8c-4d6e-974b-3fb3d6343c68",
    "resource": {
      "resourceType": "Coverage",
      "id": "cdfc92c5-dc8c-4d6e-974b-3fb3d6343c68",
      "meta": {
        "profile": [ "http://hl7.org/fhir/us/qicore/StructureDefinition/qicore-coverage" ]
      },
      "status": "active",
      "subscriberId": "523435",
      "beneficiary": {
        "reference": "Patient/1a1411f1-a9f1-4b4c-b722-d0558b95a8df"
      },
      "relationship": {
        "coding": [ {
          "system": "http://terminology.hl7.org/CodeSystem/subscriber-relationship",
          "code": "self"
        } ]
      },
      "payor": [ {
        "reference": "Organization/edf0460a-fdd0-4275-9419-2082f32bd70b"
      } ]
    },
    "request": {
      "method": "PUT",
      "url": "Coverage/cdfc92c5-dc8c-4d6e-974b-3fb3d6343c68"
    }
  }, {
    "fullUrl": "https://madie.cms.gov/Organization/edf0460a-fdd0-4275-9419-2082f32bd70b",
    "resource": {
      "resourceType": "Organization",
      "id": "edf0460a-fdd0-4275-9419-2082f32bd70b",
      "meta": {
        "profile": [ "http://hl7.org/fhir/us/qicore/StructureDefinition/qicore-organization" ]
      },
      "identifier": [ {
        "use": "temp",
        "system": "urn:oid:2.16.840.1.113883.4.4",
        "value": "21-3259825"
      } ],
      "active": true,
      "type": [ {
        "coding": [ {
          "system": "http://terminology.hl7.org/CodeSystem/organization-type",
          "code": "pay",
          "display": "Payer"
        } ]
      } ],
      "name": "Blue Cross Blue Shield of Texas",
      "telecom": [ {
        "system": "phone",
        "value": "(+1) 972-766-6900"
      } ],
      "address": [ {
        "use": "billing",
        "type": "postal",
        "line": [ "P.O. Box 660044" ],
        "city": "Dallas",
        "state": "TX",
        "postalCode": "75266-0044",
        "country": "USA"
      } ]
    },
    "request": {
      "method": "PUT",
      "url": "Organization/edf0460a-fdd0-4275-9419-2082f32bd70b"
    }
  }, {
    "fullUrl": "https://madie.cms.gov/Practitioner/fcc67f01-60f2-4dcb-b010-9c966840764e",
    "resource": {
      "resourceType": "Practitioner",
      "id": "fcc67f01-60f2-4dcb-b010-9c966840764e",
      "meta": {
        "profile": [ "http://hl7.org/fhir/us/qicore/StructureDefinition/qicore-practitioner" ]
      },
      "identifier": [ {
        "system": "http://hl7.org/fhir/sid/us-npi",
        "value": "1234567890"
      } ],
      "name": [ {
        "family": "Evil",
        "prefix": [ "Dr" ]
      } ]
    },
    "request": {
      "method": "PUT",
      "url": "Practitioner/fcc67f01-60f2-4dcb-b010-9c966840764e"
    }
  }, {
    "fullUrl": "https://madie.cms.gov/MeasureReport/430f6663-ccb4-49ff-9081-3db03af26ee0",
    "resource": {
      "resourceType": "MeasureReport",
      "id": "430f6663-ccb4-49ff-9081-3db03af26ee0",
      "meta": {
        "profile": [ "http://hl7.org/fhir/us/cqfmeasures/StructureDefinition/test-case-cqfm" ]
      },
      "contained": [ {
        "resourceType": "Parameters",
        "id": "79fbd8a4-d085-497a-a8c2-9ab0b276a512-parameters",
        "parameter": [ {
          "name": "subject",
          "valueString": "1a1411f1-a9f1-4b4c-b722-d0558b95a8df"
        } ]
      } ],
      "extension": [ {
        "url": "http://hl7.org/fhir/StructureDefinition/cqf-inputParameters",
        "valueReference": {
          "reference": "#79fbd8a4-d085-497a-a8c2-9ab0b276a512-parameters"
        }
      }, {
        "url": "http://hl7.org/fhir/us/cqfmeasures/StructureDefinition/cqfm-testCaseDescription",
        "valueMarkdown": "Last Assessment Performed EGA = 21 weeks\n"
      } ],
      "modifierExtension": [ {
        "url": "http://hl7.org/fhir/us/cqfmeasures/StructureDefinition/cqfm-isTestCase",
        "valueBoolean": true
      } ],
      "status": "complete",
      "type": "individual",
      "measure": "https://madie.cms.gov/Measure/CMS1028FHIRPCSevereOBComps",
      "period": {
        "start": "2026-01-01",
        "end": "2026-12-31"
      },
      "group": [ {
        "id": "Group_1",
        "population": [ {
          "id": "InitialPopulation_1",
          "code": {
            "coding": [ {
              "system": "http://terminology.hl7.org/CodeSystem/measure-population",
              "code": "initial-population",
              "display": "Initial Population"
            } ]
          },
          "count": 1
        }, {
          "id": "Denominator_1",
          "code": {
            "coding": [ {
              "system": "http://terminology.hl7.org/CodeSystem/measure-population",
              "code": "denominator",
              "display": "Denominator"
            } ]
          },
          "count": 1
        }, {
          "id": "Numerator_1",
          "code": {
            "coding": [ {
              "system": "http://terminology.hl7.org/CodeSystem/measure-population",
              "code": "numerator",
              "display": "Numerator"
            } ]
          },
          "count": 0
        }, {
          "id": "NumeratorExclusion_1",
          "code": {
            "coding": [ {
              "system": "http://terminology.hl7.org/CodeSystem/measure-population",
              "code": "numerator-exclusion",
              "display": "Numerator Exclusion"
            } ]
          },
          "count": 0
        } ],
        "measureScore": {
          "value": 0.0
        }
      }, {
        "id": "Group_2",
        "population": [ {
          "id": "InitialPopulation_2",
          "code": {
            "coding": [ {
              "system": "http://terminology.hl7.org/CodeSystem/measure-population",
              "code": "initial-population",
              "display": "Initial Population"
            } ]
          },
          "count": 1
        }, {
          "id": "Denominator_2",
          "code": {
            "coding": [ {
              "system": "http://terminology.hl7.org/CodeSystem/measure-population",
              "code": "denominator",
              "display": "Denominator"
            } ]
          },
          "count": 1
        }, {
          "id": "Numerator_2",
          "code": {
            "coding": [ {
              "system": "http://terminology.hl7.org/CodeSystem/measure-population",
              "code": "numerator",
              "display": "Numerator"
            } ]
          },
          "count": 0
        }, {
          "id": "NumeratorExclusion_2",
          "code": {
            "coding": [ {
              "system": "http://terminology.hl7.org/CodeSystem/measure-population",
              "code": "numerator-exclusion",
              "display": "Numerator Exclusion"
            } ]
          },
          "count": 0
        } ],
        "measureScore": {
          "value": 0.0
        }
      } ],
      "evaluatedResource": [ {
        "reference": "Patient/1a1411f1-a9f1-4b4c-b722-d0558b95a8df"
      }, {
        "reference": "Observation/9bc51c3d-5391-43e9-becb-884f1625b392"
      }, {
        "reference": "Observation/a72c0d66-632f-4079-97d7-cdb5abb83d3e"
      }, {
        "reference": "Encounter/e3d8c1d5-1aff-4b3b-9153-caee3ed04561"
      }, {
        "reference": "Procedure/db4afef7-a059-418e-8499-6320194daf0d"
      }, {
        "reference": "Coverage/cdfc92c5-dc8c-4d6e-974b-3fb3d6343c68"
      }, {
        "reference": "Organization/edf0460a-fdd0-4275-9419-2082f32bd70b"
      }, {
        "reference": "Practitioner/fcc67f01-60f2-4dcb-b010-9c966840764e"
      } ]
    },
    "request": {
      "method": "PUT",
      "url": "MeasureReport/430f6663-ccb4-49ff-9081-3db03af26ee0"
    }
  } ]
}