{
  "resourceType": "Bundle",
  "id": "62fd10a385b0356a7c285335",
  "type": "collection",
  "entry": [ {
    "fullUrl": "https://madie.cms.gov/Patient/8d89307b-7ec1-4262-93cc-e1b4ef76e326",
    "resource": {
      "resourceType": "Patient",
      "id": "8d89307b-7ec1-4262-93cc-e1b4ef76e326",
      "meta": {
        "profile": [ "http://hl7.org/fhir/us/qicore/StructureDefinition/qicore-patient" ]
      },
      "extension": [ {
        "url": "http://hl7.org/fhir/us/core/StructureDefinition/us-core-race",
        "extension": [ {
          "url": "ombCategory",
          "valueCoding": {
            "system": "urn:oid:2.16.840.1.113883.6.238",
            "code": "2054-5",
            "display": "Black or African American",
            "userSelected": true
          }
        }, {
          "url": "text",
          "valueString": "Black or African American"
        } ]
      }, {
        "url": "http://hl7.org/fhir/us/core/StructureDefinition/us-core-ethnicity",
        "extension": [ {
          "url": "ombCategory",
          "valueCoding": {
            "system": "urn:oid:2.16.840.1.113883.6.238",
            "code": "2186-5",
            "display": "Not Hispanic or Latino",
            "userSelected": true
          }
        }, {
          "url": "text",
          "valueString": "Not Hispanic or Latino"
        } ]
      } ],
      "identifier": [ {
        "type": {
          "coding": [ {
            "system": "http://terminology.hl7.org/CodeSystem/v2-0203",
            "code": "MR"
          } ]
        },
        "system": "https://bonnie-fhir.healthit.gov/",
        "value": "62fd10a385b0356a7c285335"
      } ],
      "name": [ {
        "family": "DenomFail",
        "given": [ "GleasonBefore1stTxValueGreaterThan6" ]
      } ],
      "gender": "male",
      "birthDate": "1993-09-17"
    }
  }, {
    "fullUrl": "https://madie.cms.gov/Condition/317d3a21-0993-47dd-8bfc-72bbcdb48b9e",
    "resource": {
      "resourceType": "Condition",
      "id": "317d3a21-0993-47dd-8bfc-72bbcdb48b9e",
      "meta": {
        "profile": [ "http://hl7.org/fhir/us/qicore/StructureDefinition/qicore-condition-problems-health-concerns" ]
      },
      "clinicalStatus": {
        "coding": [ {
          "system": "http://terminology.hl7.org/CodeSystem/condition-clinical",
          "code": "active",
          "display": "active",
          "userSelected": true
        } ]
      },
      "category": [ {
        "coding": [ {
          "system": "http://terminology.hl7.org/CodeSystem/condition-category",
          "code": "problem-list-item",
          "display": "Problem List Item"
        } ]
      } ],
      "code": {
        "coding": [ {
          "system": "http://snomed.info/sct",
          "code": "254900004",
          "display": "Carcinoma of prostate (disorder)",
          "userSelected": true
        } ]
      },
      "subject": {
        "reference": "Patient/8d89307b-7ec1-4262-93cc-e1b4ef76e326"
      },
      "onsetPeriod": {
        "start": "2019-06-14T08:00:00.000+00:00"
      }
    }
  }, {
    "fullUrl": "https://madie.cms.gov/Procedure/07284133-f1d7-44b3-8232-cb0ea7e3447a",
    "resource": {
      "resourceType": "Procedure",
      "id": "07284133-f1d7-44b3-8232-cb0ea7e3447a",
      "meta": {
        "profile": [ "http://hl7.org/fhir/us/qicore/StructureDefinition/qicore-procedure" ]
      },
      "extension": [ {
        "url": "http://hl7.org/fhir/us/qicore/StructureDefinition/qicore-recorded",
        "valueDateTime": "2024-02-01T09:00:00.000+00:00"
      } ],
      "status": "completed",
      "code": {
        "coding": [ {
          "system": "http://snomed.info/sct",
          "code": "38915000",
          "display": "Radionuclide therapy for gland ablation (procedure)",
          "userSelected": true
        } ]
      },
      "subject": {
        "reference": "Patient/8d89307b-7ec1-4262-93cc-e1b4ef76e326"
      },
      "performedDateTime": "2026-04-28T08:00:00.000+00:00"
    }
  }, {
    "fullUrl": "https://madie.cms.gov/Observation/9d589514-08ff-47cc-b622-97acd499f2d5",
    "resource": {
      "resourceType": "Observation",
      "id": "9d589514-08ff-47cc-b622-97acd499f2d5",
      "meta": {
        "profile": [ "http://hl7.org/fhir/us/qicore/StructureDefinition/qicore-observation-clinical-result" ]
      },
      "status": "amended",
      "category": [ {
        "coding": [ {
          "system": "http://terminology.hl7.org/CodeSystem/observation-category",
          "code": "procedure",
          "display": "Procedure"
        } ]
      } ],
      "code": {
        "coding": [ {
          "system": "http://loinc.org",
          "version": "2.72",
          "code": "10508-0",
          "display": "Prostate specific Ag [Presence] in Tissue by Immune stain",
          "userSelected": true
        } ]
      },
      "subject": {
        "reference": "Patient/8d89307b-7ec1-4262-93cc-e1b4ef76e326"
      },
      "effectiveDateTime": "2026-02-02T08:00:00.000+00:00",
      "valueQuantity": {
        "value": 5.0,
        "system": "http://unitsofmeasure.org",
        "code": "ng/mL"
      }
    }
  }, {
    "fullUrl": "https://madie.cms.gov/Observation/10312458-5d96-478e-a3e1-b7590c36c559",
    "resource": {
      "resourceType": "Observation",
      "id": "10312458-5d96-478e-a3e1-b7590c36c559",
      "meta": {
        "profile": [ "http://hl7.org/fhir/us/qicore/StructureDefinition/qicore-observation-clinical-result" ]
      },
      "status": "final",
      "category": [ {
        "coding": [ {
          "system": "http://terminology.hl7.org/CodeSystem/observation-category",
          "code": "procedure",
          "display": "Procedure"
        } ]
      } ],
      "code": {
        "coding": [ {
          "system": "http://loinc.org",
          "code": "35266-6",
          "display": "Gleason score in Specimen Qualitative",
          "userSelected": true
        } ]
      },
      "subject": {
        "reference": "Patient/8d89307b-7ec1-4262-93cc-e1b4ef76e326"
      },
      "effectiveDateTime": "2026-08-17T08:00:00.000+00:00",
      "valueInteger": 5
    }
  }, {
    "fullUrl": "https://madie.cms.gov/Observation/bc8400dd-6fa3-463e-9e65-c37818875844",
    "resource": {
      "resourceType": "Observation",
      "id": "bc8400dd-6fa3-463e-9e65-c37818875844",
      "meta": {
        "profile": [ "http://hl7.org/fhir/us/qicore/StructureDefinition/qicore-observation-clinical-result" ]
      },
      "status": "amended",
      "category": [ {
        "coding": [ {
          "system": "http://terminology.hl7.org/CodeSystem/observation-category",
          "code": "procedure",
          "display": "Procedure"
        } ]
      } ],
      "code": {
        "coding": [ {
          "system": "http://snomed.info/sct",
          "code": "254292007",
          "display": "Tumor staging (tumor staging)",
          "userSelected": true
        } ]
      },
      "subject": {
        "reference": "Patient/8d89307b-7ec1-4262-93cc-e1b4ef76e326"
      },
      "effectiveDateTime": "2026-04-27T23:59:00.000+00:00",
      "valueCodeableConcept": {
        "coding": [ {
          "system": "http://snomed.info/sct",
          "code": "1228899006",
          "display": "American Joint Committee on Cancer cT1c (qualifier value)",
          "userSelected": true
        } ]
      }
    }
  }, {
    "fullUrl": "https://madie.cms.gov/Coverage/5170c354-26d1-453e-89f9-66ec334a417a",
    "resource": {
      "resourceType": "Coverage",
      "id": "5170c354-26d1-453e-89f9-66ec334a417a",
      "meta": {
        "profile": [ "http://hl7.org/fhir/us/qicore/StructureDefinition/qicore-coverage" ]
      },
      "status": "active",
      "subscriberId": "123456789",
      "beneficiary": {
        "reference": "Patient/8d89307b-7ec1-4262-93cc-e1b4ef76e326"
      },
      "relationship": {
        "coding": [ {
          "system": "http://terminology.hl7.org/CodeSystem/subscriber-relationship",
          "code": "self",
          "display": "Self",
          "userSelected": true
        } ]
      },
      "payor": [ {
        "reference": "Organization/b2e94b99-7670-4143-8356-8fae499c8f63"
      } ]
    }
  }, {
    "fullUrl": "https://madie.cms.gov/Organization/b2e94b99-7670-4143-8356-8fae499c8f63",
    "resource": {
      "resourceType": "Organization",
      "id": "b2e94b99-7670-4143-8356-8fae499c8f63",
      "meta": {
        "profile": [ "http://hl7.org/fhir/us/qicore/StructureDefinition/qicore-organization" ]
      },
      "identifier": [ {
        "use": "temp",
        "system": "urn:oid:2.16.840.1.113883.4.4",
        "value": "21-3259825"
      } ],
      "active": true,
      "type": [ {
        "coding": [ {
          "system": "http://terminology.hl7.org/CodeSystem/organization-type",
          "code": "pay",
          "display": "Payer"
        } ]
      } ],
      "name": "Blue Cross Blue Shield of Texas",
      "telecom": [ {
        "system": "phone",
        "value": "(+1) 972-766-6900"
      } ],
      "address": [ {
        "use": "billing",
        "type": "postal",
        "line": [ "P.O. Box 660044" ],
        "city": "Dallas",
        "state": "TX",
        "postalCode": "75266-0044",
        "country": "USA"
      } ]
    }
  }, {
    "fullUrl": "https://madie.cms.gov/Practitioner/1fe1c18e-1e28-4ee8-b51d-75b9db4e8f10",
    "resource": {
      "resourceType": "Practitioner",
      "id": "1fe1c18e-1e28-4ee8-b51d-75b9db4e8f10",
      "meta": {
        "profile": [ "http://hl7.org/fhir/us/qicore/StructureDefinition/qicore-practitioner" ]
      },
      "identifier": [ {
        "system": "http://hl7.org/fhir/sid/us-npi",
        "value": "1234567893"
      } ],
      "name": [ {
        "family": "Evil",
        "prefix": [ "Dr" ]
      } ]
    }
  }, {
    "fullUrl": "https://madie.cms.gov/MeasureReport/77bdbb91-0f87-401c-a69d-177e39212db8",
    "resource": {
      "resourceType": "MeasureReport",
      "id": "77bdbb91-0f87-401c-a69d-177e39212db8",
      "meta": {
        "profile": [ "http://hl7.org/fhir/us/cqfmeasures/StructureDefinition/test-case-cqfm" ]
      },
      "contained": [ {
        "resourceType": "Parameters",
        "id": "405b2253-b4e6-4cb5-9759-04e30a9981f2-parameters",
        "parameter": [ {
          "name": "subject",
          "valueString": "8d89307b-7ec1-4262-93cc-e1b4ef76e326"
        } ]
      } ],
      "extension": [ {
        "url": "http://hl7.org/fhir/StructureDefinition/cqf-inputParameters",
        "valueReference": {
          "reference": "#405b2253-b4e6-4cb5-9759-04e30a9981f2-parameters"
        }
      }, {
        "url": "http://hl7.org/fhir/us/cqfmeasures/StructureDefinition/cqfm-testCaseDescription",
        "valueMarkdown": "Prostate Ca Diagnosis but does not meet Gleason. Meets tumor staging. first treatment, and  PSA.  Gleason is before 1st cancer treatment.  Value >  6.\n"
      } ],
      "modifierExtension": [ {
        "url": "http://hl7.org/fhir/us/cqfmeasures/StructureDefinition/cqfm-isTestCase",
        "valueBoolean": true
      } ],
      "status": "complete",
      "type": "individual",
      "measure": "https://madie.cms.gov/Measure/CMS129FHIRProstCaBoneScanUse",
      "period": {
        "start": "2026-01-01",
        "end": "2026-12-31"
      },
      "group": [ {
        "id": "Group_1",
        "population": [ {
          "id": "InitialPopulation_1",
          "code": {
            "coding": [ {
              "system": "http://terminology.hl7.org/CodeSystem/measure-population",
              "code": "initial-population",
              "display": "Initial Population"
            } ]
          },
          "count": 1
        }, {
          "id": "Denominator_1",
          "code": {
            "coding": [ {
              "system": "http://terminology.hl7.org/CodeSystem/measure-population",
              "code": "denominator",
              "display": "Denominator"
            } ]
          },
          "count": 0
        }, {
          "id": "Numerator_1",
          "code": {
            "coding": [ {
              "system": "http://terminology.hl7.org/CodeSystem/measure-population",
              "code": "numerator",
              "display": "Numerator"
            } ]
          },
          "count": 0
        }, {
          "id": "DenominatorException_1",
          "code": {
            "coding": [ {
              "system": "http://terminology.hl7.org/CodeSystem/measure-population",
              "code": "denominator-exception",
              "display": "Denominator Exception"
            } ]
          },
          "count": 0
        } ],
        "measureScore": {
          "value": 1.0
        }
      } ],
      "evaluatedResource": [ {
        "reference": "Patient/8d89307b-7ec1-4262-93cc-e1b4ef76e326"
      }, {
        "reference": "Condition/317d3a21-0993-47dd-8bfc-72bbcdb48b9e"
      }, {
        "reference": "Procedure/07284133-f1d7-44b3-8232-cb0ea7e3447a"
      }, {
        "reference": "Observation/9d589514-08ff-47cc-b622-97acd499f2d5"
      }, {
        "reference": "Observation/10312458-5d96-478e-a3e1-b7590c36c559"
      }, {
        "reference": "Observation/bc8400dd-6fa3-463e-9e65-c37818875844"
      }, {
        "reference": "Coverage/5170c354-26d1-453e-89f9-66ec334a417a"
      }, {
        "reference": "Organization/b2e94b99-7670-4143-8356-8fae499c8f63"
      }, {
        "reference": "Practitioner/1fe1c18e-1e28-4ee8-b51d-75b9db4e8f10"
      } ]
    }
  } ]
}