{
  "resourceType": "Bundle",
  "id": "1316343131354",
  "type": "collection",
  "entry": [ {
    "fullUrl": "https://madie.cms.gov/Patient/b7c0a554-4fab-41c9-9bd6-c9c67230da52",
    "resource": {
      "resourceType": "Patient",
      "id": "b7c0a554-4fab-41c9-9bd6-c9c67230da52",
      "meta": {
        "profile": [ "http://hl7.org/fhir/us/qicore/StructureDefinition/qicore-patient" ]
      },
      "extension": [ {
        "url": "http://hl7.org/fhir/us/core/StructureDefinition/us-core-race",
        "extension": [ {
          "url": "ombCategory",
          "valueCoding": {
            "system": "urn:oid:2.16.840.1.113883.6.238",
            "code": "2106-3",
            "display": "White"
          }
        }, {
          "url": "text",
          "valueString": "White"
        } ]
      }, {
        "url": "http://hl7.org/fhir/us/core/StructureDefinition/us-core-ethnicity",
        "extension": [ {
          "url": "ombCategory",
          "valueCoding": {
            "system": "urn:oid:2.16.840.1.113883.6.238",
            "code": "2186-5",
            "display": "Not Hispanic or Latino"
          }
        }, {
          "url": "text",
          "valueString": "Not Hispanic or Latino"
        } ]
      } ],
      "identifier": [ {
        "type": {
          "coding": [ {
            "system": "http://terminology.hl7.org/CodeSystem/v2-0203",
            "code": "MR"
          } ]
        },
        "system": "https://bonnie-fhir.healthit.gov/",
        "value": "749646313131"
      } ],
      "active": true,
      "name": [ {
        "use": "usual",
        "family": "IPFail",
        "given": [ "LVSD2ndEncMPEdge" ]
      } ],
      "gender": "female",
      "birthDate": "1953-07-08"
    }
  }, {
    "fullUrl": "https://madie.cms.gov/Encounter/0c2bced3-2699-4f32-a181-15328ff0f71e",
    "resource": {
      "resourceType": "Encounter",
      "id": "0c2bced3-2699-4f32-a181-15328ff0f71e",
      "meta": {
        "profile": [ "http://hl7.org/fhir/us/qicore/StructureDefinition/qicore-encounter" ]
      },
      "status": "finished",
      "class": {
        "system": "http://terminology.hl7.org/CodeSystem/v3-ActCode",
        "code": "AMB",
        "display": "ambulatory"
      },
      "type": [ {
        "coding": [ {
          "system": "http://www.ama-assn.org/go/cpt",
          "version": "2024",
          "code": "99213"
        } ]
      } ],
      "subject": {
        "reference": "Patient/b7c0a554-4fab-41c9-9bd6-c9c67230da52"
      },
      "period": {
        "start": "2026-05-01T14:40:00.000+00:00",
        "end": "2026-05-01T14:40:00.000+00:00"
      },
      "length": {
        "value": 0,
        "unit": "days"
      }
    }
  }, {
    "fullUrl": "https://madie.cms.gov/Encounter/f9a7568d-f4d0-49c2-9e73-12827c5acc89",
    "resource": {
      "resourceType": "Encounter",
      "id": "f9a7568d-f4d0-49c2-9e73-12827c5acc89",
      "meta": {
        "profile": [ "http://hl7.org/fhir/us/qicore/StructureDefinition/qicore-encounter" ]
      },
      "status": "finished",
      "class": {
        "system": "http://terminology.hl7.org/CodeSystem/v3-ActCode",
        "code": "AMB",
        "display": "ambulatory"
      },
      "type": [ {
        "coding": [ {
          "system": "http://snomed.info/sct",
          "version": "http://snomed.info/sct/731000124108/version/20240301",
          "code": "401271004"
        } ]
      } ],
      "subject": {
        "reference": "Patient/b7c0a554-4fab-41c9-9bd6-c9c67230da52"
      },
      "period": {
        "start": "2026-12-31T05:00:00.000+00:00",
        "end": "2026-12-31T05:54:00.000+00:00"
      },
      "length": {
        "value": 0,
        "unit": "days"
      }
    }
  }, {
    "fullUrl": "https://madie.cms.gov/AllergyIntolerance/c90c821f-6583-458f-8bc1-07722707bc89",
    "resource": {
      "resourceType": "AllergyIntolerance",
      "id": "c90c821f-6583-458f-8bc1-07722707bc89",
      "meta": {
        "profile": [ "http://hl7.org/fhir/us/qicore/StructureDefinition/qicore-allergyintolerance" ]
      },
      "clinicalStatus": {
        "coding": [ {
          "system": "http://terminology.hl7.org/CodeSystem/allergyintolerance-clinical",
          "code": "active",
          "display": "Active"
        } ]
      },
      "code": {
        "coding": [ {
          "system": "http://www.nlm.nih.gov/research/umls/rxnorm",
          "version": "04012024",
          "code": "10600"
        } ]
      },
      "patient": {
        "reference": "Patient/b7c0a554-4fab-41c9-9bd6-c9c67230da52"
      },
      "onsetPeriod": {
        "start": "2026-07-02T11:50:00.000+00:00"
      }
    }
  }, {
    "fullUrl": "https://madie.cms.gov/Condition/314b2583-7318-44c6-9748-d7a39d2b4394",
    "resource": {
      "resourceType": "Condition",
      "id": "314b2583-7318-44c6-9748-d7a39d2b4394",
      "meta": {
        "profile": [ "http://hl7.org/fhir/us/qicore/StructureDefinition/qicore-condition-problems-health-concerns" ]
      },
      "clinicalStatus": {
        "coding": [ {
          "system": "http://terminology.hl7.org/CodeSystem/condition-clinical",
          "code": "active",
          "display": "Active"
        } ]
      },
      "verificationStatus": {
        "coding": [ {
          "system": "http://terminology.hl7.org/CodeSystem/condition-ver-status",
          "code": "refuted",
          "display": "Refuted"
        } ]
      },
      "category": [ {
        "coding": [ {
          "system": "http://terminology.hl7.org/CodeSystem/condition-category",
          "code": "problem-list-item",
          "display": "Problem List Item"
        } ]
      } ],
      "code": {
        "coding": [ {
          "system": "http://hl7.org/fhir/sid/icd-10-cm",
          "version": "2024",
          "code": "I50.83"
        } ]
      },
      "subject": {
        "reference": "Patient/b7c0a554-4fab-41c9-9bd6-c9c67230da52"
      },
      "onsetPeriod": {
        "start": "2026-04-21T10:00:00.000+00:00"
      }
    }
  }, {
    "fullUrl": "https://madie.cms.gov/Condition/1c20adec-9d95-4d95-8231-80afae2bceb5",
    "resource": {
      "resourceType": "Condition",
      "id": "1c20adec-9d95-4d95-8231-80afae2bceb5",
      "meta": {
        "profile": [ "http://hl7.org/fhir/us/qicore/StructureDefinition/qicore-condition-problems-health-concerns" ]
      },
      "clinicalStatus": {
        "coding": [ {
          "system": "http://terminology.hl7.org/CodeSystem/condition-clinical",
          "code": "active",
          "display": "Active"
        } ]
      },
      "category": [ {
        "coding": [ {
          "system": "http://terminology.hl7.org/CodeSystem/condition-category",
          "code": "problem-list-item",
          "display": "Problem List Item"
        } ]
      } ],
      "code": {
        "coding": [ {
          "system": "http://snomed.info/sct",
          "version": "http://snomed.info/sct/731000124108/version/20250301",
          "code": "134401001",
          "display": "Left ventricular systolic dysfunction (disorder)"
        } ]
      },
      "subject": {
        "reference": "Patient/b7c0a554-4fab-41c9-9bd6-c9c67230da52"
      },
      "onsetPeriod": {
        "start": "2026-02-14T14:40:00.000+00:00"
      }
    }
  }, {
    "fullUrl": "https://madie.cms.gov/MeasureReport/83ba0229-7eb8-4759-bd51-9bc9481fc6bc",
    "resource": {
      "resourceType": "MeasureReport",
      "id": "83ba0229-7eb8-4759-bd51-9bc9481fc6bc",
      "meta": {
        "profile": [ "http://hl7.org/fhir/us/cqfmeasures/StructureDefinition/test-case-cqfm" ]
      },
      "contained": [ {
        "resourceType": "Parameters",
        "id": "211e96a7-75d4-47e7-9015-8bd17cc7c21b-parameters",
        "parameter": [ {
          "name": "subject",
          "valueString": "b7c0a554-4fab-41c9-9bd6-c9c67230da52"
        } ]
      } ],
      "extension": [ {
        "url": "http://hl7.org/fhir/StructureDefinition/cqf-inputParameters",
        "valueReference": {
          "reference": "#211e96a7-75d4-47e7-9015-8bd17cc7c21b-parameters"
        }
      }, {
        "url": "http://hl7.org/fhir/us/cqfmeasures/StructureDefinition/cqfm-testCaseDescription",
        "valueMarkdown": "Second Encounter is at edge, last day of MP"
      } ],
      "modifierExtension": [ {
        "url": "http://hl7.org/fhir/us/cqfmeasures/StructureDefinition/cqfm-isTestCase",
        "valueBoolean": true
      } ],
      "status": "complete",
      "type": "individual",
      "measure": "https://madie.cms.gov/Measure/CMS144FHIRHFBetaBlockerForLVSD",
      "period": {
        "start": "2026-01-01",
        "end": "2026-12-31"
      },
      "group": [ {
        "id": "Group_1",
        "population": [ {
          "id": "InitialPopulation_1",
          "code": {
            "coding": [ {
              "system": "http://terminology.hl7.org/CodeSystem/measure-population",
              "code": "initial-population",
              "display": "Initial Population"
            } ]
          },
          "count": 0
        }, {
          "id": "Denominator_1",
          "code": {
            "coding": [ {
              "system": "http://terminology.hl7.org/CodeSystem/measure-population",
              "code": "denominator",
              "display": "Denominator"
            } ]
          },
          "count": 0
        }, {
          "id": "DenominatorExclusion_1",
          "code": {
            "coding": [ {
              "system": "http://terminology.hl7.org/CodeSystem/measure-population",
              "code": "denominator-exclusion",
              "display": "Denominator Exclusion"
            } ]
          },
          "count": 0
        }, {
          "id": "Numerator_1",
          "code": {
            "coding": [ {
              "system": "http://terminology.hl7.org/CodeSystem/measure-population",
              "code": "numerator",
              "display": "Numerator"
            } ]
          },
          "count": 0
        }, {
          "id": "DenominatorException_1",
          "code": {
            "coding": [ {
              "system": "http://terminology.hl7.org/CodeSystem/measure-population",
              "code": "denominator-exception",
              "display": "Denominator Exception"
            } ]
          },
          "count": 0
        } ],
        "measureScore": {
          "value": 1.0
        }
      } ],
      "evaluatedResource": [ {
        "reference": "Patient/b7c0a554-4fab-41c9-9bd6-c9c67230da52"
      }, {
        "reference": "Encounter/0c2bced3-2699-4f32-a181-15328ff0f71e"
      }, {
        "reference": "Encounter/f9a7568d-f4d0-49c2-9e73-12827c5acc89"
      }, {
        "reference": "AllergyIntolerance/c90c821f-6583-458f-8bc1-07722707bc89"
      }, {
        "reference": "Condition/314b2583-7318-44c6-9748-d7a39d2b4394"
      }, {
        "reference": "Condition/1c20adec-9d95-4d95-8231-80afae2bceb5"
      } ]
    }
  } ]
}