{
  "resourceType": "Bundle",
  "id": "63487c2d0968f80122540163",
  "type": "transaction",
  "entry": [ {
    "fullUrl": "https://madie.cms.gov/Patient/7ed48b89-cb57-45f9-ba16-24d85d09215c",
    "resource": {
      "resourceType": "Patient",
      "id": "7ed48b89-cb57-45f9-ba16-24d85d09215c",
      "meta": {
        "profile": [ "http://hl7.org/fhir/us/qicore/StructureDefinition/qicore-patient" ]
      },
      "text": {
        "status": "generated",
        "div": "<div xmlns=\"http://www.w3.org/1999/xhtml\"><div class=\"hapiHeaderText\">ProcNotCesareanBirth <b>NUMFAIL </b></div><table class=\"hapiPropertyTable\"><tbody><tr><td>Identifier</td><td>71189d70ba3427612f2a418107466ed1652ec9a0e76c1b9c30a1691a1d91b34c</td></tr><tr><td>Date of birth</td><td><span>14 February 1985</span></td></tr></tbody></table></div>"
      },
      "extension": [ {
        "url": "http://hl7.org/fhir/us/core/StructureDefinition/us-core-race",
        "extension": [ {
          "url": "ombCategory",
          "valueCoding": {
            "system": "urn:oid:2.16.840.1.113883.6.238",
            "code": "1002-5",
            "display": "American Indian or Alaska Native",
            "userSelected": true
          }
        }, {
          "url": "text",
          "valueString": "American Indian or Alaska Native"
        } ]
      }, {
        "url": "http://hl7.org/fhir/us/core/StructureDefinition/us-core-ethnicity",
        "extension": [ {
          "url": "ombCategory",
          "valueCoding": {
            "system": "urn:oid:2.16.840.1.113883.6.238",
            "code": "2135-2",
            "display": "Hispanic or Latino",
            "userSelected": true
          }
        }, {
          "url": "text",
          "valueString": "Hispanic or Latino"
        } ]
      } ],
      "identifier": [ {
        "type": {
          "coding": [ {
            "system": "http://terminology.hl7.org/CodeSystem/v2-0203",
            "code": "MR"
          } ]
        },
        "system": "https://bonnie-fhir.healthit.gov/",
        "value": "63487c2d0968f80122540163"
      } ],
      "active": true,
      "name": [ {
        "use": "usual",
        "family": "NUMFail",
        "given": [ "ProcNotCesareanBirth" ]
      } ],
      "gender": "female",
      "birthDate": "1998-02-14"
    },
    "request": {
      "method": "PUT",
      "url": "Patient/7ed48b89-cb57-45f9-ba16-24d85d09215c"
    }
  }, {
    "fullUrl": "https://madie.cms.gov/Observation/2b4c61bf-55e6-4eb4-a15b-9e74bc47616b",
    "resource": {
      "resourceType": "Observation",
      "id": "2b4c61bf-55e6-4eb4-a15b-9e74bc47616b",
      "meta": {
        "profile": [ "http://hl7.org/fhir/us/qicore/StructureDefinition/qicore-simple-observation" ]
      },
      "status": "final",
      "category": [ {
        "coding": [ {
          "system": "http://terminology.hl7.org/CodeSystem/observation-category",
          "code": "exam",
          "display": "exam",
          "userSelected": true
        } ]
      } ],
      "code": {
        "coding": [ {
          "system": "http://loinc.org",
          "code": "11996-6"
        } ]
      },
      "subject": {
        "reference": "Patient/7ed48b89-cb57-45f9-ba16-24d85d09215c"
      },
      "effectiveDateTime": "2026-02-09T08:00:00.000+00:00",
      "valueInteger": 1
    },
    "request": {
      "method": "PUT",
      "url": "Observation/2b4c61bf-55e6-4eb4-a15b-9e74bc47616b"
    }
  }, {
    "fullUrl": "https://madie.cms.gov/Observation/6580d1f6-05c5-4e1f-a920-f91f601cded7",
    "resource": {
      "resourceType": "Observation",
      "id": "6580d1f6-05c5-4e1f-a920-f91f601cded7",
      "meta": {
        "profile": [ "http://hl7.org/fhir/us/qicore/StructureDefinition/qicore-simple-observation" ]
      },
      "status": "final",
      "category": [ {
        "coding": [ {
          "system": "http://terminology.hl7.org/CodeSystem/observation-category",
          "code": "exam",
          "display": "exam",
          "userSelected": true
        } ]
      } ],
      "code": {
        "coding": [ {
          "system": "http://loinc.org",
          "code": "11884-4"
        } ]
      },
      "subject": {
        "reference": "Patient/7ed48b89-cb57-45f9-ba16-24d85d09215c"
      },
      "effectiveDateTime": "2026-11-28T21:15:00.000+00:00",
      "valueQuantity": {
        "value": 40,
        "system": "http://unitsofmeasure.org",
        "code": "wk"
      }
    },
    "request": {
      "method": "PUT",
      "url": "Observation/6580d1f6-05c5-4e1f-a920-f91f601cded7"
    }
  }, {
    "fullUrl": "https://madie.cms.gov/Observation/3f5b1029-7793-4a55-a966-2325a3aad164",
    "resource": {
      "resourceType": "Observation",
      "id": "3f5b1029-7793-4a55-a966-2325a3aad164",
      "meta": {
        "profile": [ "http://hl7.org/fhir/us/qicore/StructureDefinition/qicore-simple-observation" ]
      },
      "status": "final",
      "category": [ {
        "coding": [ {
          "system": "http://terminology.hl7.org/CodeSystem/observation-category",
          "code": "exam",
          "display": "exam",
          "userSelected": true
        } ]
      } ],
      "code": {
        "coding": [ {
          "system": "http://loinc.org",
          "code": "93857-1"
        } ]
      },
      "subject": {
        "reference": "Patient/7ed48b89-cb57-45f9-ba16-24d85d09215c"
      },
      "effectiveDateTime": "2026-11-28T21:15:00.000+00:00",
      "valueDateTime": "2026-11-28T21:15:00.000+00:00"
    },
    "request": {
      "method": "PUT",
      "url": "Observation/3f5b1029-7793-4a55-a966-2325a3aad164"
    }
  }, {
    "fullUrl": "https://madie.cms.gov/Encounter/5d443c7b-8a01-458d-ab4c-e4b19a4df532",
    "resource": {
      "resourceType": "Encounter",
      "id": "5d443c7b-8a01-458d-ab4c-e4b19a4df532",
      "meta": {
        "profile": [ "http://hl7.org/fhir/us/qicore/StructureDefinition/qicore-encounter" ]
      },
      "status": "finished",
      "class": {
        "system": "http://terminology.hl7.org/CodeSystem/v3-ActCode",
        "code": "IMP",
        "display": "inpatient encounter"
      },
      "type": [ {
        "coding": [ {
          "system": "http://snomed.info/sct",
          "code": "183452005"
        } ]
      } ],
      "subject": {
        "reference": "Patient/7ed48b89-cb57-45f9-ba16-24d85d09215c"
      },
      "period": {
        "start": "2026-11-28T08:00:00.000+00:00",
        "end": "2026-11-30T08:15:00.000+00:00"
      },
      "reasonReference": [ {
        "reference": "Condition/8b8a6106-2943-4e76-98ac-f1b34c51c396"
      } ]
    },
    "request": {
      "method": "PUT",
      "url": "Encounter/5d443c7b-8a01-458d-ab4c-e4b19a4df532"
    }
  }, {
    "fullUrl": "https://madie.cms.gov/Procedure/3873143c-94d6-4147-99e2-64150e1ff917",
    "resource": {
      "resourceType": "Procedure",
      "id": "3873143c-94d6-4147-99e2-64150e1ff917",
      "meta": {
        "profile": [ "http://hl7.org/fhir/us/qicore/StructureDefinition/qicore-procedure" ]
      },
      "extension": [ {
        "url": "http://hl7.org/fhir/us/qicore/StructureDefinition/qicore-recorded",
        "valueDateTime": "2014-04-05T13:35:00.000+00:00"
      } ],
      "status": "completed",
      "code": {
        "coding": [ {
          "system": "http://www.cms.gov/Medicare/Coding/ICD10",
          "code": "10D07Z3"
        } ]
      },
      "subject": {
        "reference": "Patient/7ed48b89-cb57-45f9-ba16-24d85d09215c"
      },
      "performedPeriod": {
        "start": "2026-11-28T20:00:00.000+00:00",
        "end": "2026-11-28T20:15:00.000+00:00"
      }
    },
    "request": {
      "method": "PUT",
      "url": "Procedure/3873143c-94d6-4147-99e2-64150e1ff917"
    }
  }, {
    "fullUrl": "https://madie.cms.gov/Condition/8b8a6106-2943-4e76-98ac-f1b34c51c396",
    "resource": {
      "resourceType": "Condition",
      "id": "8b8a6106-2943-4e76-98ac-f1b34c51c396",
      "meta": {
        "profile": [ "http://hl7.org/fhir/us/qicore/StructureDefinition/qicore-condition-encounter-diagnosis" ]
      },
      "category": [ {
        "coding": [ {
          "system": "http://terminology.hl7.org/CodeSystem/condition-category",
          "code": "encounter-diagnosis",
          "display": "Encounter Diagnosis"
        } ]
      } ],
      "code": {
        "coding": [ {
          "system": "http://snomed.info/sct",
          "code": "169826009",
          "display": "Single live birth from singleton pregnancy (finding)"
        } ]
      },
      "subject": {
        "reference": "Patient/7ed48b89-cb57-45f9-ba16-24d85d09215c"
      },
      "encounter": {
        "reference": "Encounter/5d443c7b-8a01-458d-ab4c-e4b19a4df532"
      },
      "recordedDate": "2026-10-17T08:00:00.000+00:00"
    },
    "request": {
      "method": "PUT",
      "url": "Condition/8b8a6106-2943-4e76-98ac-f1b34c51c396"
    }
  }, {
    "fullUrl": "https://madie.cms.gov/Coverage/3126e7e6-d817-461e-8496-7f41ce3163fb",
    "resource": {
      "resourceType": "Coverage",
      "id": "3126e7e6-d817-461e-8496-7f41ce3163fb",
      "meta": {
        "profile": [ "http://hl7.org/fhir/us/qicore/StructureDefinition/qicore-coverage" ]
      },
      "status": "active",
      "subscriberId": "523435",
      "beneficiary": {
        "reference": "Patient/7ed48b89-cb57-45f9-ba16-24d85d09215c"
      },
      "relationship": {
        "coding": [ {
          "system": "http://terminology.hl7.org/CodeSystem/subscriber-relationship",
          "code": "self"
        } ]
      },
      "payor": [ {
        "reference": "Organization/9597db96-ab69-4f9b-95cf-d1b8621a458d"
      } ]
    },
    "request": {
      "method": "PUT",
      "url": "Coverage/3126e7e6-d817-461e-8496-7f41ce3163fb"
    }
  }, {
    "fullUrl": "https://madie.cms.gov/Organization/9597db96-ab69-4f9b-95cf-d1b8621a458d",
    "resource": {
      "resourceType": "Organization",
      "id": "9597db96-ab69-4f9b-95cf-d1b8621a458d",
      "meta": {
        "profile": [ "http://hl7.org/fhir/us/qicore/StructureDefinition/qicore-organization" ]
      },
      "identifier": [ {
        "use": "temp",
        "system": "urn:oid:2.16.840.1.113883.4.4",
        "value": "21-3259825"
      } ],
      "active": true,
      "type": [ {
        "coding": [ {
          "system": "http://terminology.hl7.org/CodeSystem/organization-type",
          "code": "pay",
          "display": "Payer"
        } ]
      } ],
      "name": "Blue Cross Blue Shield of Texas",
      "telecom": [ {
        "system": "phone",
        "value": "(+1) 972-766-6900"
      } ],
      "address": [ {
        "use": "billing",
        "type": "postal",
        "line": [ "P.O. Box 660044" ],
        "city": "Dallas",
        "state": "TX",
        "postalCode": "75266-0044",
        "country": "USA"
      } ]
    },
    "request": {
      "method": "PUT",
      "url": "Organization/9597db96-ab69-4f9b-95cf-d1b8621a458d"
    }
  }, {
    "fullUrl": "https://madie.cms.gov/Practitioner/3cc89a87-90be-4ea7-8825-36bad9de903f",
    "resource": {
      "resourceType": "Practitioner",
      "id": "3cc89a87-90be-4ea7-8825-36bad9de903f",
      "meta": {
        "profile": [ "http://hl7.org/fhir/us/qicore/StructureDefinition/qicore-practitioner" ]
      },
      "identifier": [ {
        "system": "http://hl7.org/fhir/sid/us-npi",
        "value": "1234567890"
      } ],
      "name": [ {
        "family": "Evil",
        "prefix": [ "Dr" ]
      } ]
    },
    "request": {
      "method": "PUT",
      "url": "Practitioner/3cc89a87-90be-4ea7-8825-36bad9de903f"
    }
  }, {
    "fullUrl": "https://madie.cms.gov/MeasureReport/288432ca-f50e-4d49-b3b2-b63257a6fb23",
    "resource": {
      "resourceType": "MeasureReport",
      "id": "288432ca-f50e-4d49-b3b2-b63257a6fb23",
      "meta": {
        "profile": [ "http://hl7.org/fhir/us/cqfmeasures/StructureDefinition/test-case-cqfm" ]
      },
      "contained": [ {
        "resourceType": "Parameters",
        "id": "df1a7499-6433-4637-a3d1-f73d8c3ad8b1-parameters",
        "parameter": [ {
          "name": "subject",
          "valueString": "7ed48b89-cb57-45f9-ba16-24d85d09215c"
        } ]
      } ],
      "extension": [ {
        "url": "http://hl7.org/fhir/StructureDefinition/cqf-inputParameters",
        "valueReference": {
          "reference": "#df1a7499-6433-4637-a3d1-f73d8c3ad8b1-parameters"
        }
      }, {
        "url": "http://hl7.org/fhir/us/cqfmeasures/StructureDefinition/cqfm-testCaseDescription",
        "valueMarkdown": "Passes IP, DEN but fails NUM; Gravida 1(effect 42 weeks)  and EGA 40 weeks;  Proc is not Cesarean Birth "
      } ],
      "modifierExtension": [ {
        "url": "http://hl7.org/fhir/us/cqfmeasures/StructureDefinition/cqfm-isTestCase",
        "valueBoolean": true
      } ],
      "status": "complete",
      "type": "individual",
      "measure": "https://madie.cms.gov/Measure/CMS0334FHIRPCCesareanBirth",
      "period": {
        "start": "2026-01-01",
        "end": "2026-12-31"
      },
      "group": [ {
        "id": "Group_1",
        "population": [ {
          "id": "InitialPopulation_1",
          "code": {
            "coding": [ {
              "system": "http://terminology.hl7.org/CodeSystem/measure-population",
              "code": "initial-population",
              "display": "Initial Population"
            } ]
          },
          "count": 1
        }, {
          "id": "Denominator_1",
          "code": {
            "coding": [ {
              "system": "http://terminology.hl7.org/CodeSystem/measure-population",
              "code": "denominator",
              "display": "Denominator"
            } ]
          },
          "count": 1
        }, {
          "id": "DenominatorExclusion_1",
          "code": {
            "coding": [ {
              "system": "http://terminology.hl7.org/CodeSystem/measure-population",
              "code": "denominator-exclusion",
              "display": "Denominator Exclusion"
            } ]
          },
          "count": 0
        }, {
          "id": "Numerator_1",
          "code": {
            "coding": [ {
              "system": "http://terminology.hl7.org/CodeSystem/measure-population",
              "code": "numerator",
              "display": "Numerator"
            } ]
          },
          "count": 0
        } ],
        "measureScore": {
          "value": 0.0
        }
      } ],
      "evaluatedResource": [ {
        "reference": "Patient/7ed48b89-cb57-45f9-ba16-24d85d09215c"
      }, {
        "reference": "Observation/2b4c61bf-55e6-4eb4-a15b-9e74bc47616b"
      }, {
        "reference": "Observation/6580d1f6-05c5-4e1f-a920-f91f601cded7"
      }, {
        "reference": "Observation/3f5b1029-7793-4a55-a966-2325a3aad164"
      }, {
        "reference": "Encounter/5d443c7b-8a01-458d-ab4c-e4b19a4df532"
      }, {
        "reference": "Procedure/3873143c-94d6-4147-99e2-64150e1ff917"
      }, {
        "reference": "Condition/8b8a6106-2943-4e76-98ac-f1b34c51c396"
      }, {
        "reference": "Coverage/3126e7e6-d817-461e-8496-7f41ce3163fb"
      }, {
        "reference": "Organization/9597db96-ab69-4f9b-95cf-d1b8621a458d"
      }, {
        "reference": "Practitioner/3cc89a87-90be-4ea7-8825-36bad9de903f"
      } ]
    },
    "request": {
      "method": "PUT",
      "url": "MeasureReport/288432ca-f50e-4d49-b3b2-b63257a6fb23"
    }
  } ]
}