{
  "resourceType": "Bundle",
  "id": "633b3fa00968f80122503d17",
  "type": "transaction",
  "entry": [ {
    "fullUrl": "https://madie.cms.gov/Patient/cd3ccbd2-de72-48b1-a01b-2f745fb6d826",
    "resource": {
      "resourceType": "Patient",
      "id": "cd3ccbd2-de72-48b1-a01b-2f745fb6d826",
      "meta": {
        "profile": [ "http://hl7.org/fhir/us/qicore/StructureDefinition/qicore-patient" ]
      },
      "text": {
        "status": "generated",
        "div": "<div xmlns=\"http://www.w3.org/1999/xhtml\"><div class=\"hapiHeaderText\">DelProcRelDtTmEQIPStart <b>IPPASS </b></div><table class=\"hapiPropertyTable\"><tbody><tr><td>Date of birth</td><td><span>31 January 2004</span></td></tr></tbody></table></div>"
      },
      "extension": [ {
        "url": "http://hl7.org/fhir/us/core/StructureDefinition/us-core-race",
        "extension": [ {
          "url": "ombCategory",
          "valueCoding": {
            "system": "urn:oid:2.16.840.1.113883.6.238",
            "code": "1002-5",
            "display": "American Indian or Alaska Native",
            "userSelected": true
          }
        }, {
          "url": "text",
          "valueString": "American Indian or Alaska Native"
        } ]
      }, {
        "url": "http://hl7.org/fhir/us/core/StructureDefinition/us-core-ethnicity",
        "extension": [ {
          "url": "ombCategory",
          "valueCoding": {
            "system": "urn:oid:2.16.840.1.113883.6.238",
            "code": "2135-2",
            "display": "Hispanic or Latino",
            "userSelected": true
          }
        }, {
          "url": "text",
          "valueString": "Hispanic or Latino"
        } ]
      } ],
      "identifier": [ {
        "type": {
          "coding": [ {
            "system": "http://terminology.hl7.org/CodeSystem/v2-0203",
            "code": "MR"
          } ]
        },
        "system": "https://bonnie-fhir.healthit.gov/",
        "value": "633b3fa00968f80122503d17"
      } ],
      "active": true,
      "name": [ {
        "use": "usual",
        "family": "IPPass",
        "given": [ "DelProcRelDtTmEQIPStart" ]
      } ],
      "gender": "female",
      "birthDate": "2005-01-31"
    },
    "request": {
      "method": "PUT",
      "url": "Patient/cd3ccbd2-de72-48b1-a01b-2f745fb6d826"
    }
  }, {
    "fullUrl": "https://madie.cms.gov/Encounter/9b995d70-6f18-4efe-8dc5-9fa061590f29",
    "resource": {
      "resourceType": "Encounter",
      "id": "9b995d70-6f18-4efe-8dc5-9fa061590f29",
      "meta": {
        "profile": [ "http://hl7.org/fhir/us/qicore/StructureDefinition/qicore-encounter" ]
      },
      "status": "finished",
      "class": {
        "system": "http://terminology.hl7.org/CodeSystem/v3-ActCode",
        "code": "IMP",
        "display": "inpatient encounter"
      },
      "type": [ {
        "coding": [ {
          "system": "http://snomed.info/sct",
          "code": "183452005"
        } ]
      } ],
      "subject": {
        "reference": "Patient/cd3ccbd2-de72-48b1-a01b-2f745fb6d826"
      },
      "period": {
        "start": "2026-02-01T09:00:00.000+00:00",
        "end": "2026-02-05T08:15:00.000+00:00"
      }
    },
    "request": {
      "method": "PUT",
      "url": "Encounter/9b995d70-6f18-4efe-8dc5-9fa061590f29"
    }
  }, {
    "fullUrl": "https://madie.cms.gov/Encounter/3d1704bf-5407-49ad-91c8-fa71325ad875",
    "resource": {
      "resourceType": "Encounter",
      "id": "3d1704bf-5407-49ad-91c8-fa71325ad875",
      "meta": {
        "profile": [ "http://hl7.org/fhir/us/qicore/StructureDefinition/qicore-encounter" ]
      },
      "status": "finished",
      "class": {
        "system": "http://terminology.hl7.org/CodeSystem/v3-ActCode",
        "code": "IMP",
        "display": "inpatient encounter"
      },
      "type": [ {
        "coding": [ {
          "system": "http://snomed.info/sct",
          "code": "448951000124107"
        } ]
      } ],
      "subject": {
        "reference": "Patient/cd3ccbd2-de72-48b1-a01b-2f745fb6d826"
      },
      "period": {
        "start": "2026-02-01T08:00:00.000+00:00",
        "end": "2026-02-01T08:59:00.000+00:00"
      }
    },
    "request": {
      "method": "PUT",
      "url": "Encounter/3d1704bf-5407-49ad-91c8-fa71325ad875"
    }
  }, {
    "fullUrl": "https://madie.cms.gov/Encounter/3e260eb6-e5ea-4bd1-9892-f239122a5de7",
    "resource": {
      "resourceType": "Encounter",
      "id": "3e260eb6-e5ea-4bd1-9892-f239122a5de7",
      "meta": {
        "profile": [ "http://hl7.org/fhir/us/qicore/StructureDefinition/qicore-encounter" ]
      },
      "status": "finished",
      "class": {
        "system": "http://terminology.hl7.org/CodeSystem/v3-ActCode",
        "code": "IMP",
        "display": "inpatient encounter"
      },
      "type": [ {
        "coding": [ {
          "system": "http://snomed.info/sct",
          "code": "4525004"
        } ]
      } ],
      "subject": {
        "reference": "Patient/cd3ccbd2-de72-48b1-a01b-2f745fb6d826"
      },
      "period": {
        "start": "2026-02-01T07:00:00.000+00:00",
        "end": "2026-02-01T07:59:00.000+00:00"
      }
    },
    "request": {
      "method": "PUT",
      "url": "Encounter/3e260eb6-e5ea-4bd1-9892-f239122a5de7"
    }
  }, {
    "fullUrl": "https://madie.cms.gov/Procedure/65228c2c-aeaf-4fcc-8490-8e74ae36e75b",
    "resource": {
      "resourceType": "Procedure",
      "id": "65228c2c-aeaf-4fcc-8490-8e74ae36e75b",
      "meta": {
        "profile": [ "http://hl7.org/fhir/us/qicore/StructureDefinition/qicore-procedure" ]
      },
      "extension": [ {
        "url": "http://hl7.org/fhir/us/qicore/StructureDefinition/qicore-recorded",
        "valueDateTime": "2014-04-05T13:35:00.000+00:00"
      } ],
      "status": "completed",
      "code": {
        "coding": [ {
          "system": "http://snomed.info/sct",
          "code": "10745001"
        } ]
      },
      "subject": {
        "reference": "Patient/cd3ccbd2-de72-48b1-a01b-2f745fb6d826"
      },
      "performedDateTime": "2026-02-01T09:00:00.000+00:00"
    },
    "request": {
      "method": "PUT",
      "url": "Procedure/65228c2c-aeaf-4fcc-8490-8e74ae36e75b"
    }
  }, {
    "fullUrl": "https://madie.cms.gov/Coverage/0b786d60-1237-454f-a28e-8e03d44d7f31",
    "resource": {
      "resourceType": "Coverage",
      "id": "0b786d60-1237-454f-a28e-8e03d44d7f31",
      "meta": {
        "profile": [ "http://hl7.org/fhir/us/qicore/StructureDefinition/qicore-coverage" ]
      },
      "status": "active",
      "beneficiary": {
        "reference": "Patient/cd3ccbd2-de72-48b1-a01b-2f745fb6d826"
      },
      "payor": [ {
        "reference": "Organization/76a46697-3c96-4db0-9699-ac6343c9f630"
      } ]
    },
    "request": {
      "method": "PUT",
      "url": "Coverage/0b786d60-1237-454f-a28e-8e03d44d7f31"
    }
  }, {
    "fullUrl": "https://madie.cms.gov/Organization/76a46697-3c96-4db0-9699-ac6343c9f630",
    "resource": {
      "resourceType": "Organization",
      "id": "76a46697-3c96-4db0-9699-ac6343c9f630",
      "meta": {
        "profile": [ "http://hl7.org/fhir/us/qicore/StructureDefinition/qicore-organization" ]
      },
      "identifier": [ {
        "use": "temp",
        "system": "urn:oid:2.16.840.1.113883.4.4",
        "value": "21-3259825"
      } ],
      "active": true,
      "type": [ {
        "coding": [ {
          "system": "http://terminology.hl7.org/CodeSystem/organization-type",
          "code": "pay",
          "display": "Payer"
        } ]
      } ],
      "name": "Blue Cross Blue Shield of Texas",
      "telecom": [ {
        "system": "phone",
        "value": "(+1) 972-766-6900"
      } ],
      "address": [ {
        "use": "billing",
        "type": "postal",
        "line": [ "P.O. Box 660044" ],
        "city": "Dallas",
        "state": "TX",
        "postalCode": "75266-0044",
        "country": "USA"
      } ]
    },
    "request": {
      "method": "PUT",
      "url": "Organization/76a46697-3c96-4db0-9699-ac6343c9f630"
    }
  }, {
    "fullUrl": "https://madie.cms.gov/Practitioner/7251a837-3ceb-496b-8fba-402ce89933d2",
    "resource": {
      "resourceType": "Practitioner",
      "id": "7251a837-3ceb-496b-8fba-402ce89933d2",
      "identifier": [ {
        "system": "http://hl7.org/fhir/sid/us-npi",
        "value": "123456"
      } ],
      "name": [ {
        "family": "Evil",
        "prefix": [ "Dr" ]
      } ]
    },
    "request": {
      "method": "PUT",
      "url": "Practitioner/7251a837-3ceb-496b-8fba-402ce89933d2"
    }
  }, {
    "fullUrl": "https://madie.cms.gov/MeasureReport/cdfaaef0-3845-402e-bc9e-0e129dfa828e",
    "resource": {
      "resourceType": "MeasureReport",
      "id": "cdfaaef0-3845-402e-bc9e-0e129dfa828e",
      "meta": {
        "profile": [ "http://hl7.org/fhir/us/cqfmeasures/StructureDefinition/test-case-cqfm" ]
      },
      "contained": [ {
        "resourceType": "Parameters",
        "id": "268df468-0899-4356-a2dd-7aaf3c322707-parameters",
        "parameter": [ {
          "name": "subject",
          "valueString": "cd3ccbd2-de72-48b1-a01b-2f745fb6d826"
        } ]
      } ],
      "extension": [ {
        "url": "http://hl7.org/fhir/StructureDefinition/cqf-inputParameters",
        "valueReference": {
          "reference": "#268df468-0899-4356-a2dd-7aaf3c322707-parameters"
        }
      }, {
        "url": "http://hl7.org/fhir/us/cqfmeasures/StructureDefinition/cqfm-testCaseDescription",
        "valueMarkdown": "Delivery Procedure rel date/time = IP start.  ED/OBS/IP all meet global hospitalization criteria.\n"
      } ],
      "modifierExtension": [ {
        "url": "http://hl7.org/fhir/us/cqfmeasures/StructureDefinition/cqfm-isTestCase",
        "valueBoolean": true
      } ],
      "status": "complete",
      "type": "individual",
      "measure": "https://madie.cms.gov/Measure/CMS1028FHIRPCSevereOBComps",
      "period": {
        "start": "2026-01-01",
        "end": "2026-12-31"
      },
      "group": [ {
        "id": "Group_1",
        "population": [ {
          "id": "InitialPopulation_1",
          "code": {
            "coding": [ {
              "system": "http://terminology.hl7.org/CodeSystem/measure-population",
              "code": "initial-population",
              "display": "Initial Population"
            } ]
          },
          "count": 1
        }, {
          "id": "Denominator_1",
          "code": {
            "coding": [ {
              "system": "http://terminology.hl7.org/CodeSystem/measure-population",
              "code": "denominator",
              "display": "Denominator"
            } ]
          },
          "count": 0
        }, {
          "id": "Numerator_1",
          "code": {
            "coding": [ {
              "system": "http://terminology.hl7.org/CodeSystem/measure-population",
              "code": "numerator",
              "display": "Numerator"
            } ]
          },
          "count": 0
        }, {
          "id": "NumeratorExclusion_1",
          "code": {
            "coding": [ {
              "system": "http://terminology.hl7.org/CodeSystem/measure-population",
              "code": "numerator-exclusion",
              "display": "Numerator Exclusion"
            } ]
          },
          "count": 0
        } ],
        "measureScore": {
          "value": 0.0
        }
      }, {
        "id": "Group_2",
        "population": [ {
          "id": "InitialPopulation_2",
          "code": {
            "coding": [ {
              "system": "http://terminology.hl7.org/CodeSystem/measure-population",
              "code": "initial-population",
              "display": "Initial Population"
            } ]
          },
          "count": 1
        }, {
          "id": "Denominator_2",
          "code": {
            "coding": [ {
              "system": "http://terminology.hl7.org/CodeSystem/measure-population",
              "code": "denominator",
              "display": "Denominator"
            } ]
          },
          "count": 0
        }, {
          "id": "Numerator_2",
          "code": {
            "coding": [ {
              "system": "http://terminology.hl7.org/CodeSystem/measure-population",
              "code": "numerator",
              "display": "Numerator"
            } ]
          },
          "count": 0
        }, {
          "id": "NumeratorExclusion_2",
          "code": {
            "coding": [ {
              "system": "http://terminology.hl7.org/CodeSystem/measure-population",
              "code": "numerator-exclusion",
              "display": "Numerator Exclusion"
            } ]
          },
          "count": 0
        } ],
        "measureScore": {
          "value": 0.0
        }
      } ],
      "evaluatedResource": [ {
        "reference": "Patient/cd3ccbd2-de72-48b1-a01b-2f745fb6d826"
      }, {
        "reference": "Encounter/9b995d70-6f18-4efe-8dc5-9fa061590f29"
      }, {
        "reference": "Encounter/3d1704bf-5407-49ad-91c8-fa71325ad875"
      }, {
        "reference": "Encounter/3e260eb6-e5ea-4bd1-9892-f239122a5de7"
      }, {
        "reference": "Procedure/65228c2c-aeaf-4fcc-8490-8e74ae36e75b"
      }, {
        "reference": "Coverage/0b786d60-1237-454f-a28e-8e03d44d7f31"
      }, {
        "reference": "Organization/76a46697-3c96-4db0-9699-ac6343c9f630"
      }, {
        "reference": "Practitioner/7251a837-3ceb-496b-8fba-402ce89933d2"
      } ]
    },
    "request": {
      "method": "PUT",
      "url": "MeasureReport/cdfaaef0-3845-402e-bc9e-0e129dfa828e"
    }
  } ]
}