{
  "resourceType": "Bundle",
  "id": "DENEXPass-BilateralAbsenceOfEyes2",
  "type": "transaction",
  "entry": [ {
    "fullUrl": "https://madie.cms.gov/Patient/b70ba99a-4ed9-4c3d-8ec4-c23d674b0385",
    "resource": {
      "resourceType": "Patient",
      "id": "b70ba99a-4ed9-4c3d-8ec4-c23d674b0385",
      "meta": {
        "profile": [ "http://hl7.org/fhir/us/qicore/StructureDefinition/qicore-patient" ]
      },
      "extension": [ {
        "url": "http://hl7.org/fhir/us/core/StructureDefinition/us-core-race",
        "extension": [ {
          "url": "ombCategory",
          "valueCoding": {
            "system": "urn:oid:2.16.840.1.113883.6.238",
            "code": "2028-9",
            "display": "Asian",
            "userSelected": true
          }
        }, {
          "url": "text",
          "valueString": "Asian"
        } ]
      }, {
        "url": "http://hl7.org/fhir/us/core/StructureDefinition/us-core-ethnicity",
        "extension": [ {
          "url": "ombCategory",
          "valueCoding": {
            "system": "urn:oid:2.16.840.1.113883.6.238",
            "code": "2135-2",
            "display": "Hispanic or Latino",
            "userSelected": true
          }
        }, {
          "url": "text",
          "valueString": "Hispanic or Latino"
        } ]
      } ],
      "identifier": [ {
        "type": {
          "coding": [ {
            "system": "http://terminology.hl7.org/CodeSystem/v2-0203",
            "code": "MR"
          } ]
        },
        "system": "http://hospital.smarthealthit.org",
        "value": "999999995"
      } ],
      "name": [ {
        "family": "Bertha",
        "given": [ "Betty" ]
      } ],
      "gender": "female",
      "birthDate": "2007-12-31"
    },
    "request": {
      "method": "PUT",
      "url": "Patient/b70ba99a-4ed9-4c3d-8ec4-c23d674b0385"
    }
  }, {
    "fullUrl": "https://madie.cms.gov/Encounter/cb061598-a500-454e-91f4-7baf4fc0cca0",
    "resource": {
      "resourceType": "Encounter",
      "id": "cb061598-a500-454e-91f4-7baf4fc0cca0",
      "meta": {
        "profile": [ "http://hl7.org/fhir/us/qicore/StructureDefinition/qicore-encounter" ]
      },
      "status": "finished",
      "class": {
        "system": "http://terminology.hl7.org/CodeSystem/v3-ActCode",
        "code": "AMB",
        "display": "ambulatory"
      },
      "type": [ {
        "coding": [ {
          "system": "http://snomed.info/sct",
          "code": "456201000124103",
          "display": "Medicare annual wellness visit (procedure)"
        } ]
      } ],
      "subject": {
        "reference": "Patient/b70ba99a-4ed9-4c3d-8ec4-c23d674b0385"
      },
      "period": {
        "start": "2026-01-01T00:00:00.000+00:00",
        "end": "2026-01-01T00:00:00.000+00:00"
      }
    },
    "request": {
      "method": "PUT",
      "url": "Encounter/cb061598-a500-454e-91f4-7baf4fc0cca0"
    }
  }, {
    "fullUrl": "https://madie.cms.gov/Condition/5ee4b169-43b8-4f0c-9df2-479b471162a4",
    "resource": {
      "resourceType": "Condition",
      "id": "5ee4b169-43b8-4f0c-9df2-479b471162a4",
      "meta": {
        "profile": [ "http://hl7.org/fhir/us/qicore/StructureDefinition/qicore-condition-encounter-diagnosis" ]
      },
      "clinicalStatus": {
        "coding": [ {
          "system": "http://terminology.hl7.org/CodeSystem/condition-clinical",
          "code": "active"
        } ]
      },
      "category": [ {
        "coding": [ {
          "system": "http://terminology.hl7.org/CodeSystem/condition-category",
          "code": "encounter-diagnosis",
          "display": "Encounter Diagnosis"
        } ]
      } ],
      "code": {
        "coding": [ {
          "system": "http://snomed.info/sct",
          "code": "102781000119107",
          "display": "Sensory neuropathy due to type 1 diabetes mellitus (disorder)"
        } ]
      },
      "subject": {
        "reference": "Patient/b70ba99a-4ed9-4c3d-8ec4-c23d674b0385"
      },
      "onsetDateTime": "2026-01-01T00:00:00.000+00:00"
    },
    "request": {
      "method": "PUT",
      "url": "Condition/5ee4b169-43b8-4f0c-9df2-479b471162a4"
    }
  }, {
    "fullUrl": "https://madie.cms.gov/Condition/3bb7578e-852d-44b8-a9ba-edaf21500586",
    "resource": {
      "resourceType": "Condition",
      "id": "3bb7578e-852d-44b8-a9ba-edaf21500586",
      "meta": {
        "profile": [ "http://hl7.org/fhir/us/qicore/StructureDefinition/qicore-condition-problems-health-concerns" ]
      },
      "clinicalStatus": {
        "coding": [ {
          "system": "http://terminology.hl7.org/CodeSystem/condition-clinical",
          "code": "active"
        } ]
      },
      "category": [ {
        "coding": [ {
          "system": "http://terminology.hl7.org/CodeSystem/condition-category",
          "code": "problem-list-item",
          "display": "Problem List Item"
        } ]
      } ],
      "code": {
        "coding": [ {
          "system": "http://snomed.info/sct",
          "code": "15665641000119103",
          "display": "Anophthalmos of bilateral eyes (disorder)"
        } ]
      },
      "subject": {
        "reference": "Patient/b70ba99a-4ed9-4c3d-8ec4-c23d674b0385"
      },
      "onsetDateTime": "2026-01-01T00:00:00.000+00:00"
    },
    "request": {
      "method": "PUT",
      "url": "Condition/3bb7578e-852d-44b8-a9ba-edaf21500586"
    }
  }, {
    "fullUrl": "https://madie.cms.gov/MeasureReport/276439f1-8150-4b53-822b-f4fad58dee97",
    "resource": {
      "resourceType": "MeasureReport",
      "id": "276439f1-8150-4b53-822b-f4fad58dee97",
      "meta": {
        "profile": [ "http://hl7.org/fhir/us/cqfmeasures/StructureDefinition/test-case-cqfm" ]
      },
      "contained": [ {
        "resourceType": "Parameters",
        "id": "b7e3b42d-681a-4628-9fa9-bf32ed6b424e-parameters",
        "parameter": [ {
          "name": "subject",
          "valueString": "b70ba99a-4ed9-4c3d-8ec4-c23d674b0385"
        } ]
      } ],
      "extension": [ {
        "url": "http://hl7.org/fhir/StructureDefinition/cqf-inputParameters",
        "valueReference": {
          "reference": "#b7e3b42d-681a-4628-9fa9-bf32ed6b424e-parameters"
        }
      }, {
        "url": "http://hl7.org/fhir/us/cqfmeasures/StructureDefinition/cqfm-testCaseDescription",
        "valueMarkdown": "Qualifying encounter is Annual Wellness Visit"
      } ],
      "modifierExtension": [ {
        "url": "http://hl7.org/fhir/us/cqfmeasures/StructureDefinition/cqfm-isTestCase",
        "valueBoolean": true
      } ],
      "status": "complete",
      "type": "individual",
      "measure": "https://madie.cms.gov/Measure/CMS131FHIRDiabetesEyeExam",
      "period": {
        "start": "2026-01-01",
        "end": "2026-12-31"
      },
      "group": [ {
        "id": "Group_1",
        "population": [ {
          "id": "InitialPopulation_1",
          "code": {
            "coding": [ {
              "system": "http://terminology.hl7.org/CodeSystem/measure-population",
              "code": "initial-population",
              "display": "Initial Population"
            } ]
          },
          "count": 1
        }, {
          "id": "Denominator_1",
          "code": {
            "coding": [ {
              "system": "http://terminology.hl7.org/CodeSystem/measure-population",
              "code": "denominator",
              "display": "Denominator"
            } ]
          },
          "count": 1
        }, {
          "id": "DenominatorExclusion_1",
          "code": {
            "coding": [ {
              "system": "http://terminology.hl7.org/CodeSystem/measure-population",
              "code": "denominator-exclusion",
              "display": "Denominator Exclusion"
            } ]
          },
          "count": 1
        }, {
          "id": "Numerator_1",
          "code": {
            "coding": [ {
              "system": "http://terminology.hl7.org/CodeSystem/measure-population",
              "code": "numerator",
              "display": "Numerator"
            } ]
          },
          "count": 0
        } ],
        "measureScore": {
          "value": 1.0
        }
      } ],
      "evaluatedResource": [ {
        "reference": "Patient/b70ba99a-4ed9-4c3d-8ec4-c23d674b0385"
      }, {
        "reference": "Encounter/cb061598-a500-454e-91f4-7baf4fc0cca0"
      }, {
        "reference": "Condition/5ee4b169-43b8-4f0c-9df2-479b471162a4"
      }, {
        "reference": "Condition/3bb7578e-852d-44b8-a9ba-edaf21500586"
      } ]
    },
    "request": {
      "method": "PUT",
      "url": "MeasureReport/276439f1-8150-4b53-822b-f4fad58dee97"
    }
  } ]
}