{
  "resourceType": "Bundle",
  "id": "6495b504e06f07b7e1707818",
  "type": "collection",
  "entry": [ {
    "fullUrl": "https://madie.cms.gov/Patient/4dcecfe3-5b54-46f2-b26c-f82954ca68fe",
    "resource": {
      "resourceType": "Patient",
      "id": "4dcecfe3-5b54-46f2-b26c-f82954ca68fe",
      "meta": {
        "profile": [ "http://hl7.org/fhir/us/qicore/StructureDefinition/qicore-patient" ]
      },
      "extension": [ {
        "url": "http://hl7.org/fhir/us/core/StructureDefinition/us-core-race",
        "extension": [ {
          "url": "ombCategory",
          "valueCoding": {
            "system": "urn:oid:2.16.840.1.113883.6.238",
            "code": "2028-9",
            "display": "Asian",
            "userSelected": true
          }
        }, {
          "url": "text",
          "valueString": "Asian"
        } ]
      }, {
        "url": "http://hl7.org/fhir/us/core/StructureDefinition/us-core-ethnicity",
        "extension": [ {
          "url": "ombCategory",
          "valueCoding": {
            "system": "urn:oid:2.16.840.1.113883.6.238",
            "code": "2186-5",
            "display": "Not Hispanic or Latino",
            "userSelected": true
          }
        }, {
          "url": "text",
          "valueString": "Not Hispanic or Latino"
        } ]
      } ],
      "identifier": [ {
        "type": {
          "coding": [ {
            "system": "http://terminology.hl7.org/CodeSystem/v2-0203",
            "code": "MR"
          } ]
        },
        "system": "https://bonnie-fhir.healthit.gov/",
        "value": "6495b504e06f07b7e1707818"
      } ],
      "name": [ {
        "family": "IPPass",
        "given": [ "HIVDxinfirst90daysofMP" ]
      } ],
      "gender": "female",
      "birthDate": "1991-02-09"
    }
  }, {
    "fullUrl": "https://madie.cms.gov/Encounter/afd20e01-2dc5-49ba-a69b-672e383a8839",
    "resource": {
      "resourceType": "Encounter",
      "id": "afd20e01-2dc5-49ba-a69b-672e383a8839",
      "meta": {
        "profile": [ "http://hl7.org/fhir/us/qicore/StructureDefinition/qicore-encounter" ]
      },
      "status": "finished",
      "class": {
        "system": "http://terminology.hl7.org/CodeSystem/v3-ActCode",
        "code": "AMB",
        "display": "ambulatory"
      },
      "type": [ {
        "coding": [ {
          "system": "http://snomed.info/sct",
          "version": "2022-09",
          "code": "444971000124105",
          "display": "Annual wellness visit (procedure)",
          "userSelected": true
        } ]
      } ],
      "subject": {
        "reference": "Patient/4dcecfe3-5b54-46f2-b26c-f82954ca68fe"
      },
      "period": {
        "start": "2026-03-07T07:00:00.000+00:00",
        "end": "2026-03-07T08:15:00.000+00:00"
      }
    }
  }, {
    "fullUrl": "https://madie.cms.gov/Condition/ddf8e23f-9f2d-45b5-90bd-09ee57339964",
    "resource": {
      "resourceType": "Condition",
      "id": "ddf8e23f-9f2d-45b5-90bd-09ee57339964",
      "meta": {
        "profile": [ "http://hl7.org/fhir/us/qicore/StructureDefinition/qicore-condition-problems-health-concerns" ]
      },
      "clinicalStatus": {
        "coding": [ {
          "system": "http://terminology.hl7.org/CodeSystem/condition-clinical",
          "code": "active",
          "display": "active",
          "userSelected": true
        } ]
      },
      "category": [ {
        "coding": [ {
          "system": "http://terminology.hl7.org/CodeSystem/condition-category",
          "code": "problem-list-item",
          "display": "Problem List Item"
        } ]
      } ],
      "code": {
        "coding": [ {
          "system": "http://hl7.org/fhir/sid/icd-9-cm",
          "version": "2013",
          "code": "042",
          "display": "Human immunodeficiency virus [HIV] disease",
          "userSelected": true
        }, {
          "system": "http://snomed.info/sct",
          "version": "http://snomed.info/sct/731000124108/version/20250301",
          "code": "165816005",
          "userSelected": true
        } ]
      },
      "subject": {
        "reference": "Patient/4dcecfe3-5b54-46f2-b26c-f82954ca68fe"
      },
      "onsetDateTime": "2026-02-01T11:00:00.000+00:00",
      "recordedDate": "2026-02-01T11:00:00.000+00:00"
    }
  }, {
    "fullUrl": "https://madie.cms.gov/Coverage/c14b5459-2c6e-47ff-bbc8-1d6022e85424",
    "resource": {
      "resourceType": "Coverage",
      "id": "c14b5459-2c6e-47ff-bbc8-1d6022e85424",
      "meta": {
        "profile": [ "http://hl7.org/fhir/us/qicore/StructureDefinition/qicore-coverage" ]
      },
      "status": "active",
      "subscriberId": "123456",
      "beneficiary": {
        "reference": "Patient/4dcecfe3-5b54-46f2-b26c-f82954ca68fe"
      },
      "relationship": {
        "coding": [ {
          "system": "http://terminology.hl7.org/CodeSystem/subscriber-relationship",
          "code": "self",
          "display": "Self"
        } ]
      },
      "payor": [ {
        "reference": "Organization/f6f5b101-b174-4661-b302-866c08e78a6f"
      } ]
    }
  }, {
    "fullUrl": "https://madie.cms.gov/Organization/f6f5b101-b174-4661-b302-866c08e78a6f",
    "resource": {
      "resourceType": "Organization",
      "id": "f6f5b101-b174-4661-b302-866c08e78a6f",
      "meta": {
        "profile": [ "http://hl7.org/fhir/us/qicore/StructureDefinition/qicore-organization" ]
      },
      "identifier": [ {
        "use": "temp",
        "system": "urn:oid:2.16.840.1.113883.4.4",
        "value": "21-3259825"
      } ],
      "active": true,
      "type": [ {
        "coding": [ {
          "system": "http://terminology.hl7.org/CodeSystem/organization-type",
          "code": "pay",
          "display": "Payer"
        } ]
      } ],
      "name": "Blue Cross Blue Shield of Texas",
      "telecom": [ {
        "system": "phone",
        "value": "(+1) 972-766-6900"
      } ],
      "address": [ {
        "use": "billing",
        "type": "postal",
        "line": [ "P.O. Box 660044" ],
        "city": "Dallas",
        "state": "TX",
        "postalCode": "75266-0044",
        "country": "USA"
      } ]
    }
  }, {
    "fullUrl": "https://madie.cms.gov/Practitioner/4f152bbe-be91-4cc9-9560-6c434b689dd5",
    "resource": {
      "resourceType": "Practitioner",
      "id": "4f152bbe-be91-4cc9-9560-6c434b689dd5",
      "meta": {
        "profile": [ "http://hl7.org/fhir/us/qicore/StructureDefinition/qicore-practitioner" ]
      },
      "identifier": [ {
        "system": "http://hl7.org/fhir/sid/us-npi",
        "value": "1689411712"
      } ],
      "name": [ {
        "family": "Evil",
        "prefix": [ "Dr" ]
      } ]
    }
  }, {
    "fullUrl": "https://madie.cms.gov/MeasureReport/9d267ea8-0e8d-4c1c-a03c-adfbcb83234b",
    "resource": {
      "resourceType": "MeasureReport",
      "id": "9d267ea8-0e8d-4c1c-a03c-adfbcb83234b",
      "meta": {
        "profile": [ "http://hl7.org/fhir/us/cqfmeasures/StructureDefinition/test-case-cqfm" ]
      },
      "contained": [ {
        "resourceType": "Parameters",
        "id": "a5fc7660-1a51-41a2-ad12-f20799a852eb-parameters",
        "parameter": [ {
          "name": "subject",
          "valueString": "4dcecfe3-5b54-46f2-b26c-f82954ca68fe"
        } ]
      } ],
      "extension": [ {
        "url": "http://hl7.org/fhir/StructureDefinition/cqf-inputParameters",
        "valueReference": {
          "reference": "#a5fc7660-1a51-41a2-ad12-f20799a852eb-parameters"
        }
      }, {
        "url": "http://hl7.org/fhir/us/cqfmeasures/StructureDefinition/cqfm-testCaseDescription",
        "valueMarkdown": "HIV diagnosis made during first 90 days of MP with a qualifying encounter during MP"
      } ],
      "modifierExtension": [ {
        "url": "http://hl7.org/fhir/us/cqfmeasures/StructureDefinition/cqfm-isTestCase",
        "valueBoolean": true
      } ],
      "status": "complete",
      "type": "individual",
      "measure": "https://madie.cms.gov/Measure/CMS314FHIRHIVViralSuppression",
      "period": {
        "start": "2026-01-01",
        "end": "2026-12-31"
      },
      "group": [ {
        "id": "Group_1",
        "population": [ {
          "id": "InitialPopulation_1",
          "code": {
            "coding": [ {
              "system": "http://terminology.hl7.org/CodeSystem/measure-population",
              "code": "initial-population",
              "display": "Initial Population"
            } ]
          },
          "count": 1
        }, {
          "id": "Denominator_1",
          "code": {
            "coding": [ {
              "system": "http://terminology.hl7.org/CodeSystem/measure-population",
              "code": "denominator",
              "display": "Denominator"
            } ]
          },
          "count": 1
        }, {
          "id": "Numerator_1",
          "code": {
            "coding": [ {
              "system": "http://terminology.hl7.org/CodeSystem/measure-population",
              "code": "numerator",
              "display": "Numerator"
            } ]
          },
          "count": 0
        } ],
        "measureScore": {
          "value": 1.0
        }
      } ],
      "evaluatedResource": [ {
        "reference": "Patient/4dcecfe3-5b54-46f2-b26c-f82954ca68fe"
      }, {
        "reference": "Encounter/afd20e01-2dc5-49ba-a69b-672e383a8839"
      }, {
        "reference": "Condition/ddf8e23f-9f2d-45b5-90bd-09ee57339964"
      }, {
        "reference": "Coverage/c14b5459-2c6e-47ff-bbc8-1d6022e85424"
      }, {
        "reference": "Organization/f6f5b101-b174-4661-b302-866c08e78a6f"
      }, {
        "reference": "Practitioner/4f152bbe-be91-4cc9-9560-6c434b689dd5"
      } ]
    }
  } ]
}