{
  "resourceType": "Bundle",
  "id": "DENEXPass-DementiaMedAsReference",
  "type": "transaction",
  "entry": [ {
    "fullUrl": "https://madie.cms.gov/Patient/45e01fed-56bb-483d-a860-af3d566bda11",
    "resource": {
      "resourceType": "Patient",
      "id": "45e01fed-56bb-483d-a860-af3d566bda11",
      "meta": {
        "profile": [ "http://hl7.org/fhir/us/qicore/StructureDefinition/qicore-patient" ]
      },
      "extension": [ {
        "url": "http://hl7.org/fhir/us/core/StructureDefinition/us-core-race",
        "extension": [ {
          "url": "ombCategory",
          "valueCoding": {
            "system": "urn:oid:2.16.840.1.113883.6.238",
            "code": "2028-9",
            "display": "Asian",
            "userSelected": true
          }
        }, {
          "url": "text",
          "valueString": "Asian"
        } ]
      }, {
        "url": "http://hl7.org/fhir/us/core/StructureDefinition/us-core-ethnicity",
        "extension": [ {
          "url": "ombCategory",
          "valueCoding": {
            "system": "urn:oid:2.16.840.1.113883.6.238",
            "code": "2135-2",
            "display": "Hispanic or Latino",
            "userSelected": true
          }
        }, {
          "url": "text",
          "valueString": "Hispanic or Latino"
        } ]
      } ],
      "identifier": [ {
        "type": {
          "coding": [ {
            "system": "http://terminology.hl7.org/CodeSystem/v2-0203",
            "code": "MR"
          } ]
        },
        "system": "http://hospital.smarthealthit.org",
        "value": "999999995"
      } ],
      "name": [ {
        "family": "Bertha",
        "given": [ "Betty" ]
      } ],
      "gender": "female",
      "birthDate": "1958-12-31"
    },
    "request": {
      "method": "PUT",
      "url": "Patient/45e01fed-56bb-483d-a860-af3d566bda11"
    }
  }, {
    "fullUrl": "https://madie.cms.gov/Encounter/8c54749f-29ed-491e-a222-0c2a90a71da7",
    "resource": {
      "resourceType": "Encounter",
      "id": "8c54749f-29ed-491e-a222-0c2a90a71da7",
      "meta": {
        "profile": [ "http://hl7.org/fhir/us/qicore/StructureDefinition/qicore-encounter" ]
      },
      "status": "finished",
      "class": {
        "system": "http://terminology.hl7.org/CodeSystem/v3-ActCode",
        "code": "AMB",
        "display": "ambulatory"
      },
      "type": [ {
        "coding": [ {
          "system": "http://snomed.info/sct",
          "code": "3391000175108",
          "display": "Office visit for pediatric care and assessment (procedure)"
        } ]
      } ],
      "subject": {
        "reference": "Patient/45e01fed-56bb-483d-a860-af3d566bda11"
      },
      "period": {
        "start": "2026-01-01T00:00:00.000+00:00",
        "end": "2026-01-01T01:00:00.000+00:00"
      }
    },
    "request": {
      "method": "PUT",
      "url": "Encounter/8c54749f-29ed-491e-a222-0c2a90a71da7"
    }
  }, {
    "fullUrl": "https://madie.cms.gov/Condition/1398f0d7-9d71-4a04-bdfa-0e44f69181e9",
    "resource": {
      "resourceType": "Condition",
      "id": "1398f0d7-9d71-4a04-bdfa-0e44f69181e9",
      "meta": {
        "profile": [ "http://hl7.org/fhir/us/qicore/StructureDefinition/qicore-condition-encounter-diagnosis" ]
      },
      "clinicalStatus": {
        "coding": [ {
          "system": "http://terminology.hl7.org/CodeSystem/condition-clinical",
          "code": "active"
        } ]
      },
      "category": [ {
        "coding": [ {
          "system": "http://terminology.hl7.org/CodeSystem/condition-category",
          "code": "encounter-diagnosis",
          "display": "Encounter Diagnosis"
        } ]
      } ],
      "code": {
        "coding": [ {
          "system": "http://snomed.info/sct",
          "code": "371125006",
          "display": "Labile essential hypertension (disorder)"
        } ]
      },
      "subject": {
        "reference": "Patient/45e01fed-56bb-483d-a860-af3d566bda11"
      },
      "onsetDateTime": "2026-06-29T23:59:59.000+00:00"
    },
    "request": {
      "method": "PUT",
      "url": "Condition/1398f0d7-9d71-4a04-bdfa-0e44f69181e9"
    }
  }, {
    "fullUrl": "https://madie.cms.gov/MedicationRequest/1cfbb1ef-fe70-4501-b25a-a91b204df14f",
    "resource": {
      "resourceType": "MedicationRequest",
      "id": "1cfbb1ef-fe70-4501-b25a-a91b204df14f",
      "meta": {
        "profile": [ "http://hl7.org/fhir/us/qicore/StructureDefinition/qicore-medicationrequest" ]
      },
      "status": "active",
      "intent": "order",
      "doNotPerform": false,
      "medicationReference": {
        "reference": "Medication/63369663-8430-4c47-841a-49b7d8945518"
      },
      "subject": {
        "reference": "Patient/45e01fed-56bb-483d-a860-af3d566bda11"
      },
      "authoredOn": "2026-12-30T00:00:00.000+00:00",
      "requester": {
        "reference": "Practitioner/example"
      },
      "dispenseRequest": {
        "expectedSupplyDuration": {
          "value": 90,
          "system": "http://unitsofmeasure.org",
          "code": "days"
        }
      }
    },
    "request": {
      "method": "PUT",
      "url": "MedicationRequest/1cfbb1ef-fe70-4501-b25a-a91b204df14f"
    }
  }, {
    "fullUrl": "https://madie.cms.gov/Medication/63369663-8430-4c47-841a-49b7d8945518",
    "resource": {
      "resourceType": "Medication",
      "id": "63369663-8430-4c47-841a-49b7d8945518",
      "meta": {
        "profile": [ "http://hl7.org/fhir/us/qicore/StructureDefinition/qicore-medication" ]
      },
      "code": {
        "coding": [ {
          "system": "http://www.nlm.nih.gov/research/umls/rxnorm",
          "code": "312836",
          "display": "rivastigmine 6 MG Oral Capsule"
        } ]
      }
    },
    "request": {
      "method": "PUT",
      "url": "Medication/63369663-8430-4c47-841a-49b7d8945518"
    }
  }, {
    "fullUrl": "https://madie.cms.gov/DeviceRequest/6e15c0e8-b0e8-4710-8090-d02017dd1ee6",
    "resource": {
      "resourceType": "DeviceRequest",
      "id": "6e15c0e8-b0e8-4710-8090-d02017dd1ee6",
      "meta": {
        "profile": [ "http://hl7.org/fhir/us/qicore/StructureDefinition/qicore-devicerequest" ]
      },
      "modifierExtension": [ {
        "url": "http://hl7.org/fhir/5.0/StructureDefinition/extension-DeviceRequest.doNotPerform",
        "valueBoolean": false
      } ],
      "status": "completed",
      "intent": "order",
      "codeCodeableConcept": {
        "coding": [ {
          "system": "http://snomed.info/sct",
          "code": "183240000",
          "display": "Self-propelled wheelchair (physical object)"
        } ]
      },
      "subject": {
        "reference": "Patient/45e01fed-56bb-483d-a860-af3d566bda11"
      },
      "authoredOn": "2026-11-01T23:59:00.000+00:00"
    },
    "request": {
      "method": "PUT",
      "url": "DeviceRequest/6e15c0e8-b0e8-4710-8090-d02017dd1ee6"
    }
  }, {
    "fullUrl": "https://madie.cms.gov/MeasureReport/02991ca7-859d-422d-8849-655760f8e10a",
    "resource": {
      "resourceType": "MeasureReport",
      "id": "02991ca7-859d-422d-8849-655760f8e10a",
      "meta": {
        "profile": [ "http://hl7.org/fhir/us/cqfmeasures/StructureDefinition/test-case-cqfm" ]
      },
      "contained": [ {
        "resourceType": "Parameters",
        "id": "bfcfb8c0-b852-41a6-a323-0ef61b737bce-parameters",
        "parameter": [ {
          "name": "subject",
          "valueString": "45e01fed-56bb-483d-a860-af3d566bda11"
        } ]
      } ],
      "extension": [ {
        "url": "http://hl7.org/fhir/StructureDefinition/cqf-inputParameters",
        "valueReference": {
          "reference": "#bfcfb8c0-b852-41a6-a323-0ef61b737bce-parameters"
        }
      }, {
        "url": "http://hl7.org/fhir/us/cqfmeasures/StructureDefinition/cqfm-testCaseDescription",
        "valueMarkdown": "Dementia MedicationRequest.medication as Reference"
      } ],
      "modifierExtension": [ {
        "url": "http://hl7.org/fhir/us/cqfmeasures/StructureDefinition/cqfm-isTestCase",
        "valueBoolean": true
      } ],
      "status": "complete",
      "type": "individual",
      "measure": "https://madie.cms.gov/Measure/CMS165FHIRControllingHighBP",
      "period": {
        "start": "2026-01-01",
        "end": "2026-12-31"
      },
      "group": [ {
        "id": "Group_1",
        "population": [ {
          "id": "InitialPopulation_1",
          "code": {
            "coding": [ {
              "system": "http://terminology.hl7.org/CodeSystem/measure-population",
              "code": "initial-population",
              "display": "Initial Population"
            } ]
          },
          "count": 1
        }, {
          "id": "Denominator_1",
          "code": {
            "coding": [ {
              "system": "http://terminology.hl7.org/CodeSystem/measure-population",
              "code": "denominator",
              "display": "Denominator"
            } ]
          },
          "count": 1
        }, {
          "id": "DenominatorExclusion_1",
          "code": {
            "coding": [ {
              "system": "http://terminology.hl7.org/CodeSystem/measure-population",
              "code": "denominator-exclusion",
              "display": "Denominator Exclusion"
            } ]
          },
          "count": 1
        }, {
          "id": "Numerator_1",
          "code": {
            "coding": [ {
              "system": "http://terminology.hl7.org/CodeSystem/measure-population",
              "code": "numerator",
              "display": "Numerator"
            } ]
          },
          "count": 0
        } ],
        "measureScore": {
          "value": 1.0
        }
      } ],
      "evaluatedResource": [ {
        "reference": "Patient/45e01fed-56bb-483d-a860-af3d566bda11"
      }, {
        "reference": "Encounter/8c54749f-29ed-491e-a222-0c2a90a71da7"
      }, {
        "reference": "Condition/1398f0d7-9d71-4a04-bdfa-0e44f69181e9"
      }, {
        "reference": "MedicationRequest/1cfbb1ef-fe70-4501-b25a-a91b204df14f"
      }, {
        "reference": "Medication/63369663-8430-4c47-841a-49b7d8945518"
      }, {
        "reference": "DeviceRequest/6e15c0e8-b0e8-4710-8090-d02017dd1ee6"
      } ]
    },
    "request": {
      "method": "PUT",
      "url": "MeasureReport/02991ca7-859d-422d-8849-655760f8e10a"
    }
  } ]
}