{
  "resourceType": "Bundle",
  "id": "657cbdc9b4f1f0343662347a",
  "type": "transaction",
  "entry": [ {
    "fullUrl": "https://madie.cms.gov/Patient/bfef7cf8-a7f7-42aa-bad4-3c6291bf1a3e",
    "resource": {
      "resourceType": "Patient",
      "id": "bfef7cf8-a7f7-42aa-bad4-3c6291bf1a3e",
      "meta": {
        "profile": [ "http://hl7.org/fhir/us/qicore/StructureDefinition/qicore-patient" ]
      },
      "extension": [ {
        "url": "http://hl7.org/fhir/us/core/StructureDefinition/us-core-race",
        "extension": [ {
          "url": "ombCategory",
          "valueCoding": {
            "system": "urn:oid:2.16.840.1.113883.6.238",
            "code": "2106-3",
            "display": "White",
            "userSelected": true
          }
        }, {
          "url": "text",
          "valueString": "White"
        } ]
      }, {
        "url": "http://hl7.org/fhir/us/core/StructureDefinition/us-core-ethnicity",
        "extension": [ {
          "url": "ombCategory",
          "valueCoding": {
            "system": "urn:oid:2.16.840.1.113883.6.238",
            "code": "2186-5",
            "display": "Not Hispanic or Latino",
            "userSelected": true
          }
        }, {
          "url": "text",
          "valueString": "Not Hispanic or Latino"
        } ]
      } ],
      "identifier": [ {
        "type": {
          "coding": [ {
            "system": "http://terminology.hl7.org/CodeSystem/v2-0203",
            "code": "MR"
          } ]
        },
        "system": "https://bonnie-fhir.healthit.gov/",
        "value": "657cbdc9b4f1f0343662347a"
      } ],
      "name": [ {
        "family": "ConditionReasonFail",
        "given": [ "ConditionReasonMissingFromEnc" ]
      } ],
      "gender": "female",
      "birthDate": "2008-01-01"
    },
    "request": {
      "method": "PUT",
      "url": "Patient/bfef7cf8-a7f7-42aa-bad4-3c6291bf1a3e"
    }
  }, {
    "fullUrl": "https://madie.cms.gov/Encounter/d931a13f-8302-4dff-af17-8fcc6f9928e6",
    "resource": {
      "resourceType": "Encounter",
      "id": "d931a13f-8302-4dff-af17-8fcc6f9928e6",
      "meta": {
        "profile": [ "http://hl7.org/fhir/us/qicore/StructureDefinition/qicore-encounter" ]
      },
      "status": "finished",
      "class": {
        "system": "http://terminology.hl7.org/CodeSystem/v3-ActCode",
        "code": "ACUTE",
        "display": "inpatient acute"
      },
      "type": [ {
        "coding": [ {
          "system": "http://snomed.info/sct",
          "version": "2024",
          "code": "32485007",
          "display": "Hospital admission (procedure)",
          "userSelected": true
        } ]
      } ],
      "subject": {
        "reference": "Patient/bfef7cf8-a7f7-42aa-bad4-3c6291bf1a3e"
      },
      "period": {
        "start": "2026-01-01T08:00:00.000Z",
        "end": "2026-01-02T09:15:00.000Z"
      },
      "reasonReference": [ {
        "reference": "Condition/migraine-g430"
      } ]
    },
    "request": {
      "method": "PUT",
      "url": "Encounter/d931a13f-8302-4dff-af17-8fcc6f9928e6"
    }
  }, {
    "fullUrl": "https://madie.cms.gov/Location/a6c91c9c-5910-4a64-b8bf-2348009c18ca",
    "resource": {
      "resourceType": "Location",
      "id": "a6c91c9c-5910-4a64-b8bf-2348009c18ca",
      "meta": {
        "profile": [ "http://hl7.org/fhir/us/qicore/StructureDefinition/qicore-location" ]
      },
      "identifier": [ {
        "use": "usual",
        "system": "http://exampleoflocation.com",
        "value": "B1-S.F2"
      } ],
      "name": "Medical Surgical East, first floor",
      "type": [ {
        "coding": [ {
          "system": "https://www.cdc.gov/nhsn/cdaportal/terminology/codesystem/hsloc.html",
          "code": "1028-0",
          "display": "Medical Cardiac Critical Care",
          "userSelected": true
        } ]
      } ]
    },
    "request": {
      "method": "PUT",
      "url": "Location/a6c91c9c-5910-4a64-b8bf-2348009c18ca"
    }
  }, {
    "fullUrl": "https://madie.cms.gov/MedicationRequest/571a38d1-b7b9-4dd0-949a-71c4c48729a0",
    "resource": {
      "resourceType": "MedicationRequest",
      "id": "571a38d1-b7b9-4dd0-949a-71c4c48729a0",
      "meta": {
        "profile": [ "http://hl7.org/fhir/us/qicore/StructureDefinition/qicore-medicationrequest" ]
      },
      "status": "completed",
      "intent": "order",
      "medicationCodeableConcept": {
        "coding": [ {
          "system": "http://www.nlm.nih.gov/research/umls/rxnorm",
          "version": "06052023",
          "code": "1007184"
        } ]
      },
      "subject": {
        "reference": "Patient/bfef7cf8-a7f7-42aa-bad4-3c6291bf1a3e"
      },
      "authoredOn": "2026-01-01T08:15:00.000Z",
      "requester": {
        "reference": "Practitioner/33d87640-6b2a-40b0-ab11-542478a88d5a"
      },
      "dosageInstruction": [ {
        "timing": {
          "repeat": {
            "boundsPeriod": {
              "start": "2025-01-01T08:15:00.000Z"
            }
          }
        }
      } ]
    },
    "request": {
      "method": "PUT",
      "url": "MedicationRequest/571a38d1-b7b9-4dd0-949a-71c4c48729a0"
    }
  }, {
    "fullUrl": "https://madie.cms.gov/Coverage/358643d6-8bec-45e1-b2a3-f77352d9f917",
    "resource": {
      "resourceType": "Coverage",
      "id": "358643d6-8bec-45e1-b2a3-f77352d9f917",
      "meta": {
        "profile": [ "http://hl7.org/fhir/us/qicore/StructureDefinition/qicore-coverage" ]
      },
      "identifier": [ {
        "system": "http://benefitsinc.com/certificate",
        "value": "12345"
      } ],
      "status": "active",
      "type": {
        "coding": [ {
          "system": "https://nahdo.org/sopt",
          "version": "1.0.1",
          "code": "1",
          "display": "MEDICARE",
          "userSelected": true
        } ]
      },
      "subscriberId": "AB9876",
      "beneficiary": {
        "reference": "Patient/bfef7cf8-a7f7-42aa-bad4-3c6291bf1a3e"
      },
      "relationship": {
        "coding": [ {
          "system": "http://terminology.hl7.org/CodeSystem/subscriber-relationship",
          "code": "self"
        } ]
      },
      "payor": [ {
        "reference": "Organization/d068e4f8-9048-4cf8-af0e-1441afee4fd3"
      } ]
    },
    "request": {
      "method": "PUT",
      "url": "Coverage/358643d6-8bec-45e1-b2a3-f77352d9f917"
    }
  }, {
    "fullUrl": "https://madie.cms.gov/Organization/d068e4f8-9048-4cf8-af0e-1441afee4fd3",
    "resource": {
      "resourceType": "Organization",
      "id": "d068e4f8-9048-4cf8-af0e-1441afee4fd3",
      "meta": {
        "profile": [ "http://hl7.org/fhir/us/qicore/StructureDefinition/qicore-organization" ]
      },
      "identifier": [ {
        "use": "temp",
        "system": "urn:oid:2.16.840.1.113883.4.4",
        "value": "21-3259825"
      } ],
      "active": true,
      "type": [ {
        "coding": [ {
          "system": "http://terminology.hl7.org/CodeSystem/organization-type",
          "code": "pay",
          "display": "Payer"
        } ]
      } ],
      "name": "Blue Cross Blue Shield of Texas",
      "telecom": [ {
        "system": "phone",
        "value": "(+1) 972-766-6900"
      } ],
      "address": [ {
        "use": "billing",
        "type": "postal",
        "line": [ "P.O. Box 660044" ],
        "city": "Dallas",
        "state": "TX",
        "postalCode": "75266-0044",
        "country": "USA"
      } ]
    },
    "request": {
      "method": "PUT",
      "url": "Organization/d068e4f8-9048-4cf8-af0e-1441afee4fd3"
    }
  }, {
    "fullUrl": "https://madie.cms.gov/Practitioner/bd72b29c-6c17-4174-8854-7652b7a09365",
    "resource": {
      "resourceType": "Practitioner",
      "id": "bd72b29c-6c17-4174-8854-7652b7a09365",
      "meta": {
        "profile": [ "http://hl7.org/fhir/us/qicore/StructureDefinition/qicore-practitioner" ]
      },
      "identifier": [ {
        "system": "http://hl7.org/fhir/sid/us-npi",
        "value": "0723660813"
      } ],
      "name": [ {
        "family": "Evil",
        "prefix": [ "Dr" ]
      } ]
    },
    "request": {
      "method": "PUT",
      "url": "Practitioner/bd72b29c-6c17-4174-8854-7652b7a09365"
    }
  }, {
    "fullUrl": "https://madie.cms.gov/MeasureReport/459e7b36-280a-40e3-b894-c10972ea1173",
    "resource": {
      "resourceType": "MeasureReport",
      "id": "459e7b36-280a-40e3-b894-c10972ea1173",
      "meta": {
        "profile": [ "http://hl7.org/fhir/us/cqfmeasures/StructureDefinition/test-case-cqfm" ]
      },
      "contained": [ {
        "resourceType": "Parameters",
        "id": "4c1c0b0c-c519-4a83-b0bb-e5783506e186-parameters",
        "parameter": [ {
          "name": "subject",
          "valueString": "bfef7cf8-a7f7-42aa-bad4-3c6291bf1a3e"
        } ]
      } ],
      "extension": [ {
        "url": "http://hl7.org/fhir/StructureDefinition/cqf-inputParameters",
        "valueReference": {
          "reference": "#4c1c0b0c-c519-4a83-b0bb-e5783506e186-parameters"
        }
      }, {
        "url": "http://hl7.org/fhir/us/cqfmeasures/StructureDefinition/cqfm-testCaseDescription",
        "valueMarkdown": "Inpatient encounter with diabetic medication during MP with condition reason missing"
      } ],
      "modifierExtension": [ {
        "url": "http://hl7.org/fhir/us/cqfmeasures/StructureDefinition/cqfm-isTestCase",
        "valueBoolean": true
      } ],
      "status": "complete",
      "type": "individual",
      "measure": "https://madie.cms.gov/Measure/NHSNGlycemicControlHypoglycemiaInitialPopulation",
      "period": {
        "start": "2026-01-01",
        "end": "2026-12-31"
      },
      "group": [ {
        "id": "Group_1",
        "population": [ {
          "id": "InitialPopulation_1",
          "code": {
            "coding": [ {
              "system": "http://terminology.hl7.org/CodeSystem/measure-population",
              "code": "initial-population",
              "display": "Initial Population"
            } ]
          },
          "count": 1
        } ],
        "measureScore": {
          "value": 0.0
        }
      } ],
      "evaluatedResource": [ {
        "reference": "Patient/bfef7cf8-a7f7-42aa-bad4-3c6291bf1a3e"
      }, {
        "reference": "Encounter/d931a13f-8302-4dff-af17-8fcc6f9928e6"
      }, {
        "reference": "Location/a6c91c9c-5910-4a64-b8bf-2348009c18ca"
      }, {
        "reference": "MedicationRequest/571a38d1-b7b9-4dd0-949a-71c4c48729a0"
      }, {
        "reference": "Coverage/358643d6-8bec-45e1-b2a3-f77352d9f917"
      }, {
        "reference": "Organization/d068e4f8-9048-4cf8-af0e-1441afee4fd3"
      }, {
        "reference": "Practitioner/bd72b29c-6c17-4174-8854-7652b7a09365"
      } ]
    },
    "request": {
      "method": "PUT",
      "url": "MeasureReport/459e7b36-280a-40e3-b894-c10972ea1173"
    }
  } ]
}