{
  "resourceType": "Bundle",
  "id": "612e6ade02c62a011f2eb846",
  "type": "transaction",
  "entry": [ {
    "fullUrl": "https://madie.cms.gov/Patient/b30e1235-fe5d-4cd1-a536-4baafc680d7b",
    "resource": {
      "resourceType": "Patient",
      "id": "b30e1235-fe5d-4cd1-a536-4baafc680d7b",
      "meta": {
        "profile": [ "http://hl7.org/fhir/us/qicore/StructureDefinition/qicore-patient" ]
      },
      "text": {
        "status": "generated",
        "div": "<div xmlns=\"http://www.w3.org/1999/xhtml\"><div class=\"hapiHeaderText\">2Encounters_1PassIPP_DEN_DENEX <b>DENEXPASS </b></div><table class=\"hapiPropertyTable\"><tbody><tr><td>Identifier</td><td>b98ddb653cdba6f593cc49f0f466a1b86353252d04583905e9da730a49dbb7cc</td></tr><tr><td>Date of birth</td><td><span>02 September 1978</span></td></tr></tbody></table></div>"
      },
      "extension": [ {
        "url": "http://hl7.org/fhir/us/core/StructureDefinition/us-core-race",
        "extension": [ {
          "url": "ombCategory",
          "valueCoding": {
            "system": "urn:oid:2.16.840.1.113883.6.238",
            "code": "1002-5",
            "display": "American Indian or Alaska Native",
            "userSelected": true
          }
        }, {
          "url": "text",
          "valueString": "American Indian or Alaska Native"
        } ]
      }, {
        "url": "http://hl7.org/fhir/us/core/StructureDefinition/us-core-ethnicity",
        "extension": [ {
          "url": "ombCategory",
          "valueCoding": {
            "system": "urn:oid:2.16.840.1.113883.6.238",
            "code": "2135-2",
            "display": "Hispanic or Latino",
            "userSelected": true
          }
        }, {
          "url": "text",
          "valueString": "Hispanic or Latino"
        } ]
      } ],
      "identifier": [ {
        "type": {
          "coding": [ {
            "system": "http://terminology.hl7.org/CodeSystem/v2-0203",
            "code": "MR"
          } ]
        },
        "system": "https://bonnie-fhir.healthit.gov/",
        "value": "612e6ade02c62a011f2eb846"
      } ],
      "active": true,
      "name": [ {
        "use": "usual",
        "family": "DENEXPass",
        "given": [ "2Encounters1PassIPPDENDENEX" ]
      } ],
      "gender": "male",
      "birthDate": "1979-09-02"
    },
    "request": {
      "method": "PUT",
      "url": "Patient/b30e1235-fe5d-4cd1-a536-4baafc680d7b"
    }
  }, {
    "fullUrl": "https://madie.cms.gov/Encounter/456fba41-1947-4413-aa20-de24a42ffe79",
    "resource": {
      "resourceType": "Encounter",
      "id": "456fba41-1947-4413-aa20-de24a42ffe79",
      "meta": {
        "profile": [ "http://hl7.org/fhir/us/qicore/StructureDefinition/qicore-encounter" ]
      },
      "status": "finished",
      "class": {
        "system": "http://terminology.hl7.org/CodeSystem/v3-ActCode",
        "code": "IMP",
        "display": "inpatient encounter"
      },
      "type": [ {
        "coding": [ {
          "system": "http://snomed.info/sct",
          "code": "183452005"
        } ]
      } ],
      "subject": {
        "reference": "Patient/b30e1235-fe5d-4cd1-a536-4baafc680d7b"
      },
      "period": {
        "start": "2026-07-04T08:00:00.000+00:00",
        "end": "2026-07-04T08:15:00.000+00:00"
      },
      "length": {
        "value": 0,
        "unit": "days"
      }
    },
    "request": {
      "method": "PUT",
      "url": "Encounter/456fba41-1947-4413-aa20-de24a42ffe79"
    }
  }, {
    "fullUrl": "https://madie.cms.gov/Encounter/921ac51f-9082-4f49-9dbd-cbb71006eadf",
    "resource": {
      "resourceType": "Encounter",
      "id": "921ac51f-9082-4f49-9dbd-cbb71006eadf",
      "meta": {
        "profile": [ "http://hl7.org/fhir/us/qicore/StructureDefinition/qicore-encounter" ]
      },
      "status": "finished",
      "class": {
        "system": "http://terminology.hl7.org/CodeSystem/v3-ActCode",
        "code": "EMER",
        "display": "emergency"
      },
      "type": [ {
        "coding": [ {
          "system": "http://snomed.info/sct",
          "code": "4525004"
        } ]
      } ],
      "subject": {
        "reference": "Patient/b30e1235-fe5d-4cd1-a536-4baafc680d7b"
      },
      "period": {
        "start": "2026-07-05T09:00:00.000+00:00",
        "end": "2026-07-05T10:00:00.000+00:00"
      },
      "length": {
        "value": 0,
        "unit": "days"
      }
    },
    "request": {
      "method": "PUT",
      "url": "Encounter/921ac51f-9082-4f49-9dbd-cbb71006eadf"
    }
  }, {
    "fullUrl": "https://madie.cms.gov/Encounter/f4e0937b-b125-4d7f-a8ae-bec3e74e7c41",
    "resource": {
      "resourceType": "Encounter",
      "id": "f4e0937b-b125-4d7f-a8ae-bec3e74e7c41",
      "meta": {
        "profile": [ "http://hl7.org/fhir/us/qicore/StructureDefinition/qicore-encounter" ]
      },
      "status": "finished",
      "class": {
        "system": "http://terminology.hl7.org/CodeSystem/v3-ActCode",
        "code": "IMP",
        "display": "inpatient encounter"
      },
      "type": [ {
        "coding": [ {
          "system": "http://snomed.info/sct",
          "code": "183452005"
        } ]
      } ],
      "subject": {
        "reference": "Patient/b30e1235-fe5d-4cd1-a536-4baafc680d7b"
      },
      "period": {
        "start": "2026-07-05T10:00:00.000+00:00",
        "end": "2026-07-07T10:00:00.000+00:00"
      },
      "length": {
        "value": 2,
        "unit": "days"
      },
      "reasonReference": [ {
        "reference": "Condition/d8347fcf-965c-4366-9b5b-d17e3542bf05"
      } ]
    },
    "request": {
      "method": "PUT",
      "url": "Encounter/f4e0937b-b125-4d7f-a8ae-bec3e74e7c41"
    }
  }, {
    "fullUrl": "https://madie.cms.gov/Coverage/7df5deda-3b0d-4fa3-b6bb-bbf90ace29c7",
    "resource": {
      "resourceType": "Coverage",
      "id": "7df5deda-3b0d-4fa3-b6bb-bbf90ace29c7",
      "status": "active",
      "beneficiary": {
        "reference": "Patient/b30e1235-fe5d-4cd1-a536-4baafc680d7b"
      },
      "period": {
        "start": "1979-09-02T08:00:00.000+00:00"
      },
      "payor": [ {
        "reference": "Organization/77f47ab7-9e64-484d-b013-50fb032985c1"
      } ]
    },
    "request": {
      "method": "PUT",
      "url": "Coverage/7df5deda-3b0d-4fa3-b6bb-bbf90ace29c7"
    }
  }, {
    "fullUrl": "https://madie.cms.gov/Condition/d8347fcf-965c-4366-9b5b-d17e3542bf05",
    "resource": {
      "resourceType": "Condition",
      "id": "d8347fcf-965c-4366-9b5b-d17e3542bf05",
      "meta": {
        "profile": [ "http://hl7.org/fhir/us/qicore/StructureDefinition/qicore-condition-encounter-diagnosis" ]
      },
      "category": [ {
        "coding": [ {
          "system": "http://terminology.hl7.org/CodeSystem/condition-category",
          "code": "encounter-diagnosis",
          "display": "Encounter Diagnosis"
        } ]
      } ],
      "code": {
        "coding": [ {
          "system": "http://snomed.info/sct",
          "code": "13943000",
          "display": "Failed attempted abortion complicated by embolism (disorder)",
          "userSelected": true
        } ]
      },
      "subject": {
        "reference": "Patient/b30e1235-fe5d-4cd1-a536-4baafc680d7b"
      }
    },
    "request": {
      "method": "PUT",
      "url": "Condition/d8347fcf-965c-4366-9b5b-d17e3542bf05"
    }
  }, {
    "fullUrl": "https://madie.cms.gov/Organization/77f47ab7-9e64-484d-b013-50fb032985c1",
    "resource": {
      "resourceType": "Organization",
      "id": "77f47ab7-9e64-484d-b013-50fb032985c1",
      "meta": {
        "profile": [ "http://hl7.org/fhir/us/qicore/StructureDefinition/qicore-organization" ]
      },
      "identifier": [ {
        "use": "temp",
        "system": "urn:oid:2.16.840.1.113883.4.4",
        "value": "21-3259825"
      } ],
      "active": true,
      "type": [ {
        "coding": [ {
          "system": "http://terminology.hl7.org/CodeSystem/organization-type",
          "code": "pay",
          "display": "Payer"
        } ]
      } ],
      "name": "Blue Cross Blue Shield of Texas",
      "telecom": [ {
        "system": "phone",
        "value": "(+1) 972-766-6900"
      } ],
      "address": [ {
        "use": "billing",
        "type": "postal",
        "line": [ "P.O. Box 660044" ],
        "city": "Dallas",
        "state": "TX",
        "postalCode": "75266-0044",
        "country": "USA"
      } ]
    },
    "request": {
      "method": "PUT",
      "url": "Organization/77f47ab7-9e64-484d-b013-50fb032985c1"
    }
  }, {
    "fullUrl": "https://madie.cms.gov/Practitioner/b5abdb5b-7d80-4e82-91c8-e2ef19ae867d",
    "resource": {
      "resourceType": "Practitioner",
      "id": "b5abdb5b-7d80-4e82-91c8-e2ef19ae867d",
      "identifier": [ {
        "system": "http://hl7.org/fhir/sid/us-npi",
        "value": "123456"
      } ],
      "name": [ {
        "family": "Evil",
        "prefix": [ "Dr" ]
      } ]
    },
    "request": {
      "method": "PUT",
      "url": "Practitioner/b5abdb5b-7d80-4e82-91c8-e2ef19ae867d"
    }
  }, {
    "fullUrl": "https://madie.cms.gov/MeasureReport/efecc7e9-26a5-4c8a-8afd-6a5179ed6342",
    "resource": {
      "resourceType": "MeasureReport",
      "id": "efecc7e9-26a5-4c8a-8afd-6a5179ed6342",
      "meta": {
        "profile": [ "http://hl7.org/fhir/us/cqfmeasures/StructureDefinition/test-case-cqfm" ]
      },
      "contained": [ {
        "resourceType": "Parameters",
        "id": "564d80db-315e-49a4-ad60-3582107ab325-parameters",
        "parameter": [ {
          "name": "subject",
          "valueString": "b30e1235-fe5d-4cd1-a536-4baafc680d7b"
        } ]
      } ],
      "extension": [ {
        "url": "http://hl7.org/fhir/StructureDefinition/cqf-inputParameters",
        "valueReference": {
          "reference": "#564d80db-315e-49a4-ad60-3582107ab325-parameters"
        }
      }, {
        "url": "http://hl7.org/fhir/us/cqfmeasures/StructureDefinition/cqfm-testCaseDescription",
        "valueMarkdown": "Testing Multiple Encounters - one (7/5 - 7/7) fails the IPP Due to OB VTE starts in ED and another pass IPP, DEN and DENEX due to LOS = 0 day\n"
      } ],
      "modifierExtension": [ {
        "url": "http://hl7.org/fhir/us/cqfmeasures/StructureDefinition/cqfm-isTestCase",
        "valueBoolean": true
      } ],
      "status": "complete",
      "type": "individual",
      "measure": "https://madie.cms.gov/Measure/CMS108FHIRVTEProphylaxis",
      "period": {
        "start": "2026-01-01",
        "end": "2026-12-31"
      },
      "group": [ {
        "id": "Group_1",
        "population": [ {
          "id": "InitialPopulation_1",
          "code": {
            "coding": [ {
              "system": "http://terminology.hl7.org/CodeSystem/measure-population",
              "code": "initial-population",
              "display": "Initial Population"
            } ]
          },
          "count": 1
        }, {
          "id": "Denominator_1",
          "code": {
            "coding": [ {
              "system": "http://terminology.hl7.org/CodeSystem/measure-population",
              "code": "denominator",
              "display": "Denominator"
            } ]
          },
          "count": 1
        }, {
          "id": "DenominatorExclusion_1",
          "code": {
            "coding": [ {
              "system": "http://terminology.hl7.org/CodeSystem/measure-population",
              "code": "denominator-exclusion",
              "display": "Denominator Exclusion"
            } ]
          },
          "count": 1
        }, {
          "id": "Numerator_1",
          "code": {
            "coding": [ {
              "system": "http://terminology.hl7.org/CodeSystem/measure-population",
              "code": "numerator",
              "display": "Numerator"
            } ]
          },
          "count": 0
        } ],
        "measureScore": {
          "value": 0.0
        }
      } ],
      "evaluatedResource": [ {
        "reference": "Patient/b30e1235-fe5d-4cd1-a536-4baafc680d7b"
      }, {
        "reference": "Encounter/456fba41-1947-4413-aa20-de24a42ffe79"
      }, {
        "reference": "Encounter/921ac51f-9082-4f49-9dbd-cbb71006eadf"
      }, {
        "reference": "Encounter/f4e0937b-b125-4d7f-a8ae-bec3e74e7c41"
      }, {
        "reference": "Coverage/7df5deda-3b0d-4fa3-b6bb-bbf90ace29c7"
      }, {
        "reference": "Condition/d8347fcf-965c-4366-9b5b-d17e3542bf05"
      }, {
        "reference": "Organization/77f47ab7-9e64-484d-b013-50fb032985c1"
      }, {
        "reference": "Practitioner/b5abdb5b-7d80-4e82-91c8-e2ef19ae867d"
      } ]
    },
    "request": {
      "method": "PUT",
      "url": "MeasureReport/efecc7e9-26a5-4c8a-8afd-6a5179ed6342"
    }
  } ]
}