{
  "resourceType": "Bundle",
  "id": "60f82c2f98086b570510e2b7",
  "type": "transaction",
  "entry": [ {
    "fullUrl": "https://madie.cms.gov/Patient/58169ea2-037f-4302-9c37-4239fe24f73d",
    "resource": {
      "resourceType": "Patient",
      "id": "58169ea2-037f-4302-9c37-4239fe24f73d",
      "meta": {
        "profile": [ "http://hl7.org/fhir/us/qicore/StructureDefinition/qicore-patient" ]
      },
      "text": {
        "status": "generated",
        "div": "<div xmlns=\"http://www.w3.org/1999/xhtml\"><div class=\"hapiHeaderText\">PharmContraDayOfObs_ED&lt;1hrObs&gt;1hrBFEncDayOf <b>DENEXCEPPASS </b></div><table class=\"hapiPropertyTable\"><tbody><tr><td>Identifier</td><td>5f39b93e7a5bf316f53585d08bdd97a75f7ed3ecabda70161dbae1a616b8dbe1</td></tr><tr><td>Date of birth</td><td><span>26 September 1975</span></td></tr></tbody></table></div>"
      },
      "extension": [ {
        "url": "http://hl7.org/fhir/us/core/StructureDefinition/us-core-race",
        "extension": [ {
          "url": "ombCategory",
          "valueCoding": {
            "system": "urn:oid:2.16.840.1.113883.6.238",
            "code": "2054-5",
            "display": "Black or African American",
            "userSelected": true
          }
        }, {
          "url": "text",
          "valueString": "Black or African American"
        } ]
      }, {
        "url": "http://hl7.org/fhir/us/core/StructureDefinition/us-core-ethnicity",
        "extension": [ {
          "url": "ombCategory",
          "valueCoding": {
            "system": "urn:oid:2.16.840.1.113883.6.238",
            "code": "2186-5",
            "display": "Not Hispanic or Latino",
            "userSelected": true
          }
        }, {
          "url": "text",
          "valueString": "Not Hispanic or Latino"
        } ]
      } ],
      "identifier": [ {
        "type": {
          "coding": [ {
            "system": "http://terminology.hl7.org/CodeSystem/v2-0203",
            "code": "MR"
          } ]
        },
        "system": "https://bonnie-fhir.healthit.gov/",
        "value": "60f82c2f98086b570510e2b7"
      } ],
      "active": true,
      "name": [ {
        "use": "usual",
        "family": "DENEXCEPPass",
        "given": [ "PharmContraDayOfObs_ED<1hrObs>1hrBFEncDayOf" ]
      } ],
      "gender": "female",
      "birthDate": "1976-09-26"
    },
    "request": {
      "method": "PUT",
      "url": "Patient/58169ea2-037f-4302-9c37-4239fe24f73d"
    }
  }, {
    "fullUrl": "https://madie.cms.gov/Encounter/efe0d10c-91ad-4c40-b149-cc25868d4917",
    "resource": {
      "resourceType": "Encounter",
      "id": "efe0d10c-91ad-4c40-b149-cc25868d4917",
      "meta": {
        "profile": [ "http://hl7.org/fhir/us/qicore/StructureDefinition/qicore-encounter" ]
      },
      "status": "finished",
      "class": {
        "system": "http://terminology.hl7.org/CodeSystem/v3-ActCode",
        "code": "EMER",
        "display": "emergency",
        "userSelected": true
      },
      "type": [ {
        "coding": [ {
          "system": "http://snomed.info/sct",
          "code": "4525004"
        } ]
      } ],
      "subject": {
        "reference": "Patient/58169ea2-037f-4302-9c37-4239fe24f73d"
      },
      "period": {
        "start": "2026-10-10T09:00:00.000+00:00",
        "end": "2026-10-10T09:15:00.000+00:00"
      },
      "length": {
        "value": 0,
        "unit": "days"
      }
    },
    "request": {
      "method": "PUT",
      "url": "Encounter/efe0d10c-91ad-4c40-b149-cc25868d4917"
    }
  }, {
    "fullUrl": "https://madie.cms.gov/Encounter/f4395e8b-3bc0-4506-a117-ec2009e539a1",
    "resource": {
      "resourceType": "Encounter",
      "id": "f4395e8b-3bc0-4506-a117-ec2009e539a1",
      "meta": {
        "profile": [ "http://hl7.org/fhir/us/qicore/StructureDefinition/qicore-encounter" ]
      },
      "status": "finished",
      "class": {
        "system": "http://terminology.hl7.org/CodeSystem/v3-ActCode",
        "code": "OBSENC",
        "display": "observation encounter",
        "userSelected": true
      },
      "type": [ {
        "coding": [ {
          "system": "http://snomed.info/sct",
          "code": "448851000124103"
        } ]
      } ],
      "subject": {
        "reference": "Patient/58169ea2-037f-4302-9c37-4239fe24f73d"
      },
      "period": {
        "start": "2026-10-10T09:16:00.000+00:00",
        "end": "2026-10-10T10:15:00.000+00:00"
      },
      "length": {
        "value": 0,
        "unit": "days"
      }
    },
    "request": {
      "method": "PUT",
      "url": "Encounter/f4395e8b-3bc0-4506-a117-ec2009e539a1"
    }
  }, {
    "fullUrl": "https://madie.cms.gov/Encounter/2a4e2270-f3e3-48a9-88b7-868b86210f7b",
    "resource": {
      "resourceType": "Encounter",
      "id": "2a4e2270-f3e3-48a9-88b7-868b86210f7b",
      "meta": {
        "profile": [ "http://hl7.org/fhir/us/qicore/StructureDefinition/qicore-encounter" ]
      },
      "status": "finished",
      "class": {
        "system": "http://terminology.hl7.org/CodeSystem/v3-ActCode",
        "code": "IMP",
        "display": "inpatient encounter",
        "userSelected": true
      },
      "type": [ {
        "coding": [ {
          "system": "http://snomed.info/sct",
          "code": "32485007"
        } ]
      } ],
      "subject": {
        "reference": "Patient/58169ea2-037f-4302-9c37-4239fe24f73d"
      },
      "period": {
        "start": "2026-10-10T23:16:00.000+00:00",
        "end": "2026-10-13T10:15:00.000+00:00"
      },
      "length": {
        "value": 3,
        "unit": "days"
      },
      "reasonReference": [ {
        "reference": "Condition/1c7e79fb-6140-4c9d-8deb-412ad41be106"
      } ]
    },
    "request": {
      "method": "PUT",
      "url": "Encounter/2a4e2270-f3e3-48a9-88b7-868b86210f7b"
    }
  }, {
    "fullUrl": "https://madie.cms.gov/claim/5ca62962b8484628b8de1ec5",
    "resource": {
      "resourceType": "Claim",
      "id": "5ca62962b8484628b8de1ec5",
      "meta": {
        "profile": [ "http://hl7.org/fhir/us/qicore/StructureDefinition/qicore-claim" ]
      },
      "status": "active",
      "type": {
        "coding": [ {
          "system": "http://terminology.hl7.org/CodeSystem/claim-type",
          "code": "institutional"
        } ]
      },
      "use": "claim",
      "patient": {
        "reference": "Patient/d170a0a8-b5ad-4303-b6df-e304dd5f92ad"
      },
      "created": "2026-12-01",
      "provider": {
        "reference": "Practitioner/practitioner-123456"
      },
      "priority": {
        "coding": [ {
          "system": "http://terminology.hl7.org/CodeSystem/processpriority",
          "code": "normal"
        } ]
      },
      "diagnosis": [ {
        "sequence": 1,
        "diagnosisCodeableConcept": {
          "coding": [ {
            "system": "http://hl7.org/fhir/sid/icd-10-cm",
            "code": "I63.00"
          } ]
        },
        "type": [ {
          "coding": [ {
            "system": "http://terminology.hl7.org/CodeSystem/ex-diagnosistype",
            "code": "principal"
          } ]
        } ]
      } ],
      "insurance": [ {
        "sequence": 1,
        "focal": true,
        "coverage": {
          "reference": "Coverage/5fa041661c76ba66d9959367"
        }
      } ],
      "item": [ {
        "sequence": 1,
        "diagnosisSequence": [ 1 ],
        "productOrService": {
          "coding": [ {
            "system": "http://terminology.hl7.org/CodeSystem/ex-USCLS",
            "code": "99555"
          } ]
        },
        "encounter": [ {
          "reference": "Encounter/2a4e2270-f3e3-48a9-88b7-868b86210f7b"
        } ]
      } ]
    },
    "request": {
      "method": "PUT",
      "url": "Claim/5ca62962b8484628b8de1ec5"
    }
  }, {
    "fullUrl": "https://madie.cms.gov/MedicationAdministration/06441981-38b7-4b04-a9b3-4032c7b1769e",
    "resource": {
      "resourceType": "MedicationAdministration",
      "id": "06441981-38b7-4b04-a9b3-4032c7b1769e",
      "meta": {
        "profile": [ "http://hl7.org/fhir/us/qicore/StructureDefinition/qicore-medicationadministration" ]
      },
      "status": "completed",
      "medicationCodeableConcept": {
        "coding": [ {
          "system": "http://www.nlm.nih.gov/research/umls/rxnorm",
          "code": "855812",
          "display": "prasugrel 10 MG Oral Tablet",
          "userSelected": true
        } ]
      },
      "subject": {
        "reference": "Patient/58169ea2-037f-4302-9c37-4239fe24f73d"
      },
      "effectivePeriod": {
        "start": "2026-10-10T10:15:00.000+00:00"
      }
    },
    "request": {
      "method": "PUT",
      "url": "MedicationAdministration/06441981-38b7-4b04-a9b3-4032c7b1769e"
    }
  }, {
    "fullUrl": "https://madie.cms.gov/Coverage/a0c4867f-12ac-4779-8758-aa865d7ae50c",
    "resource": {
      "resourceType": "Coverage",
      "id": "a0c4867f-12ac-4779-8758-aa865d7ae50c",
      "status": "active",
      "subscriberId": "523435",
      "beneficiary": {
        "reference": "Patient/58169ea2-037f-4302-9c37-4239fe24f73d"
      },
      "relationship": {
        "coding": [ {
          "system": "http://terminology.hl7.org/CodeSystem/subscriber-relationship",
          "code": "self"
        } ]
      },
      "period": {
        "start": "1976-09-26T08:00:00.000+00:00"
      },
      "payor": [ {
        "reference": "Organization/5bb6b70c-61f3-48a6-bda8-ff4f94bbd65b"
      } ]
    },
    "request": {
      "method": "PUT",
      "url": "Coverage/a0c4867f-12ac-4779-8758-aa865d7ae50c"
    }
  }, {
    "fullUrl": "https://madie.cms.gov/Condition/1c7e79fb-6140-4c9d-8deb-412ad41be106",
    "resource": {
      "resourceType": "Condition",
      "id": "1c7e79fb-6140-4c9d-8deb-412ad41be106",
      "meta": {
        "profile": [ "http://hl7.org/fhir/us/qicore/StructureDefinition/qicore-condition-encounter-diagnosis" ]
      },
      "clinicalStatus": {
        "coding": [ {
          "system": "http://terminology.hl7.org/CodeSystem/condition-clinical",
          "code": "active"
        } ]
      },
      "verificationStatus": {
        "coding": [ {
          "system": "http://terminology.hl7.org/CodeSystem/condition-ver-status",
          "code": "confirmed"
        } ]
      },
      "category": [ {
        "coding": [ {
          "system": "http://terminology.hl7.org/CodeSystem/condition-category",
          "code": "encounter-diagnosis",
          "display": "Encounter Diagnosis"
        } ]
      } ],
      "code": {
        "coding": [ {
          "system": "http://snomed.info/sct",
          "version": "2020-09",
          "code": "111297002",
          "display": "Nonparalytic stroke (disorder)",
          "userSelected": true
        } ]
      },
      "subject": {
        "reference": "Patient/58169ea2-037f-4302-9c37-4239fe24f73d"
      },
      "recordedDate": "2026-08-06T08:00:00.000+00:00"
    },
    "request": {
      "method": "PUT",
      "url": "Condition/1c7e79fb-6140-4c9d-8deb-412ad41be106"
    }
  }, {
    "fullUrl": "https://madie.cms.gov/Organization/5bb6b70c-61f3-48a6-bda8-ff4f94bbd65b",
    "resource": {
      "resourceType": "Organization",
      "id": "5bb6b70c-61f3-48a6-bda8-ff4f94bbd65b",
      "meta": {
        "profile": [ "http://hl7.org/fhir/us/qicore/StructureDefinition/qicore-organization" ]
      },
      "identifier": [ {
        "use": "temp",
        "system": "urn:oid:2.16.840.1.113883.4.4",
        "value": "21-3259825"
      } ],
      "active": true,
      "type": [ {
        "coding": [ {
          "system": "http://terminology.hl7.org/CodeSystem/organization-type",
          "code": "pay",
          "display": "Payer"
        } ]
      } ],
      "name": "Blue Cross Blue Shield of Texas",
      "telecom": [ {
        "system": "phone",
        "value": "(+1) 972-766-6900"
      } ],
      "address": [ {
        "use": "billing",
        "type": "postal",
        "line": [ "P.O. Box 660044" ],
        "city": "Dallas",
        "state": "TX",
        "postalCode": "75266-0044",
        "country": "USA"
      } ]
    },
    "request": {
      "method": "PUT",
      "url": "Organization/5bb6b70c-61f3-48a6-bda8-ff4f94bbd65b"
    }
  }, {
    "fullUrl": "https://madie.cms.gov/MeasureReport/ce226f20-271f-4f6b-b3c9-e8413b9aa464",
    "resource": {
      "resourceType": "MeasureReport",
      "id": "ce226f20-271f-4f6b-b3c9-e8413b9aa464",
      "meta": {
        "profile": [ "http://hl7.org/fhir/us/cqfmeasures/StructureDefinition/test-case-cqfm" ]
      },
      "contained": [ {
        "resourceType": "Parameters",
        "id": "72391ac7-feae-43e6-a1ba-3fefa29b193c-parameters",
        "parameter": [ {
          "name": "subject",
          "valueString": "58169ea2-037f-4302-9c37-4239fe24f73d"
        } ]
      } ],
      "extension": [ {
        "url": "http://hl7.org/fhir/StructureDefinition/cqf-inputParameters",
        "valueReference": {
          "reference": "#72391ac7-feae-43e6-a1ba-3fefa29b193c-parameters"
        }
      }, {
        "url": "http://hl7.org/fhir/us/cqfmeasures/StructureDefinition/cqfm-testCaseDescription",
        "valueMarkdown": "Patient receives Ticagrelor the day of Obs. ED ends 1 min before Obs.Obs ends 61 min before IP all on the same day. Testing Day of operator with HospitalizationWithObservation function.\n"
      } ],
      "modifierExtension": [ {
        "url": "http://hl7.org/fhir/us/cqfmeasures/StructureDefinition/cqfm-isTestCase",
        "valueBoolean": true
      } ],
      "status": "complete",
      "type": "individual",
      "measure": "https://madie.cms.gov/Measure/CMS72FHIRSTKAntithromboticDay2",
      "period": {
        "start": "2026-01-01",
        "end": "2026-12-31"
      },
      "group": [ {
        "id": "Group_1",
        "population": [ {
          "id": "InitialPopulation_1",
          "code": {
            "coding": [ {
              "system": "http://terminology.hl7.org/CodeSystem/measure-population",
              "code": "initial-population",
              "display": "Initial Population"
            } ]
          },
          "count": 1
        }, {
          "id": "Denominator_1",
          "code": {
            "coding": [ {
              "system": "http://terminology.hl7.org/CodeSystem/measure-population",
              "code": "denominator",
              "display": "Denominator"
            } ]
          },
          "count": 1
        }, {
          "id": "DenominatorExclusion_1",
          "code": {
            "coding": [ {
              "system": "http://terminology.hl7.org/CodeSystem/measure-population",
              "code": "denominator-exclusion",
              "display": "Denominator Exclusion"
            } ]
          },
          "count": 0
        }, {
          "id": "Numerator_1",
          "code": {
            "coding": [ {
              "system": "http://terminology.hl7.org/CodeSystem/measure-population",
              "code": "numerator",
              "display": "Numerator"
            } ]
          },
          "count": 0
        }, {
          "id": "DenominatorException_1",
          "code": {
            "coding": [ {
              "system": "http://terminology.hl7.org/CodeSystem/measure-population",
              "code": "denominator-exception",
              "display": "Denominator Exception"
            } ]
          },
          "count": 1
        } ],
        "measureScore": {
          "value": 0.0
        }
      } ],
      "evaluatedResource": [ {
        "reference": "Patient/58169ea2-037f-4302-9c37-4239fe24f73d"
      }, {
        "reference": "Encounter/efe0d10c-91ad-4c40-b149-cc25868d4917"
      }, {
        "reference": "Encounter/f4395e8b-3bc0-4506-a117-ec2009e539a1"
      }, {
        "reference": "Encounter/2a4e2270-f3e3-48a9-88b7-868b86210f7b"
      }, {
        "reference": "Claim/5ca62962b8484628b8de1ec5"
      }, {
        "reference": "MedicationAdministration/06441981-38b7-4b04-a9b3-4032c7b1769e"
      }, {
        "reference": "Coverage/a0c4867f-12ac-4779-8758-aa865d7ae50c"
      }, {
        "reference": "Condition/1c7e79fb-6140-4c9d-8deb-412ad41be106"
      }, {
        "reference": "Organization/5bb6b70c-61f3-48a6-bda8-ff4f94bbd65b"
      } ]
    },
    "request": {
      "method": "PUT",
      "url": "MeasureReport/ce226f20-271f-4f6b-b3c9-e8413b9aa464"
    }
  } ]
}