{
  "resourceType": "Bundle",
  "id": "612e6ac002c62a011f2eb21c",
  "type": "transaction",
  "entry": [ {
    "fullUrl": "https://madie.cms.gov/Patient/900f47c2-3615-4ffe-a9e0-3e7e70469ffb",
    "resource": {
      "resourceType": "Patient",
      "id": "900f47c2-3615-4ffe-a9e0-3e7e70469ffb",
      "meta": {
        "profile": [ "http://hl7.org/fhir/us/qicore/StructureDefinition/qicore-patient" ]
      },
      "text": {
        "status": "generated",
        "div": "<div xmlns=\"http://www.w3.org/1999/xhtml\"><div class=\"hapiHeaderText\">CMPerf_DuringED_EDendsOnEncStartTime <b>DENEXPASS </b></div><table class=\"hapiPropertyTable\"><tbody><tr><td>Identifier</td><td>8bdaf10da95f851378bfb130016c2122</td></tr><tr><td>Date of birth</td><td><span>02 January 1974</span></td></tr></tbody></table></div>"
      },
      "extension": [ {
        "url": "http://hl7.org/fhir/us/core/StructureDefinition/us-core-race",
        "extension": [ {
          "url": "ombCategory",
          "valueCoding": {
            "system": "urn:oid:2.16.840.1.113883.6.238",
            "code": "1002-5",
            "display": "American Indian or Alaska Native",
            "userSelected": true
          }
        }, {
          "url": "text",
          "valueString": "American Indian or Alaska Native"
        } ]
      }, {
        "url": "http://hl7.org/fhir/us/core/StructureDefinition/us-core-ethnicity",
        "extension": [ {
          "url": "ombCategory",
          "valueCoding": {
            "system": "urn:oid:2.16.840.1.113883.6.238",
            "code": "2135-2",
            "display": "Hispanic or Latino",
            "userSelected": true
          }
        }, {
          "url": "text",
          "valueString": "Hispanic or Latino"
        } ]
      } ],
      "identifier": [ {
        "type": {
          "coding": [ {
            "system": "http://terminology.hl7.org/CodeSystem/v2-0203",
            "code": "MR"
          } ]
        },
        "system": "https://bonnie-fhir.healthit.gov/",
        "value": "612e6ac002c62a011f2eb21c"
      } ],
      "active": true,
      "name": [ {
        "use": "usual",
        "family": "DENEXPass",
        "given": [ "CMPerfDuringEDEDendsOnEncStartTime" ]
      } ],
      "gender": "male",
      "birthDate": "1975-01-02"
    },
    "request": {
      "method": "PUT",
      "url": "Patient/900f47c2-3615-4ffe-a9e0-3e7e70469ffb"
    }
  }, {
    "fullUrl": "https://madie.cms.gov/Encounter/370af8e1-21a5-424a-b18c-b0fb06195633",
    "resource": {
      "resourceType": "Encounter",
      "id": "370af8e1-21a5-424a-b18c-b0fb06195633",
      "meta": {
        "profile": [ "http://hl7.org/fhir/us/qicore/StructureDefinition/qicore-encounter" ]
      },
      "status": "finished",
      "class": {
        "system": "http://terminology.hl7.org/CodeSystem/v3-ActCode",
        "code": "EMER",
        "display": "emergency"
      },
      "type": [ {
        "coding": [ {
          "system": "http://snomed.info/sct",
          "code": "4525004"
        } ]
      } ],
      "subject": {
        "reference": "Patient/900f47c2-3615-4ffe-a9e0-3e7e70469ffb"
      },
      "period": {
        "start": "2026-10-31T05:00:00.000+00:00",
        "end": "2026-11-01T08:00:00.000+00:00"
      },
      "length": {
        "value": 1,
        "unit": "days"
      }
    },
    "request": {
      "method": "PUT",
      "url": "Encounter/370af8e1-21a5-424a-b18c-b0fb06195633"
    }
  }, {
    "fullUrl": "https://madie.cms.gov/Encounter/8b7657cc-10fc-4554-bb12-be0e0a52e9a4",
    "resource": {
      "resourceType": "Encounter",
      "id": "8b7657cc-10fc-4554-bb12-be0e0a52e9a4",
      "meta": {
        "profile": [ "http://hl7.org/fhir/us/qicore/StructureDefinition/qicore-encounter" ]
      },
      "status": "finished",
      "class": {
        "system": "http://terminology.hl7.org/CodeSystem/v3-ActCode",
        "code": "IMP",
        "display": "inpatient encounter"
      },
      "type": [ {
        "coding": [ {
          "system": "http://snomed.info/sct",
          "code": "8715000"
        } ]
      } ],
      "subject": {
        "reference": "Patient/900f47c2-3615-4ffe-a9e0-3e7e70469ffb"
      },
      "period": {
        "start": "2026-11-01T08:00:00.000+00:00",
        "end": "2026-11-26T08:15:00.000+00:00"
      },
      "length": {
        "value": 25,
        "unit": "days"
      }
    },
    "request": {
      "method": "PUT",
      "url": "Encounter/8b7657cc-10fc-4554-bb12-be0e0a52e9a4"
    }
  }, {
    "fullUrl": "https://madie.cms.gov/Procedure/2e599a67-0f49-4467-8391-2f935e8f408d",
    "resource": {
      "resourceType": "Procedure",
      "id": "2e599a67-0f49-4467-8391-2f935e8f408d",
      "meta": {
        "profile": [ "http://hl7.org/fhir/us/qicore/StructureDefinition/qicore-procedure" ]
      },
      "extension": [ {
        "url": "http://hl7.org/fhir/us/qicore/StructureDefinition/qicore-recorded",
        "valueDateTime": "2013-11-01T13:35:00.000+00:00"
      } ],
      "status": "completed",
      "code": {
        "coding": [ {
          "system": "http://snomed.info/sct",
          "code": "133918004"
        } ]
      },
      "subject": {
        "reference": "Patient/900f47c2-3615-4ffe-a9e0-3e7e70469ffb"
      },
      "performedPeriod": {
        "start": "2026-10-31T07:00:00.000+00:00"
      }
    },
    "request": {
      "method": "PUT",
      "url": "Procedure/2e599a67-0f49-4467-8391-2f935e8f408d"
    }
  }, {
    "fullUrl": "https://madie.cms.gov/Coverage/4a41d05c-e3da-47ae-8f39-6ec19ec9c10e",
    "resource": {
      "resourceType": "Coverage",
      "id": "4a41d05c-e3da-47ae-8f39-6ec19ec9c10e",
      "status": "active",
      "beneficiary": {
        "reference": "Patient/900f47c2-3615-4ffe-a9e0-3e7e70469ffb"
      },
      "period": {
        "start": "1975-01-02T08:00:00.000+00:00"
      },
      "payor": [ {
        "reference": "Organization/f8439004-a253-439a-ad9a-c318932027cc"
      } ]
    },
    "request": {
      "method": "PUT",
      "url": "Coverage/4a41d05c-e3da-47ae-8f39-6ec19ec9c10e"
    }
  }, {
    "fullUrl": "https://madie.cms.gov/Organization/f8439004-a253-439a-ad9a-c318932027cc",
    "resource": {
      "resourceType": "Organization",
      "id": "f8439004-a253-439a-ad9a-c318932027cc",
      "meta": {
        "profile": [ "http://hl7.org/fhir/us/qicore/StructureDefinition/qicore-organization" ]
      },
      "identifier": [ {
        "use": "temp",
        "system": "urn:oid:2.16.840.1.113883.4.4",
        "value": "21-3259825"
      } ],
      "active": true,
      "type": [ {
        "coding": [ {
          "system": "http://terminology.hl7.org/CodeSystem/organization-type",
          "code": "pay",
          "display": "Payer"
        } ]
      } ],
      "name": "Blue Cross Blue Shield of Texas",
      "telecom": [ {
        "system": "phone",
        "value": "(+1) 972-766-6900"
      } ],
      "address": [ {
        "use": "billing",
        "type": "postal",
        "line": [ "P.O. Box 660044" ],
        "city": "Dallas",
        "state": "TX",
        "postalCode": "75266-0044",
        "country": "USA"
      } ]
    },
    "request": {
      "method": "PUT",
      "url": "Organization/f8439004-a253-439a-ad9a-c318932027cc"
    }
  }, {
    "fullUrl": "https://madie.cms.gov/Practitioner/07a4fa52-d85c-4cd6-bf0a-fe42f09c26cd",
    "resource": {
      "resourceType": "Practitioner",
      "id": "07a4fa52-d85c-4cd6-bf0a-fe42f09c26cd",
      "identifier": [ {
        "system": "http://hl7.org/fhir/sid/us-npi",
        "value": "123456"
      } ],
      "name": [ {
        "family": "Evil",
        "prefix": [ "Dr" ]
      } ]
    },
    "request": {
      "method": "PUT",
      "url": "Practitioner/07a4fa52-d85c-4cd6-bf0a-fe42f09c26cd"
    }
  }, {
    "fullUrl": "https://madie.cms.gov/MeasureReport/f65cedd3-4331-463f-b707-c3e2689b24e1",
    "resource": {
      "resourceType": "MeasureReport",
      "id": "f65cedd3-4331-463f-b707-c3e2689b24e1",
      "meta": {
        "profile": [ "http://hl7.org/fhir/us/cqfmeasures/StructureDefinition/test-case-cqfm" ]
      },
      "contained": [ {
        "resourceType": "Parameters",
        "id": "e118d38b-b696-43d2-bd52-52e893a7971a-parameters",
        "parameter": [ {
          "name": "subject",
          "valueString": "900f47c2-3615-4ffe-a9e0-3e7e70469ffb"
        } ]
      } ],
      "extension": [ {
        "url": "http://hl7.org/fhir/StructureDefinition/cqf-inputParameters",
        "valueReference": {
          "reference": "#e118d38b-b696-43d2-bd52-52e893a7971a-parameters"
        }
      }, {
        "url": "http://hl7.org/fhir/us/cqfmeasures/StructureDefinition/cqfm-testCaseDescription",
        "valueMarkdown": "Comfort Measures Intervention Performed- during ED and ED end time is concurrent with EncInp start time.\n"
      } ],
      "modifierExtension": [ {
        "url": "http://hl7.org/fhir/us/cqfmeasures/StructureDefinition/cqfm-isTestCase",
        "valueBoolean": true
      } ],
      "status": "complete",
      "type": "individual",
      "measure": "https://madie.cms.gov/Measure/CMS108FHIRVTEProphylaxis",
      "period": {
        "start": "2026-01-01",
        "end": "2026-12-31"
      },
      "group": [ {
        "id": "Group_1",
        "population": [ {
          "id": "InitialPopulation_1",
          "code": {
            "coding": [ {
              "system": "http://terminology.hl7.org/CodeSystem/measure-population",
              "code": "initial-population",
              "display": "Initial Population"
            } ]
          },
          "count": 1
        }, {
          "id": "Denominator_1",
          "code": {
            "coding": [ {
              "system": "http://terminology.hl7.org/CodeSystem/measure-population",
              "code": "denominator",
              "display": "Denominator"
            } ]
          },
          "count": 1
        }, {
          "id": "DenominatorExclusion_1",
          "code": {
            "coding": [ {
              "system": "http://terminology.hl7.org/CodeSystem/measure-population",
              "code": "denominator-exclusion",
              "display": "Denominator Exclusion"
            } ]
          },
          "count": 1
        }, {
          "id": "Numerator_1",
          "code": {
            "coding": [ {
              "system": "http://terminology.hl7.org/CodeSystem/measure-population",
              "code": "numerator",
              "display": "Numerator"
            } ]
          },
          "count": 0
        } ],
        "measureScore": {
          "value": 0.0
        }
      } ],
      "evaluatedResource": [ {
        "reference": "Patient/900f47c2-3615-4ffe-a9e0-3e7e70469ffb"
      }, {
        "reference": "Encounter/370af8e1-21a5-424a-b18c-b0fb06195633"
      }, {
        "reference": "Encounter/8b7657cc-10fc-4554-bb12-be0e0a52e9a4"
      }, {
        "reference": "Procedure/2e599a67-0f49-4467-8391-2f935e8f408d"
      }, {
        "reference": "Coverage/4a41d05c-e3da-47ae-8f39-6ec19ec9c10e"
      }, {
        "reference": "Organization/f8439004-a253-439a-ad9a-c318932027cc"
      }, {
        "reference": "Practitioner/07a4fa52-d85c-4cd6-bf0a-fe42f09c26cd"
      } ]
    },
    "request": {
      "method": "PUT",
      "url": "MeasureReport/f65cedd3-4331-463f-b707-c3e2689b24e1"
    }
  } ]
}