{
  "resourceType": "Bundle",
  "id": "63487c2f0968f801225401b2",
  "type": "transaction",
  "entry": [ {
    "fullUrl": "https://madie.cms.gov/Patient/c5af304c-319a-4b77-89e9-e51d5db99832",
    "resource": {
      "resourceType": "Patient",
      "id": "c5af304c-319a-4b77-89e9-e51d5db99832",
      "meta": {
        "profile": [ "http://hl7.org/fhir/us/qicore/StructureDefinition/qicore-patient" ]
      },
      "text": {
        "status": "generated",
        "div": "<div xmlns=\"http://www.w3.org/1999/xhtml\"><div class=\"hapiHeaderText\">NoEncDx<b>DENOMFail</b></div><table class=\"hapiPropertyTable\"><tbody><tr><td>Identifier</td><td>71189d70ba3427612f2a418107466ed1652ec9a0e76c1b9c30a1691a1d91b34c</td></tr><tr><td>Date of birth</td><td><span>14 February 1985</span></td></tr></tbody></table></div>"
      },
      "extension": [ {
        "url": "http://hl7.org/fhir/us/core/StructureDefinition/us-core-race",
        "extension": [ {
          "url": "ombCategory",
          "valueCoding": {
            "system": "urn:oid:2.16.840.1.113883.6.238",
            "code": "1002-5",
            "display": "American Indian or Alaska Native",
            "userSelected": true
          }
        }, {
          "url": "text",
          "valueString": "American Indian or Alaska Native"
        } ]
      }, {
        "url": "http://hl7.org/fhir/us/core/StructureDefinition/us-core-ethnicity",
        "extension": [ {
          "url": "ombCategory",
          "valueCoding": {
            "system": "urn:oid:2.16.840.1.113883.6.238",
            "code": "2135-2",
            "display": "Hispanic or Latino",
            "userSelected": true
          }
        }, {
          "url": "text",
          "valueString": "Hispanic or Latino"
        } ]
      } ],
      "identifier": [ {
        "type": {
          "coding": [ {
            "system": "http://terminology.hl7.org/CodeSystem/v2-0203",
            "code": "MR"
          } ]
        },
        "system": "https://bonnie-fhir.healthit.gov/",
        "value": "63487c2f0968f801225401b2"
      } ],
      "active": true,
      "name": [ {
        "use": "usual",
        "family": "DENOMFail",
        "given": [ "NoEncDx" ]
      } ],
      "gender": "female",
      "birthDate": "1998-02-14"
    },
    "request": {
      "method": "PUT",
      "url": "Patient/c5af304c-319a-4b77-89e9-e51d5db99832"
    }
  }, {
    "fullUrl": "https://madie.cms.gov/Observation/07504db5-2d25-4ac6-8f51-e76b8b3ef6eb",
    "resource": {
      "resourceType": "Observation",
      "id": "07504db5-2d25-4ac6-8f51-e76b8b3ef6eb",
      "meta": {
        "profile": [ "http://hl7.org/fhir/us/qicore/StructureDefinition/qicore-simple-observation" ]
      },
      "status": "final",
      "category": [ {
        "coding": [ {
          "system": "http://terminology.hl7.org/CodeSystem/observation-category",
          "code": "exam",
          "display": "exam",
          "userSelected": true
        } ]
      } ],
      "code": {
        "coding": [ {
          "system": "http://loinc.org",
          "code": "11996-6"
        } ]
      },
      "subject": {
        "reference": "Patient/c5af304c-319a-4b77-89e9-e51d5db99832"
      },
      "effectiveDateTime": "2026-02-09T08:00:00.000+00:00",
      "performer": [ {
        "reference": "Organization/example1",
        "display": "Hendricks Country Hospital"
      } ],
      "valueInteger": 1
    },
    "request": {
      "method": "PUT",
      "url": "Observation/07504db5-2d25-4ac6-8f51-e76b8b3ef6eb"
    }
  }, {
    "fullUrl": "https://madie.cms.gov/Observation/3409e507-cebd-4e42-9409-45c62227c40d",
    "resource": {
      "resourceType": "Observation",
      "id": "3409e507-cebd-4e42-9409-45c62227c40d",
      "meta": {
        "profile": [ "http://hl7.org/fhir/us/qicore/StructureDefinition/qicore-simple-observation" ]
      },
      "status": "final",
      "category": [ {
        "coding": [ {
          "system": "http://terminology.hl7.org/CodeSystem/observation-category",
          "code": "exam",
          "display": "exam",
          "userSelected": true
        } ]
      } ],
      "code": {
        "coding": [ {
          "system": "http://loinc.org",
          "code": "11884-4"
        } ]
      },
      "subject": {
        "reference": "Patient/c5af304c-319a-4b77-89e9-e51d5db99832"
      },
      "effectiveDateTime": "2026-11-28T21:15:00.000+00:00",
      "performer": [ {
        "reference": "Organization/example1",
        "display": "Hendricks Country Hospital"
      } ],
      "valueQuantity": {
        "value": 40,
        "system": "http://unitsofmeasure.org",
        "code": "wk"
      }
    },
    "request": {
      "method": "PUT",
      "url": "Observation/3409e507-cebd-4e42-9409-45c62227c40d"
    }
  }, {
    "fullUrl": "https://madie.cms.gov/Observation/ac37c5c6-50da-4c5d-a9cf-43af78e230c8",
    "resource": {
      "resourceType": "Observation",
      "id": "ac37c5c6-50da-4c5d-a9cf-43af78e230c8",
      "meta": {
        "profile": [ "http://hl7.org/fhir/us/qicore/StructureDefinition/qicore-simple-observation" ]
      },
      "status": "final",
      "category": [ {
        "coding": [ {
          "system": "http://terminology.hl7.org/CodeSystem/observation-category",
          "code": "exam",
          "display": "exam",
          "userSelected": true
        } ]
      } ],
      "code": {
        "coding": [ {
          "system": "http://loinc.org",
          "code": "93857-1"
        } ]
      },
      "subject": {
        "reference": "Patient/c5af304c-319a-4b77-89e9-e51d5db99832"
      },
      "effectiveDateTime": "2026-11-28T21:15:00.000+00:00",
      "performer": [ {
        "reference": "Organization/example1",
        "display": "Hendricks Country Hospital"
      } ],
      "valueDateTime": "2026-11-28T21:15:00.000+00:00"
    },
    "request": {
      "method": "PUT",
      "url": "Observation/ac37c5c6-50da-4c5d-a9cf-43af78e230c8"
    }
  }, {
    "fullUrl": "https://madie.cms.gov/Encounter/fc39cfc6-fbff-47b1-96d6-d2846896140e",
    "resource": {
      "resourceType": "Encounter",
      "id": "fc39cfc6-fbff-47b1-96d6-d2846896140e",
      "meta": {
        "profile": [ "http://hl7.org/fhir/us/qicore/StructureDefinition/qicore-encounter" ]
      },
      "status": "finished",
      "class": {
        "system": "http://terminology.hl7.org/CodeSystem/v3-ActCode",
        "code": "IMP",
        "display": "inpatient encounter"
      },
      "type": [ {
        "coding": [ {
          "system": "http://snomed.info/sct",
          "code": "8715000"
        } ]
      } ],
      "subject": {
        "reference": "Patient/c5af304c-319a-4b77-89e9-e51d5db99832"
      },
      "period": {
        "start": "2026-11-28T08:00:00.000+00:00",
        "end": "2026-11-30T08:15:00.000+00:00"
      },
      "length": {
        "value": 2,
        "unit": "days"
      }
    },
    "request": {
      "method": "PUT",
      "url": "Encounter/fc39cfc6-fbff-47b1-96d6-d2846896140e"
    }
  }, {
    "fullUrl": "https://madie.cms.gov/Procedure/fa5e013f-533c-46cd-89ff-9fdaf8758c79",
    "resource": {
      "resourceType": "Procedure",
      "id": "fa5e013f-533c-46cd-89ff-9fdaf8758c79",
      "meta": {
        "profile": [ "http://hl7.org/fhir/us/qicore/StructureDefinition/qicore-procedure" ]
      },
      "extension": [ {
        "url": "http://hl7.org/fhir/us/qicore/StructureDefinition/qicore-recorded",
        "valueDateTime": "2014-04-05T13:35:00.000+00:00"
      } ],
      "status": "completed",
      "code": {
        "coding": [ {
          "system": "http://snomed.info/sct",
          "code": "22633006"
        } ]
      },
      "subject": {
        "reference": "Patient/c5af304c-319a-4b77-89e9-e51d5db99832"
      },
      "performedPeriod": {
        "start": "2026-11-28T20:00:00.000+00:00",
        "end": "2026-11-28T20:15:00.000+00:00"
      }
    },
    "request": {
      "method": "PUT",
      "url": "Procedure/fa5e013f-533c-46cd-89ff-9fdaf8758c79"
    }
  }, {
    "fullUrl": "https://madie.cms.gov/Coverage/d46a295b-da62-4f55-bd88-8e64ecce0f5e",
    "resource": {
      "resourceType": "Coverage",
      "id": "d46a295b-da62-4f55-bd88-8e64ecce0f5e",
      "meta": {
        "profile": [ "http://hl7.org/fhir/us/qicore/StructureDefinition/qicore-coverage" ]
      },
      "status": "active",
      "subscriberId": "523435",
      "beneficiary": {
        "reference": "Patient/c5af304c-319a-4b77-89e9-e51d5db99832"
      },
      "relationship": {
        "coding": [ {
          "system": "http://terminology.hl7.org/CodeSystem/subscriber-relationship",
          "code": "self"
        } ]
      },
      "payor": [ {
        "reference": "Organization/88bfc4a9-a48f-4411-be53-c693100155be"
      } ]
    },
    "request": {
      "method": "PUT",
      "url": "Coverage/d46a295b-da62-4f55-bd88-8e64ecce0f5e"
    }
  }, {
    "fullUrl": "https://madie.cms.gov/Organization/88bfc4a9-a48f-4411-be53-c693100155be",
    "resource": {
      "resourceType": "Organization",
      "id": "88bfc4a9-a48f-4411-be53-c693100155be",
      "meta": {
        "profile": [ "http://hl7.org/fhir/us/qicore/StructureDefinition/qicore-organization" ]
      },
      "identifier": [ {
        "use": "temp",
        "system": "urn:oid:2.16.840.1.113883.4.4",
        "value": "21-3259825"
      } ],
      "active": true,
      "type": [ {
        "coding": [ {
          "system": "http://terminology.hl7.org/CodeSystem/organization-type",
          "code": "pay",
          "display": "Payer"
        } ]
      } ],
      "name": "Blue Cross Blue Shield of Texas",
      "telecom": [ {
        "system": "phone",
        "value": "(+1) 972-766-6900"
      } ],
      "address": [ {
        "use": "billing",
        "type": "postal",
        "line": [ "P.O. Box 660044" ],
        "city": "Dallas",
        "state": "TX",
        "postalCode": "75266-0044",
        "country": "USA"
      } ]
    },
    "request": {
      "method": "PUT",
      "url": "Organization/88bfc4a9-a48f-4411-be53-c693100155be"
    }
  }, {
    "fullUrl": "https://madie.cms.gov/Practitioner/b35d5e8e-8131-49cb-9e03-db4098434adc",
    "resource": {
      "resourceType": "Practitioner",
      "id": "b35d5e8e-8131-49cb-9e03-db4098434adc",
      "meta": {
        "profile": [ "http://hl7.org/fhir/us/qicore/StructureDefinition/qicore-practitioner" ]
      },
      "identifier": [ {
        "system": "http://hl7.org/fhir/sid/us-npi",
        "value": "1234567890"
      } ],
      "name": [ {
        "family": "Evil",
        "prefix": [ "Dr" ]
      } ]
    },
    "request": {
      "method": "PUT",
      "url": "Practitioner/b35d5e8e-8131-49cb-9e03-db4098434adc"
    }
  }, {
    "fullUrl": "https://madie.cms.gov/MeasureReport/6a8f3056-2bb4-4c45-bd9c-a439456d2fc3",
    "resource": {
      "resourceType": "MeasureReport",
      "id": "6a8f3056-2bb4-4c45-bd9c-a439456d2fc3",
      "meta": {
        "profile": [ "http://hl7.org/fhir/us/cqfmeasures/StructureDefinition/test-case-cqfm" ]
      },
      "contained": [ {
        "resourceType": "Parameters",
        "id": "a581b117-4b38-471d-bfa6-38056f2016ab-parameters",
        "parameter": [ {
          "name": "subject",
          "valueString": "c5af304c-319a-4b77-89e9-e51d5db99832"
        } ]
      } ],
      "extension": [ {
        "url": "http://hl7.org/fhir/StructureDefinition/cqf-inputParameters",
        "valueReference": {
          "reference": "#a581b117-4b38-471d-bfa6-38056f2016ab-parameters"
        }
      }, {
        "url": "http://hl7.org/fhir/us/cqfmeasures/StructureDefinition/cqfm-testCaseDescription",
        "valueMarkdown": "Passes IP, Fails DENOM and fails NUM; Gravida 1(auth 42 weeks)  and EGA 40 weeks;  No EncDx for Singleton Birth \n"
      } ],
      "modifierExtension": [ {
        "url": "http://hl7.org/fhir/us/cqfmeasures/StructureDefinition/cqfm-isTestCase",
        "valueBoolean": true
      } ],
      "status": "complete",
      "type": "individual",
      "measure": "https://madie.cms.gov/Measure/CMS0334FHIRPCCesareanBirth",
      "period": {
        "start": "2026-01-01",
        "end": "2026-12-31"
      },
      "group": [ {
        "id": "Group_1",
        "population": [ {
          "id": "InitialPopulation_1",
          "code": {
            "coding": [ {
              "system": "http://terminology.hl7.org/CodeSystem/measure-population",
              "code": "initial-population",
              "display": "Initial Population"
            } ]
          },
          "count": 1
        }, {
          "id": "Denominator_1",
          "code": {
            "coding": [ {
              "system": "http://terminology.hl7.org/CodeSystem/measure-population",
              "code": "denominator",
              "display": "Denominator"
            } ]
          },
          "count": 0
        }, {
          "id": "DenominatorExclusion_1",
          "code": {
            "coding": [ {
              "system": "http://terminology.hl7.org/CodeSystem/measure-population",
              "code": "denominator-exclusion",
              "display": "Denominator Exclusion"
            } ]
          },
          "count": 0
        }, {
          "id": "Numerator_1",
          "code": {
            "coding": [ {
              "system": "http://terminology.hl7.org/CodeSystem/measure-population",
              "code": "numerator",
              "display": "Numerator"
            } ]
          },
          "count": 0
        } ],
        "measureScore": {
          "value": 0.0
        }
      } ],
      "evaluatedResource": [ {
        "reference": "Patient/c5af304c-319a-4b77-89e9-e51d5db99832"
      }, {
        "reference": "Observation/07504db5-2d25-4ac6-8f51-e76b8b3ef6eb"
      }, {
        "reference": "Observation/3409e507-cebd-4e42-9409-45c62227c40d"
      }, {
        "reference": "Observation/ac37c5c6-50da-4c5d-a9cf-43af78e230c8"
      }, {
        "reference": "Encounter/fc39cfc6-fbff-47b1-96d6-d2846896140e"
      }, {
        "reference": "Procedure/fa5e013f-533c-46cd-89ff-9fdaf8758c79"
      }, {
        "reference": "Coverage/d46a295b-da62-4f55-bd88-8e64ecce0f5e"
      }, {
        "reference": "Organization/88bfc4a9-a48f-4411-be53-c693100155be"
      }, {
        "reference": "Practitioner/b35d5e8e-8131-49cb-9e03-db4098434adc"
      } ]
    },
    "request": {
      "method": "PUT",
      "url": "MeasureReport/6a8f3056-2bb4-4c45-bd9c-a439456d2fc3"
    }
  } ]
}