{
  "resourceType": "Bundle",
  "id": "60f82c2e98086b570510e27a",
  "type": "transaction",
  "entry": [ {
    "fullUrl": "https://madie.cms.gov/Patient/29e634bc-c361-4e6b-a44e-444abb79b2de",
    "resource": {
      "resourceType": "Patient",
      "id": "29e634bc-c361-4e6b-a44e-444abb79b2de",
      "meta": {
        "profile": [ "http://hl7.org/fhir/us/qicore/StructureDefinition/qicore-patient" ]
      },
      "text": {
        "status": "generated",
        "div": "<div xmlns=\"http://www.w3.org/1999/xhtml\"><div class=\"hapiHeaderText\">LOS&lt;2Days_ED_gt1hr_2 <b>DENEXPASS </b></div><table class=\"hapiPropertyTable\"><tbody><tr><td>Identifier</td><td>71a24a00126a8944cc0e0ccb3825c293</td></tr><tr><td>Date of birth</td><td><span>26 September 1975</span></td></tr></tbody></table></div>"
      },
      "extension": [ {
        "url": "http://hl7.org/fhir/us/core/StructureDefinition/us-core-race",
        "extension": [ {
          "url": "ombCategory",
          "valueCoding": {
            "system": "urn:oid:2.16.840.1.113883.6.238",
            "code": "2054-5",
            "display": "Black or African American",
            "userSelected": true
          }
        }, {
          "url": "text",
          "valueString": "Black or African American"
        } ]
      }, {
        "url": "http://hl7.org/fhir/us/core/StructureDefinition/us-core-ethnicity",
        "extension": [ {
          "url": "ombCategory",
          "valueCoding": {
            "system": "urn:oid:2.16.840.1.113883.6.238",
            "code": "2186-5",
            "display": "Not Hispanic or Latino",
            "userSelected": true
          }
        }, {
          "url": "text",
          "valueString": "Not Hispanic or Latino"
        } ]
      } ],
      "identifier": [ {
        "type": {
          "coding": [ {
            "system": "http://terminology.hl7.org/CodeSystem/v2-0203",
            "code": "MR"
          } ]
        },
        "system": "https://bonnie-fhir.healthit.gov/",
        "value": "60f82c2e98086b570510e27a"
      } ],
      "active": true,
      "name": [ {
        "use": "usual",
        "family": "DENEXPass",
        "given": [ "LOS<2DaysEDgt1hr2" ]
      } ],
      "gender": "female",
      "birthDate": "1976-09-26"
    },
    "request": {
      "method": "PUT",
      "url": "Patient/29e634bc-c361-4e6b-a44e-444abb79b2de"
    }
  }, {
    "fullUrl": "https://madie.cms.gov/Encounter/3897205e-39c1-4a8f-bba0-8912987504cc",
    "resource": {
      "resourceType": "Encounter",
      "id": "3897205e-39c1-4a8f-bba0-8912987504cc",
      "meta": {
        "profile": [ "http://hl7.org/fhir/us/qicore/StructureDefinition/qicore-encounter" ]
      },
      "status": "finished",
      "class": {
        "system": "http://terminology.hl7.org/CodeSystem/v3-ActCode",
        "code": "EMER",
        "display": "emergency"
      },
      "type": [ {
        "coding": [ {
          "system": "http://snomed.info/sct",
          "code": "4525004"
        } ]
      } ],
      "subject": {
        "reference": "Patient/29e634bc-c361-4e6b-a44e-444abb79b2de"
      },
      "period": {
        "start": "2026-10-09T06:00:00.000+00:00",
        "end": "2026-10-10T07:15:00.000+00:00"
      },
      "length": {
        "value": 1,
        "unit": "days"
      }
    },
    "request": {
      "method": "PUT",
      "url": "Encounter/3897205e-39c1-4a8f-bba0-8912987504cc"
    }
  }, {
    "fullUrl": "https://madie.cms.gov/Encounter/4109cc3a-5bc8-480e-b972-60e8f7603674",
    "resource": {
      "resourceType": "Encounter",
      "id": "4109cc3a-5bc8-480e-b972-60e8f7603674",
      "meta": {
        "profile": [ "http://hl7.org/fhir/us/qicore/StructureDefinition/qicore-encounter" ]
      },
      "status": "finished",
      "class": {
        "system": "http://terminology.hl7.org/CodeSystem/v3-ActCode",
        "code": "IMP",
        "display": "inpatient encounter"
      },
      "type": [ {
        "coding": [ {
          "system": "http://snomed.info/sct",
          "code": "32485007"
        } ]
      } ],
      "subject": {
        "reference": "Patient/29e634bc-c361-4e6b-a44e-444abb79b2de"
      },
      "period": {
        "start": "2026-10-10T09:00:00.000+00:00",
        "end": "2026-10-11T11:30:00.000+00:00"
      },
      "length": {
        "value": 1,
        "unit": "days"
      },
      "reasonReference": [ {
        "reference": "Condition/182229dc-a650-444a-bd34-c097fabb8cf2"
      } ]
    },
    "request": {
      "method": "PUT",
      "url": "Encounter/4109cc3a-5bc8-480e-b972-60e8f7603674"
    }
  }, {
    "fullUrl": "https://madie.cms.gov/MedicationAdministration/16edb083-6ede-4b0f-b765-38ab08141a88",
    "resource": {
      "resourceType": "MedicationAdministration",
      "id": "16edb083-6ede-4b0f-b765-38ab08141a88",
      "meta": {
        "profile": [ "http://hl7.org/fhir/us/qicore/StructureDefinition/qicore-medicationadministration" ]
      },
      "status": "completed",
      "medicationCodeableConcept": {
        "coding": [ {
          "system": "http://www.nlm.nih.gov/research/umls/rxnorm",
          "code": "198466"
        } ]
      },
      "subject": {
        "reference": "Patient/29e634bc-c361-4e6b-a44e-444abb79b2de"
      },
      "effectivePeriod": {
        "start": "2026-10-10T06:00:00.000+00:00",
        "end": "2026-10-10T07:15:00.000+00:00"
      }
    },
    "request": {
      "method": "PUT",
      "url": "MedicationAdministration/16edb083-6ede-4b0f-b765-38ab08141a88"
    }
  }, {
    "fullUrl": "https://madie.cms.gov/Coverage/a2412f10-6da6-4186-b435-38c5ee1a6d8d",
    "resource": {
      "resourceType": "Coverage",
      "id": "a2412f10-6da6-4186-b435-38c5ee1a6d8d",
      "status": "active",
      "beneficiary": {
        "reference": "Patient/29e634bc-c361-4e6b-a44e-444abb79b2de"
      },
      "period": {
        "start": "1976-09-26T08:00:00.000+00:00"
      },
      "payor": [ {
        "reference": "Organization/f2489dcb-9ae4-4cac-9c61-bcd4ccbde476"
      } ]
    },
    "request": {
      "method": "PUT",
      "url": "Coverage/a2412f10-6da6-4186-b435-38c5ee1a6d8d"
    }
  }, {
    "fullUrl": "https://madie.cms.gov/Condition/182229dc-a650-444a-bd34-c097fabb8cf2",
    "resource": {
      "resourceType": "Condition",
      "id": "182229dc-a650-444a-bd34-c097fabb8cf2",
      "meta": {
        "profile": [ "http://hl7.org/fhir/us/qicore/StructureDefinition/qicore-condition-encounter-diagnosis" ]
      },
      "clinicalStatus": {
        "coding": [ {
          "system": "http://terminology.hl7.org/CodeSystem/condition-clinical",
          "code": "active"
        } ]
      },
      "verificationStatus": {
        "coding": [ {
          "system": "http://terminology.hl7.org/CodeSystem/condition-ver-status",
          "code": "confirmed"
        } ]
      },
      "category": [ {
        "coding": [ {
          "system": "http://terminology.hl7.org/CodeSystem/condition-category",
          "code": "encounter-diagnosis",
          "display": "Encounter Diagnosis"
        } ]
      } ],
      "code": {
        "coding": [ {
          "system": "http://snomed.info/sct",
          "version": "2020-09",
          "code": "111297002",
          "display": "Nonparalytic stroke (disorder)",
          "userSelected": true
        } ]
      },
      "subject": {
        "reference": "Patient/29e634bc-c361-4e6b-a44e-444abb79b2de"
      },
      "encounter": {
        "reference": "Encounter/4109cc3a-5bc8-480e-b972-60e8f7603674"
      },
      "recordedDate": "2026-08-13T08:00:00.000+00:00"
    },
    "request": {
      "method": "PUT",
      "url": "Condition/182229dc-a650-444a-bd34-c097fabb8cf2"
    }
  }, {
    "fullUrl": "https://madie.cms.gov/claim/5ca62962b8484628b8de1ec5",
    "resource": {
      "resourceType": "Claim",
      "id": "5ca62962b8484628b8de1ec5",
      "meta": {
        "profile": [ "http://hl7.org/fhir/us/qicore/StructureDefinition/qicore-claim" ]
      },
      "status": "active",
      "type": {
        "coding": [ {
          "system": "http://terminology.hl7.org/CodeSystem/claim-type",
          "code": "institutional"
        } ]
      },
      "use": "claim",
      "patient": {
        "reference": "Patient/29e634bc-c361-4e6b-a44e-444abb79b2de"
      },
      "created": "2026-12-01",
      "provider": {
        "reference": "Practitioner/practitioner-123456"
      },
      "priority": {
        "coding": [ {
          "system": "http://terminology.hl7.org/CodeSystem/processpriority",
          "code": "normal"
        } ]
      },
      "diagnosis": [ {
        "sequence": 1,
        "diagnosisCodeableConcept": {
          "coding": [ {
            "system": "http://hl7.org/fhir/sid/icd-10-cm",
            "code": "I63.00"
          } ]
        },
        "type": [ {
          "coding": [ {
            "system": "http://terminology.hl7.org/CodeSystem/ex-diagnosistype",
            "code": "principal"
          } ]
        } ]
      } ],
      "insurance": [ {
        "sequence": 1,
        "focal": true,
        "coverage": {
          "reference": "Coverage/5fa041661c76ba66d9959367"
        }
      } ],
      "item": [ {
        "sequence": 1,
        "diagnosisSequence": [ 1 ],
        "productOrService": {
          "coding": [ {
            "system": "http://terminology.hl7.org/CodeSystem/ex-USCLS",
            "code": "99555"
          } ]
        },
        "encounter": [ {
          "reference": "Encounter/4109cc3a-5bc8-480e-b972-60e8f7603674"
        } ]
      } ]
    },
    "request": {
      "method": "PUT",
      "url": "Claim/5ca62962b8484628b8de1ec5"
    }
  }, {
    "fullUrl": "https://madie.cms.gov/Organization/f2489dcb-9ae4-4cac-9c61-bcd4ccbde476",
    "resource": {
      "resourceType": "Organization",
      "id": "f2489dcb-9ae4-4cac-9c61-bcd4ccbde476",
      "meta": {
        "profile": [ "http://hl7.org/fhir/us/qicore/StructureDefinition/qicore-organization" ]
      },
      "identifier": [ {
        "use": "temp",
        "system": "urn:oid:2.16.840.1.113883.4.4",
        "value": "21-3259825"
      } ],
      "active": true,
      "type": [ {
        "coding": [ {
          "system": "http://terminology.hl7.org/CodeSystem/organization-type",
          "code": "pay",
          "display": "Payer"
        } ]
      } ],
      "name": "Blue Cross Blue Shield of Texas",
      "telecom": [ {
        "system": "phone",
        "value": "(+1) 972-766-6900"
      } ],
      "address": [ {
        "use": "billing",
        "type": "postal",
        "line": [ "P.O. Box 660044" ],
        "city": "Dallas",
        "state": "TX",
        "postalCode": "75266-0044",
        "country": "USA"
      } ]
    },
    "request": {
      "method": "PUT",
      "url": "Organization/f2489dcb-9ae4-4cac-9c61-bcd4ccbde476"
    }
  }, {
    "fullUrl": "https://madie.cms.gov/MeasureReport/83416e1e-558b-4c4e-b9dd-ca2fc8195d30",
    "resource": {
      "resourceType": "MeasureReport",
      "id": "83416e1e-558b-4c4e-b9dd-ca2fc8195d30",
      "meta": {
        "profile": [ "http://hl7.org/fhir/us/cqfmeasures/StructureDefinition/test-case-cqfm" ]
      },
      "contained": [ {
        "resourceType": "Parameters",
        "id": "d0208573-6693-4624-af3d-e5077de492c6-parameters",
        "parameter": [ {
          "name": "subject",
          "valueString": "29e634bc-c361-4e6b-a44e-444abb79b2de"
        } ]
      } ],
      "extension": [ {
        "url": "http://hl7.org/fhir/StructureDefinition/cqf-inputParameters",
        "valueReference": {
          "reference": "#d0208573-6693-4624-af3d-e5077de492c6-parameters"
        }
      }, {
        "url": "http://hl7.org/fhir/us/cqfmeasures/StructureDefinition/cqfm-testCaseDescription",
        "valueMarkdown": "\"LOS<2 days, Patient has ED end to Enc IP > 1 hour \nglobal.Hospitalization ( IP only)\"\n"
      } ],
      "modifierExtension": [ {
        "url": "http://hl7.org/fhir/us/cqfmeasures/StructureDefinition/cqfm-isTestCase",
        "valueBoolean": true
      } ],
      "status": "complete",
      "type": "individual",
      "measure": "https://madie.cms.gov/Measure/CMS72FHIRSTKAntithromboticDay2",
      "period": {
        "start": "2026-01-01",
        "end": "2026-12-31"
      },
      "group": [ {
        "id": "Group_1",
        "population": [ {
          "id": "InitialPopulation_1",
          "code": {
            "coding": [ {
              "system": "http://terminology.hl7.org/CodeSystem/measure-population",
              "code": "initial-population",
              "display": "Initial Population"
            } ]
          },
          "count": 1
        }, {
          "id": "Denominator_1",
          "code": {
            "coding": [ {
              "system": "http://terminology.hl7.org/CodeSystem/measure-population",
              "code": "denominator",
              "display": "Denominator"
            } ]
          },
          "count": 1
        }, {
          "id": "DenominatorExclusion_1",
          "code": {
            "coding": [ {
              "system": "http://terminology.hl7.org/CodeSystem/measure-population",
              "code": "denominator-exclusion",
              "display": "Denominator Exclusion"
            } ]
          },
          "count": 1
        }, {
          "id": "Numerator_1",
          "code": {
            "coding": [ {
              "system": "http://terminology.hl7.org/CodeSystem/measure-population",
              "code": "numerator",
              "display": "Numerator"
            } ]
          },
          "count": 0
        }, {
          "id": "DenominatorException_1",
          "code": {
            "coding": [ {
              "system": "http://terminology.hl7.org/CodeSystem/measure-population",
              "code": "denominator-exception",
              "display": "Denominator Exception"
            } ]
          },
          "count": 0
        } ],
        "measureScore": {
          "value": 0.0
        }
      } ],
      "evaluatedResource": [ {
        "reference": "Patient/29e634bc-c361-4e6b-a44e-444abb79b2de"
      }, {
        "reference": "Encounter/3897205e-39c1-4a8f-bba0-8912987504cc"
      }, {
        "reference": "Encounter/4109cc3a-5bc8-480e-b972-60e8f7603674"
      }, {
        "reference": "MedicationAdministration/16edb083-6ede-4b0f-b765-38ab08141a88"
      }, {
        "reference": "Coverage/a2412f10-6da6-4186-b435-38c5ee1a6d8d"
      }, {
        "reference": "Condition/182229dc-a650-444a-bd34-c097fabb8cf2"
      }, {
        "reference": "Claim/5ca62962b8484628b8de1ec5"
      }, {
        "reference": "Organization/f2489dcb-9ae4-4cac-9c61-bcd4ccbde476"
      } ]
    },
    "request": {
      "method": "PUT",
      "url": "MeasureReport/83416e1e-558b-4c4e-b9dd-ca2fc8195d30"
    }
  } ]
}