{
  "resourceType": "Bundle",
  "id": "63487c300968f801225401c2",
  "type": "transaction",
  "entry": [ {
    "fullUrl": "https://madie.cms.gov/Patient/acd8399d-1cc5-423e-95f5-27969e479297",
    "resource": {
      "resourceType": "Patient",
      "id": "acd8399d-1cc5-423e-95f5-27969e479297",
      "meta": {
        "profile": [ "http://hl7.org/fhir/us/qicore/StructureDefinition/qicore-patient" ]
      },
      "text": {
        "status": "generated",
        "div": "<div xmlns=\"http://www.w3.org/1999/xhtml\"><div class=\"hapiHeaderText\">BadBirthDate<b>IPOPFail</b></div><table class=\"hapiPropertyTable\"><tbody><tr><td>Identifier</td><td>d130de5f4e42b38bd935fc8ebcd660c0e5f442917fd322d307794dfacd0563d2</td></tr><tr><td>Date of birth</td><td><span>14 February 1899</span></td></tr></tbody></table></div>"
      },
      "extension": [ {
        "url": "http://hl7.org/fhir/us/core/StructureDefinition/us-core-race",
        "extension": [ {
          "url": "ombCategory",
          "valueCoding": {
            "system": "urn:oid:2.16.840.1.113883.6.238",
            "code": "1002-5",
            "display": "American Indian or Alaska Native",
            "userSelected": true
          }
        }, {
          "url": "text",
          "valueString": "American Indian or Alaska Native"
        } ]
      }, {
        "url": "http://hl7.org/fhir/us/core/StructureDefinition/us-core-ethnicity",
        "extension": [ {
          "url": "ombCategory",
          "valueCoding": {
            "system": "urn:oid:2.16.840.1.113883.6.238",
            "code": "2135-2",
            "display": "Hispanic or Latino",
            "userSelected": true
          }
        }, {
          "url": "text",
          "valueString": "Hispanic or Latino"
        } ]
      } ],
      "identifier": [ {
        "type": {
          "coding": [ {
            "system": "http://terminology.hl7.org/CodeSystem/v2-0203",
            "code": "MR"
          } ]
        },
        "system": "https://bonnie-fhir.healthit.gov/",
        "value": "63487c300968f801225401c2"
      } ],
      "active": true,
      "name": [ {
        "use": "usual",
        "family": "IPOPFail",
        "given": [ "BadBirthDate" ]
      } ],
      "gender": "female",
      "birthDate": "1899-02-14"
    },
    "request": {
      "method": "PUT",
      "url": "Patient/acd8399d-1cc5-423e-95f5-27969e479297"
    }
  }, {
    "fullUrl": "https://madie.cms.gov/Encounter/104d261b-bfe7-4f7e-a2d2-572a75a76f62",
    "resource": {
      "resourceType": "Encounter",
      "id": "104d261b-bfe7-4f7e-a2d2-572a75a76f62",
      "meta": {
        "profile": [ "http://hl7.org/fhir/us/qicore/StructureDefinition/qicore-encounter" ]
      },
      "status": "finished",
      "class": {
        "system": "http://terminology.hl7.org/CodeSystem/v3-ActCode",
        "code": "IMP",
        "display": "inpatient encounter"
      },
      "type": [ {
        "coding": [ {
          "system": "http://snomed.info/sct",
          "code": "8715000"
        } ]
      } ],
      "subject": {
        "reference": "Patient/acd8399d-1cc5-423e-95f5-27969e479297"
      },
      "period": {
        "start": "2026-11-28T08:00:00.000+00:00",
        "end": "2026-11-30T08:15:00.000+00:00"
      },
      "reasonCode": [ {
        "coding": [ {
          "system": "http://snomed.info/sct",
          "code": "169826009",
          "display": "Single live birth from singleton pregnancy (finding)"
        } ]
      } ]
    },
    "request": {
      "method": "PUT",
      "url": "Encounter/104d261b-bfe7-4f7e-a2d2-572a75a76f62"
    }
  }, {
    "fullUrl": "https://madie.cms.gov/Procedure/b9e3510e-7414-474d-8b72-764017fc61db",
    "resource": {
      "resourceType": "Procedure",
      "id": "b9e3510e-7414-474d-8b72-764017fc61db",
      "meta": {
        "profile": [ "http://hl7.org/fhir/us/qicore/StructureDefinition/qicore-procedure" ]
      },
      "extension": [ {
        "url": "http://hl7.org/fhir/us/qicore/StructureDefinition/qicore-recorded",
        "valueDateTime": "2014-04-05T13:35:00.000+00:00"
      } ],
      "status": "completed",
      "code": {
        "coding": [ {
          "system": "http://www.cms.gov/Medicare/Coding/ICD10",
          "code": "10D00Z0"
        } ]
      },
      "subject": {
        "reference": "Patient/acd8399d-1cc5-423e-95f5-27969e479297"
      },
      "performedPeriod": {
        "start": "2026-11-28T20:00:00.000+00:00",
        "end": "2026-11-28T20:15:00.000+00:00"
      }
    },
    "request": {
      "method": "PUT",
      "url": "Procedure/b9e3510e-7414-474d-8b72-764017fc61db"
    }
  }, {
    "fullUrl": "https://madie.cms.gov/Coverage/61d70046-88c8-4879-911a-b7c4f153babf",
    "resource": {
      "resourceType": "Coverage",
      "id": "61d70046-88c8-4879-911a-b7c4f153babf",
      "meta": {
        "profile": [ "http://hl7.org/fhir/us/qicore/StructureDefinition/qicore-coverage" ]
      },
      "status": "active",
      "subscriberId": "523435",
      "beneficiary": {
        "reference": "Patient/acd8399d-1cc5-423e-95f5-27969e479297"
      },
      "relationship": {
        "coding": [ {
          "system": "http://terminology.hl7.org/CodeSystem/subscriber-relationship",
          "code": "self"
        } ]
      },
      "payor": [ {
        "reference": "Organization/86f6d4ff-4a10-412b-8d21-12766f263d27"
      } ]
    },
    "request": {
      "method": "PUT",
      "url": "Coverage/61d70046-88c8-4879-911a-b7c4f153babf"
    }
  }, {
    "fullUrl": "https://madie.cms.gov/Organization/86f6d4ff-4a10-412b-8d21-12766f263d27",
    "resource": {
      "resourceType": "Organization",
      "id": "86f6d4ff-4a10-412b-8d21-12766f263d27",
      "meta": {
        "profile": [ "http://hl7.org/fhir/us/qicore/StructureDefinition/qicore-organization" ]
      },
      "identifier": [ {
        "use": "temp",
        "system": "urn:oid:2.16.840.1.113883.4.4",
        "value": "21-3259825"
      } ],
      "active": true,
      "type": [ {
        "coding": [ {
          "system": "http://terminology.hl7.org/CodeSystem/organization-type",
          "code": "pay",
          "display": "Payer"
        } ]
      } ],
      "name": "Blue Cross Blue Shield of Texas",
      "telecom": [ {
        "system": "phone",
        "value": "(+1) 972-766-6900"
      } ],
      "address": [ {
        "use": "billing",
        "type": "postal",
        "line": [ "P.O. Box 660044" ],
        "city": "Dallas",
        "state": "TX",
        "postalCode": "75266-0044",
        "country": "USA"
      } ]
    },
    "request": {
      "method": "PUT",
      "url": "Organization/86f6d4ff-4a10-412b-8d21-12766f263d27"
    }
  }, {
    "fullUrl": "https://madie.cms.gov/Practitioner/f4b46940-b0ba-421b-a8a8-954c7d2578a8",
    "resource": {
      "resourceType": "Practitioner",
      "id": "f4b46940-b0ba-421b-a8a8-954c7d2578a8",
      "meta": {
        "profile": [ "http://hl7.org/fhir/us/qicore/StructureDefinition/qicore-practitioner" ]
      },
      "identifier": [ {
        "system": "http://hl7.org/fhir/sid/us-npi",
        "value": "1234567890"
      } ],
      "name": [ {
        "family": "Evil",
        "prefix": [ "Dr" ]
      } ]
    },
    "request": {
      "method": "PUT",
      "url": "Practitioner/f4b46940-b0ba-421b-a8a8-954c7d2578a8"
    }
  }, {
    "fullUrl": "https://madie.cms.gov/MeasureReport/2cf615ef-2e84-4690-ada2-1cca6278f710",
    "resource": {
      "resourceType": "MeasureReport",
      "id": "2cf615ef-2e84-4690-ada2-1cca6278f710",
      "meta": {
        "profile": [ "http://hl7.org/fhir/us/cqfmeasures/StructureDefinition/test-case-cqfm" ]
      },
      "contained": [ {
        "resourceType": "Parameters",
        "id": "1bfd6d1c-133e-483d-b9ea-5b7be2606338-parameters",
        "parameter": [ {
          "name": "subject",
          "valueString": "acd8399d-1cc5-423e-95f5-27969e479297"
        } ]
      } ],
      "extension": [ {
        "url": "http://hl7.org/fhir/StructureDefinition/cqf-inputParameters",
        "valueReference": {
          "reference": "#1bfd6d1c-133e-483d-b9ea-5b7be2606338-parameters"
        }
      }, {
        "url": "http://hl7.org/fhir/us/cqfmeasures/StructureDefinition/cqfm-testCaseDescription",
        "valueMarkdown": "Birth date is bad - year before 1900, should fail IPP\n"
      } ],
      "modifierExtension": [ {
        "url": "http://hl7.org/fhir/us/cqfmeasures/StructureDefinition/cqfm-isTestCase",
        "valueBoolean": true
      } ],
      "status": "complete",
      "type": "individual",
      "measure": "https://madie.cms.gov/Measure/CMS0334FHIRPCCesareanBirth",
      "period": {
        "start": "2026-01-01",
        "end": "2026-12-31"
      },
      "group": [ {
        "id": "Group_1",
        "population": [ {
          "id": "InitialPopulation_1",
          "code": {
            "coding": [ {
              "system": "http://terminology.hl7.org/CodeSystem/measure-population",
              "code": "initial-population",
              "display": "Initial Population"
            } ]
          },
          "count": 0
        }, {
          "id": "Denominator_1",
          "code": {
            "coding": [ {
              "system": "http://terminology.hl7.org/CodeSystem/measure-population",
              "code": "denominator",
              "display": "Denominator"
            } ]
          },
          "count": 0
        }, {
          "id": "DenominatorExclusion_1",
          "code": {
            "coding": [ {
              "system": "http://terminology.hl7.org/CodeSystem/measure-population",
              "code": "denominator-exclusion",
              "display": "Denominator Exclusion"
            } ]
          },
          "count": 0
        }, {
          "id": "Numerator_1",
          "code": {
            "coding": [ {
              "system": "http://terminology.hl7.org/CodeSystem/measure-population",
              "code": "numerator",
              "display": "Numerator"
            } ]
          },
          "count": 0
        } ],
        "measureScore": {
          "value": 0.0
        }
      } ],
      "evaluatedResource": [ {
        "reference": "Patient/acd8399d-1cc5-423e-95f5-27969e479297"
      }, {
        "reference": "Encounter/104d261b-bfe7-4f7e-a2d2-572a75a76f62"
      }, {
        "reference": "Procedure/b9e3510e-7414-474d-8b72-764017fc61db"
      }, {
        "reference": "Coverage/61d70046-88c8-4879-911a-b7c4f153babf"
      }, {
        "reference": "Organization/86f6d4ff-4a10-412b-8d21-12766f263d27"
      }, {
        "reference": "Practitioner/f4b46940-b0ba-421b-a8a8-954c7d2578a8"
      } ]
    },
    "request": {
      "method": "PUT",
      "url": "MeasureReport/2cf615ef-2e84-4690-ada2-1cca6278f710"
    }
  } ]
}