{
  "resourceType": "Bundle",
  "id": "62fa88b5e884ee19102758b5",
  "type": "collection",
  "entry": [ {
    "fullUrl": "https://madie.cms.gov/Patient/92d6fd00-76fa-4354-8c16-59582a8c7278",
    "resource": {
      "resourceType": "Patient",
      "id": "92d6fd00-76fa-4354-8c16-59582a8c7278",
      "meta": {
        "profile": [ "http://hl7.org/fhir/us/qicore/StructureDefinition/qicore-patient" ]
      },
      "extension": [ {
        "url": "http://hl7.org/fhir/us/core/StructureDefinition/us-core-race",
        "extension": [ {
          "url": "ombCategory",
          "valueCoding": {
            "system": "urn:oid:2.16.840.1.113883.6.238",
            "code": "1002-5",
            "display": "American Indian or Alaska Native",
            "userSelected": true
          }
        }, {
          "url": "text",
          "valueString": "American Indian or Alaska Native"
        } ]
      }, {
        "url": "http://hl7.org/fhir/us/core/StructureDefinition/us-core-ethnicity",
        "extension": [ {
          "url": "ombCategory",
          "valueCoding": {
            "system": "urn:oid:2.16.840.1.113883.6.238",
            "code": "2135-2",
            "display": "Hispanic or Latino",
            "userSelected": true
          }
        }, {
          "url": "text",
          "valueString": "Hispanic or Latino"
        } ]
      } ],
      "identifier": [ {
        "type": {
          "coding": [ {
            "system": "http://terminology.hl7.org/CodeSystem/v2-0203",
            "code": "MR"
          } ]
        },
        "system": "https://bonnie-fhir.healthit.gov/",
        "value": "62fa88b5e884ee19102758b5"
      } ],
      "name": [ {
        "family": "DENEXFail",
        "given": [ "HypertensionAfterEnc" ]
      } ],
      "gender": "male",
      "birthDate": "2006-06-18"
    }
  }, {
    "fullUrl": "https://madie.cms.gov/Encounter/4ebcbf1c-75d6-4898-a506-8e6469adc08d",
    "resource": {
      "resourceType": "Encounter",
      "id": "4ebcbf1c-75d6-4898-a506-8e6469adc08d",
      "meta": {
        "profile": [ "http://hl7.org/fhir/us/qicore/StructureDefinition/qicore-encounter" ]
      },
      "status": "finished",
      "class": {
        "system": "http://terminology.hl7.org/CodeSystem/v3-ActCode",
        "code": "AMB",
        "display": "ambulatory"
      },
      "type": [ {
        "coding": [ {
          "system": "http://snomed.info/sct",
          "version": "2022-03",
          "code": "103705002",
          "display": "Patient status observation (procedure)",
          "userSelected": true
        } ]
      } ],
      "subject": {
        "reference": "Patient/92d6fd00-76fa-4354-8c16-59582a8c7278"
      },
      "period": {
        "start": "2026-01-01T10:00:00.000Z",
        "end": "2026-01-01T10:15:00.000Z"
      }
    }
  }, {
    "fullUrl": "https://madie.cms.gov/Condition/e2ceb932-bee9-4c46-beb6-cfcd13a3e34d",
    "resource": {
      "resourceType": "Condition",
      "id": "e2ceb932-bee9-4c46-beb6-cfcd13a3e34d",
      "meta": {
        "profile": [ "http://hl7.org/fhir/us/qicore/StructureDefinition/qicore-condition-encounter-diagnosis" ]
      },
      "clinicalStatus": {
        "coding": [ {
          "system": "http://terminology.hl7.org/CodeSystem/condition-clinical",
          "code": "active",
          "display": "active",
          "userSelected": true
        } ]
      },
      "verificationStatus": {
        "coding": [ {
          "system": "http://terminology.hl7.org/CodeSystem/condition-ver-status",
          "code": "confirmed",
          "display": "Confirmed",
          "userSelected": true
        } ]
      },
      "category": [ {
        "coding": [ {
          "system": "http://terminology.hl7.org/CodeSystem/condition-category",
          "code": "encounter-diagnosis",
          "display": "Encounter Diagnosis"
        } ]
      } ],
      "code": {
        "coding": [ {
          "system": "http://snomed.info/sct",
          "version": "2022-03",
          "code": "10725009",
          "display": "Benign hypertension (disorder)",
          "userSelected": true
        } ]
      },
      "subject": {
        "reference": "Patient/92d6fd00-76fa-4354-8c16-59582a8c7278"
      },
      "onsetPeriod": {
        "start": "2026-01-01T10:15:00.000Z"
      }
    }
  }, {
    "fullUrl": "https://madie.cms.gov/Coverage/014a7744-a7ba-4807-a34f-44974a89dbec",
    "resource": {
      "resourceType": "Coverage",
      "id": "014a7744-a7ba-4807-a34f-44974a89dbec",
      "meta": {
        "profile": [ "http://hl7.org/fhir/us/qicore/StructureDefinition/qicore-coverage" ]
      },
      "status": "active",
      "subscriberId": "2126457",
      "beneficiary": {
        "reference": "Patient/92d6fd00-76fa-4354-8c16-59582a8c7278"
      },
      "relationship": {
        "coding": [ {
          "system": "http://terminology.hl7.org/CodeSystem/subscriber-relationship",
          "code": "self",
          "display": "Self"
        } ]
      },
      "payor": [ {
        "reference": "Organization/648b9c47-df6d-46e8-988c-c0f00649e579"
      } ]
    }
  }, {
    "fullUrl": "https://madie.cms.gov/Organization/648b9c47-df6d-46e8-988c-c0f00649e579",
    "resource": {
      "resourceType": "Organization",
      "id": "648b9c47-df6d-46e8-988c-c0f00649e579",
      "meta": {
        "profile": [ "http://hl7.org/fhir/us/qicore/StructureDefinition/qicore-organization" ]
      },
      "identifier": [ {
        "use": "temp",
        "system": "urn:oid:2.16.840.1.113883.4.4",
        "value": "21-3259825"
      } ],
      "active": true,
      "type": [ {
        "coding": [ {
          "system": "http://terminology.hl7.org/CodeSystem/organization-type",
          "code": "pay",
          "display": "Payer"
        } ]
      } ],
      "name": "Blue Cross Blue Shield of Texas",
      "telecom": [ {
        "system": "phone",
        "value": "(+1) 972-766-6900"
      } ],
      "address": [ {
        "use": "billing",
        "type": "postal",
        "line": [ "P.O. Box 660044" ],
        "city": "Dallas",
        "state": "TX",
        "postalCode": "75266-0044",
        "country": "USA"
      } ]
    }
  }, {
    "fullUrl": "https://madie.cms.gov/Practitioner/80af4daa-096a-4920-b97b-90ac5776a65b",
    "resource": {
      "resourceType": "Practitioner",
      "id": "80af4daa-096a-4920-b97b-90ac5776a65b",
      "meta": {
        "profile": [ "http://hl7.org/fhir/us/qicore/StructureDefinition/qicore-practitioner" ]
      },
      "identifier": [ {
        "system": "http://hl7.org/fhir/sid/us-npi",
        "value": "1033270160"
      } ],
      "name": [ {
        "family": "Evil",
        "prefix": [ "Dr" ]
      } ]
    }
  }, {
    "fullUrl": "https://madie.cms.gov/MeasureReport/30095850-758f-4b57-be95-d6ac61e7f6f9",
    "resource": {
      "resourceType": "MeasureReport",
      "id": "30095850-758f-4b57-be95-d6ac61e7f6f9",
      "meta": {
        "profile": [ "http://hl7.org/fhir/us/cqfmeasures/StructureDefinition/test-case-cqfm" ]
      },
      "contained": [ {
        "resourceType": "Parameters",
        "id": "086821f0-09b1-4333-8333-c41ddc6837e5-parameters",
        "parameter": [ {
          "name": "subject",
          "valueString": "92d6fd00-76fa-4354-8c16-59582a8c7278"
        } ]
      } ],
      "extension": [ {
        "url": "http://hl7.org/fhir/StructureDefinition/cqf-inputParameters",
        "valueReference": {
          "reference": "#086821f0-09b1-4333-8333-c41ddc6837e5-parameters"
        }
      }, {
        "url": "http://hl7.org/fhir/us/cqfmeasures/StructureDefinition/cqfm-testCaseDescription",
        "valueMarkdown": "Encounter first day of MP, HTN dx after this encounter, expected to fail denex."
      } ],
      "modifierExtension": [ {
        "url": "http://hl7.org/fhir/us/cqfmeasures/StructureDefinition/cqfm-isTestCase",
        "valueBoolean": true
      } ],
      "status": "complete",
      "type": "individual",
      "measure": "https://madie.cms.gov/Measure/CMS22FHIRPCSBPScreeningFollowUp",
      "period": {
        "start": "2026-01-01",
        "end": "2026-12-31"
      },
      "group": [ {
        "id": "Group_1",
        "population": [ {
          "id": "InitialPopulation_1",
          "code": {
            "coding": [ {
              "system": "http://terminology.hl7.org/CodeSystem/measure-population",
              "code": "initial-population",
              "display": "Initial Population"
            } ]
          },
          "count": 1
        }, {
          "id": "Denominator_1",
          "code": {
            "coding": [ {
              "system": "http://terminology.hl7.org/CodeSystem/measure-population",
              "code": "denominator",
              "display": "Denominator"
            } ]
          },
          "count": 1
        }, {
          "id": "DenominatorExclusion_1",
          "code": {
            "coding": [ {
              "system": "http://terminology.hl7.org/CodeSystem/measure-population",
              "code": "denominator-exclusion",
              "display": "Denominator Exclusion"
            } ]
          },
          "count": 0
        }, {
          "id": "Numerator_1",
          "code": {
            "coding": [ {
              "system": "http://terminology.hl7.org/CodeSystem/measure-population",
              "code": "numerator",
              "display": "Numerator"
            } ]
          },
          "count": 0
        }, {
          "id": "DenominatorException_1",
          "code": {
            "coding": [ {
              "system": "http://terminology.hl7.org/CodeSystem/measure-population",
              "code": "denominator-exception",
              "display": "Denominator Exception"
            } ]
          },
          "count": 0
        } ],
        "measureScore": {
          "value": 0.0
        }
      } ],
      "evaluatedResource": [ {
        "reference": "Patient/92d6fd00-76fa-4354-8c16-59582a8c7278"
      }, {
        "reference": "Encounter/4ebcbf1c-75d6-4898-a506-8e6469adc08d"
      }, {
        "reference": "Condition/e2ceb932-bee9-4c46-beb6-cfcd13a3e34d"
      }, {
        "reference": "Coverage/014a7744-a7ba-4807-a34f-44974a89dbec"
      }, {
        "reference": "Organization/648b9c47-df6d-46e8-988c-c0f00649e579"
      }, {
        "reference": "Practitioner/80af4daa-096a-4920-b97b-90ac5776a65b"
      } ]
    }
  } ]
}