{
  "resourceType": "Bundle",
  "id": "tests-9baac6c5-1826-4c06-a4a4-6ef5bfda76ba-bundle",
  "type": "transaction",
  "entry": [ {
    "fullUrl": "https://madie.cms.gov/Encounter/cc2cd835-6040-4cd8-8677-c4f50868c50f",
    "resource": {
      "resourceType": "Encounter",
      "id": "cc2cd835-6040-4cd8-8677-c4f50868c50f",
      "meta": {
        "profile": [ "http://hl7.org/fhir/us/qicore/StructureDefinition/qicore-encounter" ]
      },
      "status": "finished",
      "class": {
        "system": "http://terminology.hl7.org/CodeSystem/v3-ActCode",
        "code": "EMER",
        "display": "emergency"
      },
      "type": [ {
        "coding": [ {
          "system": "http://snomed.info/sct",
          "code": "4525004"
        } ]
      } ],
      "subject": {
        "reference": "Patient/2c96df6e-89f2-4cf6-8390-650767f59512"
      },
      "period": {
        "start": "2026-09-29T08:00:00.000+00:00",
        "end": "2026-09-30T20:00:00.000+00:00"
      }
    },
    "request": {
      "method": "PUT",
      "url": "Encounter/cc2cd835-6040-4cd8-8677-c4f50868c50f"
    }
  }, {
    "fullUrl": "https://madie.cms.gov/Organization/9425c489-7c70-4a5e-b3e8-1fa2521dd084",
    "resource": {
      "resourceType": "Organization",
      "id": "9425c489-7c70-4a5e-b3e8-1fa2521dd084",
      "meta": {
        "profile": [ "http://hl7.org/fhir/us/qicore/StructureDefinition/qicore-organization" ]
      },
      "identifier": [ {
        "use": "temp",
        "system": "urn:oid:2.16.840.1.113883.4.4",
        "value": "21-3259825"
      } ],
      "active": true,
      "type": [ {
        "coding": [ {
          "system": "http://terminology.hl7.org/CodeSystem/organization-type",
          "code": "pay",
          "display": "Payer"
        } ]
      } ],
      "name": "Blue Cross Blue Shield of Texas",
      "telecom": [ {
        "system": "phone",
        "value": "(+1) 972-766-6900"
      } ],
      "address": [ {
        "use": "billing",
        "type": "postal",
        "line": [ "P.O. Box 660044" ],
        "city": "Dallas",
        "state": "TX",
        "postalCode": "75266-0044",
        "country": "USA"
      } ]
    },
    "request": {
      "method": "PUT",
      "url": "Organization/9425c489-7c70-4a5e-b3e8-1fa2521dd084"
    }
  }, {
    "fullUrl": "https://madie.cms.gov/Observation/58ec3bbc-1f6e-4c02-b389-b5b4e5b4cb73",
    "resource": {
      "resourceType": "Observation",
      "id": "58ec3bbc-1f6e-4c02-b389-b5b4e5b4cb73",
      "meta": {
        "profile": [ "http://hl7.org/fhir/us/qicore/StructureDefinition/qicore-observation-lab" ]
      },
      "status": "final",
      "category": [ {
        "coding": [ {
          "system": "http://terminology.hl7.org/CodeSystem/observation-category",
          "code": "laboratory",
          "display": "Laboratory"
        } ]
      } ],
      "code": {
        "coding": [ {
          "system": "http://loinc.org",
          "version": "2.72",
          "code": "2160-0",
          "display": "Creatinine [Mass/volume] in Serum or Plasma",
          "userSelected": true
        } ]
      },
      "subject": {
        "reference": "Patient/2c96df6e-89f2-4cf6-8390-650767f59512"
      },
      "effectiveDateTime": "2026-10-02T08:00:00.000+00:00",
      "issued": "2026-10-02T08:30:00.000+00:00",
      "valueQuantity": {
        "value": 1.1,
        "unit": "mg/dL",
        "system": "http://unitsofmeasure.org",
        "code": "mg/dL"
      }
    },
    "request": {
      "method": "PUT",
      "url": "Observation/58ec3bbc-1f6e-4c02-b389-b5b4e5b4cb73"
    }
  }, {
    "fullUrl": "https://madie.cms.gov/Encounter/4d6f38bb-d1c7-4912-b85a-0bef93d971f3",
    "resource": {
      "resourceType": "Encounter",
      "id": "4d6f38bb-d1c7-4912-b85a-0bef93d971f3",
      "meta": {
        "profile": [ "http://hl7.org/fhir/us/qicore/StructureDefinition/qicore-encounter" ]
      },
      "status": "finished",
      "class": {
        "system": "http://terminology.hl7.org/CodeSystem/v3-ActCode",
        "code": "IMP",
        "display": "inpatient encounter"
      },
      "type": [ {
        "coding": [ {
          "system": "http://snomed.info/sct",
          "code": "183452005"
        } ]
      } ],
      "subject": {
        "reference": "Patient/2c96df6e-89f2-4cf6-8390-650767f59512"
      },
      "period": {
        "start": "2026-09-29T20:00:00.000+00:00",
        "end": "2026-10-04T08:15:00.000+00:00"
      }
    },
    "request": {
      "method": "PUT",
      "url": "Encounter/4d6f38bb-d1c7-4912-b85a-0bef93d971f3"
    }
  }, {
    "fullUrl": "https://madie.cms.gov/MeasureReport/84891333-b6d3-43bb-851a-1659033a85e5",
    "resource": {
      "resourceType": "MeasureReport",
      "id": "84891333-b6d3-43bb-851a-1659033a85e5",
      "meta": {
        "profile": [ "http://hl7.org/fhir/us/cqfmeasures/StructureDefinition/test-case-cqfm" ]
      },
      "contained": [ {
        "resourceType": "Parameters",
        "id": "e6a29411-8a79-446d-8a62-babe939e0b30-parameters",
        "parameter": [ {
          "name": "subject",
          "valueString": "9baac6c5-1826-4c06-a4a4-6ef5bfda76ba"
        } ]
      } ],
      "extension": [ {
        "url": "http://hl7.org/fhir/us/cqfmeasures/StructureDefinition/cqfm-inputParameters",
        "valueReference": {
          "reference": "#e6a29411-8a79-446d-8a62-babe939e0b30-parameters"
        }
      }, {
        "url": "http://hl7.org/fhir/us/cqfmeasures/StructureDefinition/cqfm-testCaseDescription",
        "valueMarkdown": "2TimeIncreaseInCreatUseRelevantPeriod FEMALE\nVScode: Numerator=[Encounter(id=NUMERPass-SCrIncrease2x-02)]"
      } ],
      "modifierExtension": [ {
        "url": "http://hl7.org/fhir/us/cqfmeasures/StructureDefinition/cqfm-isTestCase",
        "valueBoolean": true
      } ],
      "status": "complete",
      "type": "individual",
      "measure": "https://madie.cms.gov/Measure/CMS832HHAKIFHIR",
      "period": {
        "start": "2026-01-01",
        "end": "2026-12-31"
      },
      "group": [ {
        "id": "67b50f879214df46de2f1fdb",
        "population": [ {
          "id": "DA0D3694-7F57-4FB9-8410-1F64E44CA01E",
          "code": {
            "coding": [ {
              "system": "http://terminology.hl7.org/CodeSystem/measure-population",
              "code": "initial-population",
              "display": "Initial Population"
            } ]
          },
          "count": 1
        }, {
          "id": "624D8554-9CB0-4BF0-882D-05C4F88BCC2C",
          "code": {
            "coding": [ {
              "system": "http://terminology.hl7.org/CodeSystem/measure-population",
              "code": "denominator",
              "display": "Denominator"
            } ]
          },
          "count": 1
        }, {
          "id": "000FF050-D4A2-4C8B-8123-4538D35D5441",
          "code": {
            "coding": [ {
              "system": "http://terminology.hl7.org/CodeSystem/measure-population",
              "code": "denominator-exclusion",
              "display": "Denominator Exclusion"
            } ]
          },
          "count": 0
        }, {
          "id": "01644D07-D9F8-403E-A66D-109ABA29BB6E",
          "code": {
            "coding": [ {
              "system": "http://terminology.hl7.org/CodeSystem/measure-population",
              "code": "numerator",
              "display": "Numerator"
            } ]
          },
          "count": 1
        } ],
        "measureScore": {
          "value": 0
        }
      } ],
      "evaluatedResource": [ {
        "reference": "Patient/2c96df6e-89f2-4cf6-8390-650767f59512"
      }, {
        "reference": "Encounter/cc2cd835-6040-4cd8-8677-c4f50868c50f"
      }, {
        "reference": "Encounter/4d6f38bb-d1c7-4912-b85a-0bef93d971f3"
      }, {
        "reference": "Observation/73673e54-5829-4d21-b4ce-de747c7d70a9"
      }, {
        "reference": "Observation/dca9814e-1420-4751-80d4-3565cef4a671"
      }, {
        "reference": "Observation/58ec3bbc-1f6e-4c02-b389-b5b4e5b4cb73"
      }, {
        "reference": "Observation/b5b412da-39af-4d6f-ad35-61821c513fce"
      }, {
        "reference": "Coverage/5f0d6c7b-1c5c-4df7-8fd8-ba93331c1c34"
      }, {
        "reference": "Organization/9425c489-7c70-4a5e-b3e8-1fa2521dd084"
      } ]
    },
    "request": {
      "method": "PUT",
      "url": "MeasureReport/84891333-b6d3-43bb-851a-1659033a85e5"
    }
  }, {
    "fullUrl": "https://madie.cms.gov/Observation/73673e54-5829-4d21-b4ce-de747c7d70a9",
    "resource": {
      "resourceType": "Observation",
      "id": "73673e54-5829-4d21-b4ce-de747c7d70a9",
      "meta": {
        "profile": [ "http://hl7.org/fhir/us/qicore/StructureDefinition/qicore-observation-lab" ]
      },
      "status": "final",
      "category": [ {
        "coding": [ {
          "system": "http://terminology.hl7.org/CodeSystem/observation-category",
          "code": "laboratory",
          "display": "Laboratory"
        } ]
      } ],
      "code": {
        "coding": [ {
          "system": "http://loinc.org",
          "version": "2.72",
          "code": "2160-0",
          "display": "Creatinine [Mass/volume] in Serum or Plasma",
          "userSelected": true
        } ]
      },
      "subject": {
        "reference": "Patient/2c96df6e-89f2-4cf6-8390-650767f59512"
      },
      "effectiveDateTime": "2026-09-30T09:00:00.000+00:00",
      "issued": "2026-09-30T09:30:00.000+00:00",
      "valueQuantity": {
        "value": 1.1,
        "unit": "mg/dL",
        "system": "http://unitsofmeasure.org",
        "code": "mg/dL"
      }
    },
    "request": {
      "method": "PUT",
      "url": "Observation/73673e54-5829-4d21-b4ce-de747c7d70a9"
    }
  }, {
    "fullUrl": "https://madie.cms.gov/Observation/b5b412da-39af-4d6f-ad35-61821c513fce",
    "resource": {
      "resourceType": "Observation",
      "id": "b5b412da-39af-4d6f-ad35-61821c513fce",
      "meta": {
        "profile": [ "http://hl7.org/fhir/us/qicore/StructureDefinition/qicore-observation-lab" ]
      },
      "status": "final",
      "category": [ {
        "coding": [ {
          "system": "http://terminology.hl7.org/CodeSystem/observation-category",
          "code": "laboratory",
          "display": "Laboratory"
        } ]
      } ],
      "code": {
        "coding": [ {
          "system": "http://loinc.org",
          "code": "2160-0",
          "display": "Creatinine [Mass/volume] in Serum or Plasma"
        } ]
      },
      "subject": {
        "reference": "Patient/2c96df6e-89f2-4cf6-8390-650767f59512"
      },
      "effectiveDateTime": "2026-10-03T08:00:00.000+00:00",
      "issued": "2026-10-03T08:30:00.000+00:00",
      "valueQuantity": {
        "value": 2.2,
        "unit": "mg/dL",
        "system": "http://unitsofmeasure.org",
        "code": "mg/dL"
      }
    },
    "request": {
      "method": "PUT",
      "url": "Observation/b5b412da-39af-4d6f-ad35-61821c513fce"
    }
  }, {
    "fullUrl": "https://madie.cms.gov/Observation/dca9814e-1420-4751-80d4-3565cef4a671",
    "resource": {
      "resourceType": "Observation",
      "id": "dca9814e-1420-4751-80d4-3565cef4a671",
      "meta": {
        "profile": [ "http://hl7.org/fhir/us/qicore/StructureDefinition/qicore-observation-lab" ]
      },
      "status": "final",
      "category": [ {
        "coding": [ {
          "system": "http://terminology.hl7.org/CodeSystem/observation-category",
          "code": "laboratory",
          "display": "Laboratory"
        } ]
      } ],
      "code": {
        "coding": [ {
          "system": "http://loinc.org",
          "version": "2.72",
          "code": "2160-0",
          "display": "Creatinine [Mass/volume] in Serum or Plasma",
          "userSelected": true
        } ]
      },
      "subject": {
        "reference": "Patient/2c96df6e-89f2-4cf6-8390-650767f59512"
      },
      "effectiveDateTime": "2026-09-30T08:00:00.000+00:00",
      "issued": "2026-09-30T08:30:00.000+00:00",
      "valueQuantity": {
        "value": 1,
        "unit": "mg/dL",
        "system": "http://unitsofmeasure.org",
        "code": "mg/dL"
      }
    },
    "request": {
      "method": "PUT",
      "url": "Observation/dca9814e-1420-4751-80d4-3565cef4a671"
    }
  }, {
    "fullUrl": "https://madie.cms.gov/Coverage/5f0d6c7b-1c5c-4df7-8fd8-ba93331c1c34",
    "resource": {
      "resourceType": "Coverage",
      "id": "5f0d6c7b-1c5c-4df7-8fd8-ba93331c1c34",
      "meta": {
        "profile": [ "http://hl7.org/fhir/us/qicore/StructureDefinition/qicore-coverage" ]
      },
      "status": "active",
      "type": {
        "coding": [ {
          "system": "https://nahdo.org/sopt",
          "version": "9.2",
          "code": "211",
          "display": "Medicaid HMO"
        } ]
      },
      "beneficiary": {
        "reference": "Patient/2c96df6e-89f2-4cf6-8390-650767f59512"
      },
      "period": {
        "start": "2024-12-01T00:00:00.000+00:00"
      },
      "payor": [ {
        "reference": "Organization/9425c489-7c70-4a5e-b3e8-1fa2521dd084"
      } ]
    },
    "request": {
      "method": "PUT",
      "url": "Coverage/5f0d6c7b-1c5c-4df7-8fd8-ba93331c1c34"
    }
  }, {
    "fullUrl": "https://madie.cms.gov/Procedure/1b551976-bbe3-4c4c-886a-b34a305281fc",
    "resource": {
      "resourceType": "Procedure",
      "id": "1b551976-bbe3-4c4c-886a-b34a305281fc",
      "meta": {
        "profile": [ "http://hl7.org/fhir/us/qicore/StructureDefinition/qicore-procedure" ]
      },
      "status": "completed",
      "code": {
        "coding": [ {
          "system": "http://snomed.info/sct",
          "code": "11932001"
        } ]
      },
      "subject": {
        "reference": "Patient/2c96df6e-89f2-4cf6-8390-650767f59512"
      },
      "performedDateTime": "2026-09-30T08:30:00.000+00:00",
      "performer": [ {
        "actor": {
          "reference": "Organization/9425c489-7c70-4a5e-b3e8-1fa2521dd084"
        }
      } ]
    },
    "request": {
      "method": "PUT",
      "url": "Procedure/1b551976-bbe3-4c4c-886a-b34a305281fc"
    }
  }, {
    "fullUrl": "https://madie.cms.gov/Patient/2c96df6e-89f2-4cf6-8390-650767f59512",
    "resource": {
      "resourceType": "Patient",
      "id": "2c96df6e-89f2-4cf6-8390-650767f59512",
      "meta": {
        "profile": [ "http://hl7.org/fhir/us/qicore/StructureDefinition/qicore-patient" ]
      },
      "text": {
        "status": "generated",
        "div": "<div xmlns=\"http://www.w3.org/1999/xhtml\"><div class=\"hapiHeaderText\">Turns 18 day of Encounter <b>NUMERPass </b></div><table class=\"hapiPropertyTable\"><tbody><tr><td>Identifier</td><td>f0eda1c9668fdacdcad3378589bf6e0a71e7dec1618f14fca4d442ec96e402b1</td></tr><tr><td>Date of birth</td><td><span>29 September 2006</span></td></tr></tbody></table></div>"
      },
      "extension": [ {
        "url": "http://hl7.org/fhir/us/core/StructureDefinition/us-core-race",
        "extension": [ {
          "url": "ombCategory",
          "valueCoding": {
            "system": "urn:oid:2.16.840.1.113883.6.238",
            "code": "1002-5",
            "display": "American Indian or Alaska Native",
            "userSelected": true
          }
        }, {
          "url": "text",
          "valueString": "American Indian or Alaska Native"
        } ]
      }, {
        "url": "http://hl7.org/fhir/us/core/StructureDefinition/us-core-ethnicity",
        "extension": [ {
          "url": "ombCategory",
          "valueCoding": {
            "system": "urn:oid:2.16.840.1.113883.6.238",
            "code": "2135-2",
            "display": "Hispanic or Latino",
            "userSelected": true
          }
        }, {
          "url": "text",
          "valueString": "Hispanic or Latino"
        } ]
      }, {
        "url": "http://hl7.org/fhir/us/core/StructureDefinition/us-core-sex",
        "valueCode": "248152002"
      } ],
      "identifier": [ {
        "type": {
          "coding": [ {
            "system": "http://terminology.hl7.org/CodeSystem/v2-0203",
            "code": "MR"
          } ]
        },
        "system": "http://bonnie-fhir.healthit.gov/",
        "value": "NUMERPass-SCrIncrease2x"
      } ],
      "active": true,
      "name": [ {
        "use": "usual",
        "family": "NUMERPass",
        "given": [ "SCrIncrease2x" ]
      } ],
      "gender": "female",
      "birthDate": "1983-10-10"
    },
    "request": {
      "method": "PUT",
      "url": "Patient/2c96df6e-89f2-4cf6-8390-650767f59512"
    }
  }, {
    "fullUrl": "https://madie.cms.gov/MeasureReport/c4ea53be-f7e9-4d69-9e22-0900bdfb5bb7",
    "resource": {
      "resourceType": "MeasureReport",
      "id": "c4ea53be-f7e9-4d69-9e22-0900bdfb5bb7",
      "meta": {
        "profile": [ "http://hl7.org/fhir/us/cqfmeasures/StructureDefinition/test-case-cqfm" ]
      },
      "contained": [ {
        "resourceType": "Parameters",
        "id": "ad3bc5cb-edd6-4144-8f7b-79931540d8be-parameters",
        "parameter": [ {
          "name": "subject",
          "valueString": "2c96df6e-89f2-4cf6-8390-650767f59512"
        } ]
      } ],
      "extension": [ {
        "url": "http://hl7.org/fhir/StructureDefinition/cqf-inputParameters",
        "valueReference": {
          "reference": "#ad3bc5cb-edd6-4144-8f7b-79931540d8be-parameters"
        }
      }, {
        "url": "http://hl7.org/fhir/us/cqfmeasures/StructureDefinition/cqfm-testCaseDescription",
        "valueMarkdown": "2TimeIncreaseInCreatUseRelevantPeriod FEMALE\nDialysis performed less than 48 hours after encounter start\n"
      } ],
      "modifierExtension": [ {
        "url": "http://hl7.org/fhir/us/cqfmeasures/StructureDefinition/cqfm-isTestCase",
        "valueBoolean": true
      } ],
      "status": "complete",
      "type": "individual",
      "measure": "https://madie.cms.gov/Measure/CMS832FHIRHHAKI",
      "period": {
        "start": "2026-01-01",
        "end": "2026-12-31"
      },
      "group": [ {
        "id": "Group_1",
        "population": [ {
          "id": "InitialPopulation_1",
          "code": {
            "coding": [ {
              "system": "http://terminology.hl7.org/CodeSystem/measure-population",
              "code": "initial-population",
              "display": "Initial Population"
            } ]
          },
          "count": 1
        }, {
          "id": "Denominator_1",
          "code": {
            "coding": [ {
              "system": "http://terminology.hl7.org/CodeSystem/measure-population",
              "code": "denominator",
              "display": "Denominator"
            } ]
          },
          "count": 1
        }, {
          "id": "DenominatorExclusion_1",
          "code": {
            "coding": [ {
              "system": "http://terminology.hl7.org/CodeSystem/measure-population",
              "code": "denominator-exclusion",
              "display": "Denominator Exclusion"
            } ]
          },
          "count": 0
        }, {
          "id": "Numerator_1",
          "code": {
            "coding": [ {
              "system": "http://terminology.hl7.org/CodeSystem/measure-population",
              "code": "numerator",
              "display": "Numerator"
            } ]
          },
          "count": 1
        } ],
        "measureScore": {
          "value": 0.0
        }
      } ],
      "evaluatedResource": [ {
        "reference": "Encounter/cc2cd835-6040-4cd8-8677-c4f50868c50f"
      }, {
        "reference": "Organization/9425c489-7c70-4a5e-b3e8-1fa2521dd084"
      }, {
        "reference": "Observation/58ec3bbc-1f6e-4c02-b389-b5b4e5b4cb73"
      }, {
        "reference": "Encounter/4d6f38bb-d1c7-4912-b85a-0bef93d971f3"
      }, {
        "reference": "MeasureReport/84891333-b6d3-43bb-851a-1659033a85e5"
      }, {
        "reference": "Observation/73673e54-5829-4d21-b4ce-de747c7d70a9"
      }, {
        "reference": "Observation/b5b412da-39af-4d6f-ad35-61821c513fce"
      }, {
        "reference": "Observation/dca9814e-1420-4751-80d4-3565cef4a671"
      }, {
        "reference": "Coverage/5f0d6c7b-1c5c-4df7-8fd8-ba93331c1c34"
      }, {
        "reference": "Procedure/1b551976-bbe3-4c4c-886a-b34a305281fc"
      }, {
        "reference": "Patient/2c96df6e-89f2-4cf6-8390-650767f59512"
      } ]
    },
    "request": {
      "method": "PUT",
      "url": "MeasureReport/c4ea53be-f7e9-4d69-9e22-0900bdfb5bb7"
    }
  } ]
}