{
  "resourceType": "Bundle",
  "id": "6413749d4b11b147841ab8df",
  "type": "transaction",
  "entry": [ {
    "fullUrl": "https://madie.cms.gov/Patient/80cbaf27-f12e-47b7-a875-59b068294036",
    "resource": {
      "resourceType": "Patient",
      "id": "80cbaf27-f12e-47b7-a875-59b068294036",
      "meta": {
        "profile": [ "http://hl7.org/fhir/us/qicore/StructureDefinition/qicore-patient" ]
      },
      "extension": [ {
        "url": "http://hl7.org/fhir/us/core/StructureDefinition/us-core-race",
        "extension": [ {
          "url": "ombCategory",
          "valueCoding": {
            "system": "urn:oid:2.16.840.1.113883.6.238",
            "code": "1002-5",
            "display": "American Indian or Alaska Native",
            "userSelected": true
          }
        }, {
          "url": "text",
          "valueString": "American Indian or Alaska Native"
        } ]
      }, {
        "url": "http://hl7.org/fhir/us/core/StructureDefinition/us-core-ethnicity",
        "extension": [ {
          "url": "ombCategory",
          "valueCoding": {
            "system": "urn:oid:2.16.840.1.113883.6.238",
            "code": "2135-2",
            "display": "Hispanic or Latino",
            "userSelected": true
          }
        }, {
          "url": "text",
          "valueString": "Hispanic or Latino"
        } ]
      } ],
      "identifier": [ {
        "type": {
          "coding": [ {
            "system": "http://terminology.hl7.org/CodeSystem/v2-0203",
            "code": "MR"
          } ]
        },
        "system": "https://bonnie-fhir.healthit.gov/",
        "value": "6413749d4b11b147841ab8df"
      } ],
      "name": [ {
        "family": "IPFail",
        "given": [ "DiabetesDxFirstDayOfMP" ]
      } ],
      "gender": "female",
      "birthDate": "1998-06-13"
    },
    "request": {
      "method": "PUT",
      "url": "Patient/80cbaf27-f12e-47b7-a875-59b068294036"
    }
  }, {
    "fullUrl": "https://madie.cms.gov/Condition/4e055fc6-5d1a-4f51-96c5-126a9df1af8e",
    "resource": {
      "resourceType": "Condition",
      "id": "4e055fc6-5d1a-4f51-96c5-126a9df1af8e",
      "meta": {
        "profile": [ "http://hl7.org/fhir/us/qicore/StructureDefinition/qicore-condition-encounter-diagnosis" ]
      },
      "clinicalStatus": {
        "coding": [ {
          "system": "http://terminology.hl7.org/CodeSystem/condition-clinical",
          "code": "active",
          "display": "active",
          "userSelected": true
        } ]
      },
      "category": [ {
        "coding": [ {
          "system": "http://terminology.hl7.org/CodeSystem/condition-category",
          "code": "encounter-diagnosis",
          "display": "Encounter Diagnosis",
          "userSelected": true
        } ]
      } ],
      "code": {
        "coding": [ {
          "system": "http://snomed.info/sct",
          "version": "2021-09",
          "code": "102781000119107",
          "display": "Sensory neuropathy due to type 1 diabetes mellitus (disorder)",
          "userSelected": true
        } ]
      },
      "subject": {
        "reference": "Patient/80cbaf27-f12e-47b7-a875-59b068294036"
      },
      "onsetDateTime": "2026-01-01T06:00:00.000+00:00"
    },
    "request": {
      "method": "PUT",
      "url": "Condition/4e055fc6-5d1a-4f51-96c5-126a9df1af8e"
    }
  }, {
    "fullUrl": "https://madie.cms.gov/Encounter/4fe77563-9f63-4ac1-8f57-7aec781d56e9",
    "resource": {
      "resourceType": "Encounter",
      "id": "4fe77563-9f63-4ac1-8f57-7aec781d56e9",
      "meta": {
        "profile": [ "http://hl7.org/fhir/us/qicore/StructureDefinition/qicore-encounter" ]
      },
      "status": "finished",
      "class": {
        "system": "http://terminology.hl7.org/CodeSystem/v3-ActCode",
        "code": "AMB",
        "display": "ambulatory",
        "userSelected": true
      },
      "type": [ {
        "coding": [ {
          "system": "http://snomed.info/sct",
          "version": "2021-09",
          "code": "281036007",
          "display": "Follow-up consultation (procedure)",
          "userSelected": true
        } ]
      } ],
      "subject": {
        "reference": "Patient/80cbaf27-f12e-47b7-a875-59b068294036"
      },
      "period": {
        "start": "2026-03-16T08:00:00.000+00:00",
        "end": "2026-03-16T08:15:00.000+00:00"
      }
    },
    "request": {
      "method": "PUT",
      "url": "Encounter/4fe77563-9f63-4ac1-8f57-7aec781d56e9"
    }
  }, {
    "fullUrl": "https://madie.cms.gov/MeasureReport/3d5ea5d7-251f-40ee-b771-3385a8c88aa6",
    "resource": {
      "resourceType": "MeasureReport",
      "id": "3d5ea5d7-251f-40ee-b771-3385a8c88aa6",
      "meta": {
        "profile": [ "http://hl7.org/fhir/us/cqfmeasures/StructureDefinition/test-case-cqfm" ]
      },
      "contained": [ {
        "resourceType": "Parameters",
        "id": "b70f01c7-8d6d-4d01-bf24-b07102251a59-parameters",
        "parameter": [ {
          "name": "subject",
          "valueString": "80cbaf27-f12e-47b7-a875-59b068294036"
        } ]
      } ],
      "extension": [ {
        "url": "http://hl7.org/fhir/StructureDefinition/cqf-inputParameters",
        "valueReference": {
          "reference": "#b70f01c7-8d6d-4d01-bf24-b07102251a59-parameters"
        }
      }, {
        "url": "http://hl7.org/fhir/us/cqfmeasures/StructureDefinition/cqfm-testCaseDescription",
        "valueMarkdown": "This patient is 38 years old, has a qualifying encounter, and is diagnosed with diabetes on the first day of the measurement period. This case tests the encounter criteria of the Denom. "
      } ],
      "modifierExtension": [ {
        "url": "http://hl7.org/fhir/us/cqfmeasures/StructureDefinition/cqfm-isTestCase",
        "valueBoolean": true
      } ],
      "status": "complete",
      "type": "individual",
      "measure": "https://madie.cms.gov/Measure/CMS951FHIRKidneyHealthEval",
      "period": {
        "start": "2026-01-01",
        "end": "2026-12-31"
      },
      "group": [ {
        "id": "Group_1",
        "population": [ {
          "id": "InitialPopulation_1",
          "code": {
            "coding": [ {
              "system": "http://terminology.hl7.org/CodeSystem/measure-population",
              "code": "initial-population",
              "display": "Initial Population"
            } ]
          },
          "count": 0
        }, {
          "id": "Denominator_1",
          "code": {
            "coding": [ {
              "system": "http://terminology.hl7.org/CodeSystem/measure-population",
              "code": "denominator",
              "display": "Denominator"
            } ]
          },
          "count": 0
        }, {
          "id": "DenominatorExclusion_1",
          "code": {
            "coding": [ {
              "system": "http://terminology.hl7.org/CodeSystem/measure-population",
              "code": "denominator-exclusion",
              "display": "Denominator Exclusion"
            } ]
          },
          "count": 0
        }, {
          "id": "Numerator_1",
          "code": {
            "coding": [ {
              "system": "http://terminology.hl7.org/CodeSystem/measure-population",
              "code": "numerator",
              "display": "Numerator"
            } ]
          },
          "count": 0
        } ],
        "measureScore": {
          "value": 1.0
        }
      } ],
      "evaluatedResource": [ {
        "reference": "Patient/80cbaf27-f12e-47b7-a875-59b068294036"
      }, {
        "reference": "Condition/4e055fc6-5d1a-4f51-96c5-126a9df1af8e"
      }, {
        "reference": "Encounter/4fe77563-9f63-4ac1-8f57-7aec781d56e9"
      } ]
    },
    "request": {
      "method": "PUT",
      "url": "MeasureReport/3d5ea5d7-251f-40ee-b771-3385a8c88aa6"
    }
  } ]
}