{
  "resourceType": "Bundle",
  "id": "6298e96c5c5f0f80c3806878",
  "type": "collection",
  "entry": [ {
    "fullUrl": "https://madie.cms.gov/Patient/54b4b9a9-00fd-453f-b8c1-61c324fa68da",
    "resource": {
      "resourceType": "Patient",
      "id": "54b4b9a9-00fd-453f-b8c1-61c324fa68da",
      "meta": {
        "profile": [ "http://hl7.org/fhir/us/qicore/StructureDefinition/qicore-patient" ]
      },
      "extension": [ {
        "url": "http://hl7.org/fhir/us/core/StructureDefinition/us-core-race",
        "extension": [ {
          "url": "ombCategory",
          "valueCoding": {
            "system": "urn:oid:2.16.840.1.113883.6.238",
            "code": "1002-5",
            "display": "American Indian or Alaska Native",
            "userSelected": true
          }
        }, {
          "url": "text",
          "valueString": "American Indian or Alaska Native"
        } ]
      }, {
        "url": "http://hl7.org/fhir/us/core/StructureDefinition/us-core-ethnicity",
        "extension": [ {
          "url": "ombCategory",
          "valueCoding": {
            "system": "urn:oid:2.16.840.1.113883.6.238",
            "code": "2135-2",
            "display": "Hispanic or Latino",
            "userSelected": true
          }
        }, {
          "url": "text",
          "valueString": "Hispanic or Latino"
        } ]
      }, {
        "url": "http://hl7.org/fhir/us/core/StructureDefinition/us-core-sex",
        "valueCode": "248152002"
      } ],
      "identifier": [ {
        "type": {
          "coding": [ {
            "system": "http://terminology.hl7.org/CodeSystem/v2-0203",
            "code": "MR"
          } ]
        },
        "system": "https://bonnie-fhir.healthit.gov/",
        "value": "6298e96c5c5f0f80c3806878"
      } ],
      "name": [ {
        "family": "DENOMPass",
        "given": [ "LastGleasonOf3LowBefore1stTreatment" ]
      } ],
      "gender": "female",
      "birthDate": "1980-12-31"
    }
  }, {
    "fullUrl": "https://madie.cms.gov/Condition/b3deca53-65c1-489b-b9fd-2b6d65e3fe96",
    "resource": {
      "resourceType": "Condition",
      "id": "b3deca53-65c1-489b-b9fd-2b6d65e3fe96",
      "meta": {
        "profile": [ "http://hl7.org/fhir/us/qicore/StructureDefinition/qicore-condition-problems-health-concerns" ]
      },
      "clinicalStatus": {
        "coding": [ {
          "system": "http://terminology.hl7.org/CodeSystem/condition-clinical",
          "code": "active",
          "display": "active",
          "userSelected": true
        } ]
      },
      "category": [ {
        "coding": [ {
          "system": "http://terminology.hl7.org/CodeSystem/condition-category",
          "code": "problem-list-item",
          "display": "Problem List Item"
        }, {
          "system": "http://snomed.info/sct",
          "code": "439401001",
          "display": "Diagnosis"
        } ]
      } ],
      "code": {
        "coding": [ {
          "system": "http://snomed.info/sct",
          "code": "254900004",
          "display": "Carcinoma of prostate (disorder)",
          "userSelected": true
        } ]
      },
      "subject": {
        "reference": "Patient/54b4b9a9-00fd-453f-b8c1-61c324fa68da"
      },
      "onsetPeriod": {
        "start": "2008-06-14T08:00:00.000+00:00"
      }
    }
  }, {
    "fullUrl": "https://madie.cms.gov/Procedure/86df6b80-f2b6-4363-97cd-536b204e46db",
    "resource": {
      "resourceType": "Procedure",
      "id": "86df6b80-f2b6-4363-97cd-536b204e46db",
      "meta": {
        "profile": [ "http://hl7.org/fhir/us/qicore/StructureDefinition/qicore-procedure" ]
      },
      "extension": [ {
        "url": "http://hl7.org/fhir/us/qicore/StructureDefinition/qicore-recorded",
        "valueDateTime": "2026-02-01T09:00:00.000+00:00"
      } ],
      "status": "completed",
      "code": {
        "coding": [ {
          "system": "http://snomed.info/sct",
          "code": "38915000",
          "display": "Radionuclide therapy for gland ablation (procedure)",
          "userSelected": true
        } ]
      },
      "subject": {
        "reference": "Patient/54b4b9a9-00fd-453f-b8c1-61c324fa68da"
      },
      "performedDateTime": "2026-04-28T08:00:00.000+00:00"
    }
  }, {
    "fullUrl": "https://madie.cms.gov/Observation/b3fcb189-cd38-4c83-ae5b-2b6bed05da84",
    "resource": {
      "resourceType": "Observation",
      "id": "b3fcb189-cd38-4c83-ae5b-2b6bed05da84",
      "meta": {
        "profile": [ "http://hl7.org/fhir/us/qicore/StructureDefinition/qicore-observation-lab" ]
      },
      "status": "final",
      "category": [ {
        "coding": [ {
          "system": "http://terminology.hl7.org/CodeSystem/observation-category",
          "code": "laboratory",
          "display": "Laboratory"
        } ]
      } ],
      "code": {
        "coding": [ {
          "system": "http://loinc.org",
          "version": "2.72",
          "code": "2857-1",
          "display": "Prostate specific Ag [Mass/volume] in Serum or Plasma",
          "userSelected": true
        } ]
      },
      "subject": {
        "reference": "Patient/54b4b9a9-00fd-453f-b8c1-61c324fa68da"
      },
      "effectiveDateTime": "2026-04-24T08:00:00.000+00:00",
      "valueQuantity": {
        "value": 8,
        "system": "http://unitsofmeasure.org",
        "code": "ng/mL"
      }
    }
  }, {
    "fullUrl": "https://madie.cms.gov/Observation/c3b6a4c7-aaca-451f-863c-f514ce2cf810",
    "resource": {
      "resourceType": "Observation",
      "id": "c3b6a4c7-aaca-451f-863c-f514ce2cf810",
      "meta": {
        "profile": [ "http://hl7.org/fhir/us/qicore/StructureDefinition/qicore-observation-clinical-result" ]
      },
      "status": "final",
      "category": [ {
        "coding": [ {
          "system": "http://terminology.hl7.org/CodeSystem/observation-category",
          "code": "procedure",
          "display": "Procedure"
        } ]
      } ],
      "code": {
        "coding": [ {
          "system": "http://loinc.org",
          "code": "35266-6",
          "display": "Gleason score in Specimen Qualitative",
          "userSelected": true
        } ]
      },
      "subject": {
        "reference": "Patient/54b4b9a9-00fd-453f-b8c1-61c324fa68da"
      },
      "effectiveDateTime": "2026-01-02T08:00:00.000+00:00",
      "valueInteger": 10
    }
  }, {
    "fullUrl": "https://madie.cms.gov/Observation/d8f935d2-5374-4303-bf15-319b7ed6e799",
    "resource": {
      "resourceType": "Observation",
      "id": "d8f935d2-5374-4303-bf15-319b7ed6e799",
      "meta": {
        "profile": [ "http://hl7.org/fhir/us/qicore/StructureDefinition/qicore-observation-clinical-result" ]
      },
      "status": "final",
      "category": [ {
        "coding": [ {
          "system": "http://terminology.hl7.org/CodeSystem/observation-category",
          "code": "procedure",
          "display": "Procedure"
        } ]
      } ],
      "code": {
        "coding": [ {
          "system": "http://loinc.org",
          "code": "35266-6",
          "display": "Gleason score in Specimen Qualitative",
          "userSelected": true
        } ]
      },
      "subject": {
        "reference": "Patient/54b4b9a9-00fd-453f-b8c1-61c324fa68da"
      },
      "effectiveDateTime": "2026-04-02T08:00:00.000+00:00",
      "valueInteger": 7
    }
  }, {
    "fullUrl": "https://madie.cms.gov/Observation/b5e41c8e-f466-4a3d-86b3-8361f7f257cb",
    "resource": {
      "resourceType": "Observation",
      "id": "b5e41c8e-f466-4a3d-86b3-8361f7f257cb",
      "meta": {
        "profile": [ "http://hl7.org/fhir/us/qicore/StructureDefinition/qicore-observation-clinical-result" ]
      },
      "status": "final",
      "category": [ {
        "coding": [ {
          "system": "http://terminology.hl7.org/CodeSystem/observation-category",
          "code": "procedure",
          "display": "Procedure"
        } ]
      } ],
      "code": {
        "coding": [ {
          "system": "http://loinc.org",
          "code": "35266-6",
          "display": "Gleason score in Specimen Qualitative",
          "userSelected": true
        } ]
      },
      "subject": {
        "reference": "Patient/54b4b9a9-00fd-453f-b8c1-61c324fa68da"
      },
      "effectiveDateTime": "2026-04-27T08:00:00.000+00:00",
      "valueInteger": 6
    }
  }, {
    "fullUrl": "https://madie.cms.gov/Observation/f85148ba-44f7-4bc8-925f-5df7f1121a06",
    "resource": {
      "resourceType": "Observation",
      "id": "f85148ba-44f7-4bc8-925f-5df7f1121a06",
      "meta": {
        "profile": [ "http://hl7.org/fhir/us/qicore/StructureDefinition/qicore-observation-clinical-result" ]
      },
      "status": "final",
      "category": [ {
        "coding": [ {
          "system": "http://terminology.hl7.org/CodeSystem/observation-category",
          "code": "procedure",
          "display": "Procedure"
        } ]
      } ],
      "code": {
        "coding": [ {
          "system": "http://snomed.info/sct",
          "code": "254292007",
          "display": "Tumor staging (tumor staging)",
          "userSelected": true
        } ]
      },
      "subject": {
        "reference": "Patient/54b4b9a9-00fd-453f-b8c1-61c324fa68da"
      },
      "focus": [ {
        "reference": "Condition/b3deca53-65c1-489b-b9fd-2b6d65e3fe96"
      } ],
      "effectiveDateTime": "2026-04-26T08:00:00.000+00:00",
      "valueCodeableConcept": {
        "coding": [ {
          "system": "http://snomed.info/sct",
          "code": "1228931008",
          "display": "American Joint Committee on Cancer cT2a (qualifier value)",
          "userSelected": true
        } ]
      }
    }
  }, {
    "fullUrl": "https://madie.cms.gov/Observation/9f26baf1-4e24-4738-9ade-2ced19887ee6",
    "resource": {
      "resourceType": "Observation",
      "id": "9f26baf1-4e24-4738-9ade-2ced19887ee6",
      "meta": {
        "profile": [ "http://hl7.org/fhir/us/qicore/StructureDefinition/qicore-observation-clinical-result" ]
      },
      "status": "final",
      "category": [ {
        "coding": [ {
          "system": "http://terminology.hl7.org/CodeSystem/observation-category",
          "code": "procedure",
          "display": "Procedure"
        } ]
      } ],
      "code": {
        "coding": [ {
          "system": "http://loinc.org",
          "version": "2.72",
          "code": "25031-6",
          "display": "NM Bone Views",
          "userSelected": true
        } ]
      },
      "subject": {
        "reference": "Patient/54b4b9a9-00fd-453f-b8c1-61c324fa68da"
      },
      "effectiveDateTime": "2026-08-17T08:00:00.000+00:00",
      "issued": "2026-08-17T08:00:00.000+00:00",
      "valueString": "Normal results found"
    }
  }, {
    "fullUrl": "https://madie.cms.gov/Coverage/c688eacf-e631-4242-8c6b-0d12ca2d9ce3",
    "resource": {
      "resourceType": "Coverage",
      "id": "c688eacf-e631-4242-8c6b-0d12ca2d9ce3",
      "meta": {
        "profile": [ "http://hl7.org/fhir/us/qicore/StructureDefinition/qicore-coverage" ]
      },
      "status": "active",
      "subscriberId": "123456789",
      "beneficiary": {
        "reference": "Patient/54b4b9a9-00fd-453f-b8c1-61c324fa68da"
      },
      "relationship": {
        "coding": [ {
          "system": "http://terminology.hl7.org/CodeSystem/subscriber-relationship",
          "code": "self",
          "display": "Self",
          "userSelected": true
        } ]
      },
      "payor": [ {
        "reference": "Organization/1fe6b800-e9aa-4cde-a193-d082d2904c15"
      } ]
    }
  }, {
    "fullUrl": "https://madie.cms.gov/Organization/1fe6b800-e9aa-4cde-a193-d082d2904c15",
    "resource": {
      "resourceType": "Organization",
      "id": "1fe6b800-e9aa-4cde-a193-d082d2904c15",
      "meta": {
        "profile": [ "http://hl7.org/fhir/us/qicore/StructureDefinition/qicore-organization" ]
      },
      "identifier": [ {
        "use": "temp",
        "system": "urn:oid:2.16.840.1.113883.4.4",
        "value": "21-3259825"
      } ],
      "active": true,
      "type": [ {
        "coding": [ {
          "system": "http://terminology.hl7.org/CodeSystem/organization-type",
          "code": "pay",
          "display": "Payer"
        } ]
      } ],
      "name": "Blue Cross Blue Shield of Texas",
      "telecom": [ {
        "system": "phone",
        "value": "(+1) 972-766-6900"
      } ],
      "address": [ {
        "use": "billing",
        "type": "postal",
        "line": [ "P.O. Box 660044" ],
        "city": "Dallas",
        "state": "TX",
        "postalCode": "75266-0044",
        "country": "USA"
      } ]
    }
  }, {
    "fullUrl": "https://madie.cms.gov/Practitioner/85dc03fc-d2fa-46dd-b699-642a600edb8b",
    "resource": {
      "resourceType": "Practitioner",
      "id": "85dc03fc-d2fa-46dd-b699-642a600edb8b",
      "meta": {
        "profile": [ "http://hl7.org/fhir/us/qicore/StructureDefinition/qicore-practitioner" ]
      },
      "identifier": [ {
        "system": "http://hl7.org/fhir/sid/us-npi",
        "value": "1234567893"
      } ],
      "name": [ {
        "family": "Evil",
        "prefix": [ "Dr" ]
      } ]
    }
  }, {
    "fullUrl": "https://madie.cms.gov/MeasureReport/c52780c5-efef-4c59-9698-2aaa9ee7ad38",
    "resource": {
      "resourceType": "MeasureReport",
      "id": "c52780c5-efef-4c59-9698-2aaa9ee7ad38",
      "meta": {
        "profile": [ "http://hl7.org/fhir/us/cqfmeasures/StructureDefinition/test-case-cqfm" ]
      },
      "contained": [ {
        "resourceType": "Parameters",
        "id": "7af62797-7ec4-48e9-b0e4-f76c08a06bb5-parameters",
        "parameter": [ {
          "name": "subject",
          "valueString": "54b4b9a9-00fd-453f-b8c1-61c324fa68da"
        } ]
      } ],
      "extension": [ {
        "url": "http://hl7.org/fhir/StructureDefinition/cqf-inputParameters",
        "valueReference": {
          "reference": "#7af62797-7ec4-48e9-b0e4-f76c08a06bb5-parameters"
        }
      }, {
        "url": "http://hl7.org/fhir/us/cqfmeasures/StructureDefinition/cqfm-testCaseDescription",
        "valueMarkdown": "1st Gleason high, 2nd Gleason high, 3rd Gleason low before 1st treatment =pass\n"
      } ],
      "modifierExtension": [ {
        "url": "http://hl7.org/fhir/us/cqfmeasures/StructureDefinition/cqfm-isTestCase",
        "valueBoolean": true
      } ],
      "status": "complete",
      "type": "individual",
      "measure": "https://madie.cms.gov/Measure/CMS129FHIRProstCaBoneScanUse",
      "period": {
        "start": "2026-01-01",
        "end": "2026-12-31"
      },
      "group": [ {
        "id": "Group_1",
        "population": [ {
          "id": "InitialPopulation_1",
          "code": {
            "coding": [ {
              "system": "http://terminology.hl7.org/CodeSystem/measure-population",
              "code": "initial-population",
              "display": "Initial Population"
            } ]
          },
          "count": 1
        }, {
          "id": "Denominator_1",
          "code": {
            "coding": [ {
              "system": "http://terminology.hl7.org/CodeSystem/measure-population",
              "code": "denominator",
              "display": "Denominator"
            } ]
          },
          "count": 1
        }, {
          "id": "Numerator_1",
          "code": {
            "coding": [ {
              "system": "http://terminology.hl7.org/CodeSystem/measure-population",
              "code": "numerator",
              "display": "Numerator"
            } ]
          },
          "count": 0
        }, {
          "id": "DenominatorException_1",
          "code": {
            "coding": [ {
              "system": "http://terminology.hl7.org/CodeSystem/measure-population",
              "code": "denominator-exception",
              "display": "Denominator Exception"
            } ]
          },
          "count": 0
        } ],
        "measureScore": {
          "value": 1.0
        }
      } ],
      "evaluatedResource": [ {
        "reference": "Patient/54b4b9a9-00fd-453f-b8c1-61c324fa68da"
      }, {
        "reference": "Condition/b3deca53-65c1-489b-b9fd-2b6d65e3fe96"
      }, {
        "reference": "Procedure/86df6b80-f2b6-4363-97cd-536b204e46db"
      }, {
        "reference": "Observation/b3fcb189-cd38-4c83-ae5b-2b6bed05da84"
      }, {
        "reference": "Observation/c3b6a4c7-aaca-451f-863c-f514ce2cf810"
      }, {
        "reference": "Observation/d8f935d2-5374-4303-bf15-319b7ed6e799"
      }, {
        "reference": "Observation/b5e41c8e-f466-4a3d-86b3-8361f7f257cb"
      }, {
        "reference": "Observation/f85148ba-44f7-4bc8-925f-5df7f1121a06"
      }, {
        "reference": "Observation/9f26baf1-4e24-4738-9ade-2ced19887ee6"
      }, {
        "reference": "Coverage/c688eacf-e631-4242-8c6b-0d12ca2d9ce3"
      }, {
        "reference": "Organization/1fe6b800-e9aa-4cde-a193-d082d2904c15"
      }, {
        "reference": "Practitioner/85dc03fc-d2fa-46dd-b699-642a600edb8b"
      } ]
    }
  } ]
}