{
  "resourceType": "Bundle",
  "id": "612e6b2e02c62a011f2ecc92",
  "type": "transaction",
  "entry": [ {
    "fullUrl": "https://madie.cms.gov/Patient/98d6da30-f55a-411d-94b4-359b204bcb5a",
    "resource": {
      "resourceType": "Patient",
      "id": "98d6da30-f55a-411d-94b4-359b204bcb5a",
      "meta": {
        "profile": [ "http://hl7.org/fhir/us/qicore/StructureDefinition/qicore-patient" ]
      },
      "text": {
        "status": "generated",
        "div": "<div xmlns=\"http://www.w3.org/1999/xhtml\"><div class=\"hapiHeaderText\">PtRefMOLMWHDayAfterICU<b>NUMERPASS </b></div><table class=\"hapiPropertyTable\"><tbody><tr><td>Identifier</td><td>bec2580a47ed4bf7691b191e0654b2de</td></tr><tr><td>Date of birth</td><td><span>02 January 1974</span></td></tr></tbody></table></div>"
      },
      "extension": [ {
        "url": "http://hl7.org/fhir/us/core/StructureDefinition/us-core-race",
        "extension": [ {
          "url": "ombCategory",
          "valueCoding": {
            "system": "urn:oid:2.16.840.1.113883.6.238",
            "code": "1002-5",
            "display": "American Indian or Alaska Native",
            "userSelected": true
          }
        }, {
          "url": "text",
          "valueString": "American Indian or Alaska Native"
        } ]
      }, {
        "url": "http://hl7.org/fhir/us/core/StructureDefinition/us-core-ethnicity",
        "extension": [ {
          "url": "ombCategory",
          "valueCoding": {
            "system": "urn:oid:2.16.840.1.113883.6.238",
            "code": "2135-2",
            "display": "Hispanic or Latino",
            "userSelected": true
          }
        }, {
          "url": "text",
          "valueString": "Hispanic or Latino"
        } ]
      } ],
      "identifier": [ {
        "type": {
          "coding": [ {
            "system": "http://terminology.hl7.org/CodeSystem/v2-0203",
            "code": "MR"
          } ]
        },
        "system": "https://bonnie-fhir.healthit.gov/",
        "value": "612e6b2e02c62a011f2ecc92"
      } ],
      "active": true,
      "name": [ {
        "use": "usual",
        "family": "NUMERPass",
        "given": [ "PtRefMOUnfractionatedHeparinTaskReject" ]
      } ],
      "gender": "male",
      "birthDate": "1975-01-02"
    },
    "request": {
      "method": "PUT",
      "url": "Patient/98d6da30-f55a-411d-94b4-359b204bcb5a"
    }
  }, {
    "fullUrl": "https://madie.cms.gov/Encounter/59d6ade2-387c-40a6-b4f7-350c4259904a",
    "resource": {
      "resourceType": "Encounter",
      "id": "59d6ade2-387c-40a6-b4f7-350c4259904a",
      "meta": {
        "profile": [ "http://hl7.org/fhir/us/qicore/StructureDefinition/qicore-encounter" ]
      },
      "status": "finished",
      "class": {
        "system": "http://terminology.hl7.org/CodeSystem/v3-ActCode",
        "code": "IMP",
        "display": "inpatient encounter"
      },
      "type": [ {
        "coding": [ {
          "system": "http://snomed.info/sct",
          "code": "8715000"
        } ]
      } ],
      "subject": {
        "reference": "Patient/98d6da30-f55a-411d-94b4-359b204bcb5a"
      },
      "period": {
        "start": "2026-11-01T08:00:00.000+00:00",
        "end": "2026-11-26T08:15:00.000+00:00"
      },
      "length": {
        "value": 25,
        "unit": "days"
      },
      "location": [ {
        "location": {
          "reference": "Location/1a0b5bc0-c9d0-401e-9e4a-d7fde237e7ec"
        },
        "period": {
          "start": "2026-11-04T09:00:00.000+00:00",
          "end": "2026-11-06T08:15:00.000+00:00"
        }
      } ]
    },
    "request": {
      "method": "PUT",
      "url": "Encounter/59d6ade2-387c-40a6-b4f7-350c4259904a"
    }
  }, {
    "fullUrl": "https://madie.cms.gov/Coverage/4179f947-74fe-425f-8a48-238378cbc2b1",
    "resource": {
      "resourceType": "Coverage",
      "id": "4179f947-74fe-425f-8a48-238378cbc2b1",
      "status": "active",
      "beneficiary": {
        "reference": "Patient/98d6da30-f55a-411d-94b4-359b204bcb5a"
      },
      "period": {
        "start": "1975-01-02T08:00:00.000+00:00"
      },
      "payor": [ {
        "reference": "Organization/dd309003-29a4-4576-b799-09098b656cbb"
      } ]
    },
    "request": {
      "method": "PUT",
      "url": "Coverage/4179f947-74fe-425f-8a48-238378cbc2b1"
    }
  }, {
    "fullUrl": "https://madie.cms.gov/MedicationRequest/c7b7b15f-897f-4d4d-ba0a-e2ca0d4789a9",
    "resource": {
      "resourceType": "MedicationRequest",
      "id": "c7b7b15f-897f-4d4d-ba0a-e2ca0d4789a9",
      "meta": {
        "profile": [ "http://hl7.org/fhir/us/qicore/StructureDefinition/qicore-medicationrequest" ]
      },
      "status": "active",
      "intent": "order",
      "category": [ {
        "coding": [ {
          "system": "http://terminology.hl7.org/CodeSystem/medicationrequest-category",
          "code": "inpatient"
        } ]
      } ],
      "doNotPerform": false,
      "medicationCodeableConcept": {
        "coding": [ {
          "system": "http://www.nlm.nih.gov/research/umls/rxnorm",
          "code": "1658647"
        } ]
      },
      "subject": {
        "reference": "Patient/98d6da30-f55a-411d-94b4-359b204bcb5a"
      },
      "authoredOn": "2026-11-01T08:00:00.000+00:00",
      "requester": {
        "reference": "Practitioner/123456"
      },
      "dosageInstruction": [ {
        "timing": {
          "repeat": {
            "boundsPeriod": {
              "start": "2026-11-03T09:00:00.000+00:00"
            }
          }
        }
      } ]
    },
    "request": {
      "method": "PUT",
      "url": "MedicationRequest/c7b7b15f-897f-4d4d-ba0a-e2ca0d4789a9"
    }
  }, {
    "fullUrl": "https://madie.cms.gov/Task/66fe2fcc-fac0-4dc1-9e61-3f60be74a0ce",
    "resource": {
      "resourceType": "Task",
      "id": "66fe2fcc-fac0-4dc1-9e61-3f60be74a0ce",
      "meta": {
        "profile": [ "http://hl7.org/fhir/us/qicore/StructureDefinition/qicore-taskrejected" ]
      },
      "status": "rejected",
      "statusReason": {
        "coding": [ {
          "system": "http://snomed.info/sct",
          "code": "443390004",
          "display": "Refusal of treatment by patient (situation)",
          "userSelected": true
        } ]
      },
      "code": {
        "coding": [ {
          "system": "http://hl7.org/fhir/CodeSystem/task-code",
          "code": "fulfill"
        } ]
      },
      "focus": {
        "reference": "MedicationRequest/c7b7b15f-897f-4d4d-ba0a-e2ca0d4789a9"
      },
      "executionPeriod": {
        "start": "2026-11-01T09:00:00.000+00:00",
        "end": "2026-11-03T09:00:00.000+00:00"
      }
    },
    "request": {
      "method": "PUT",
      "url": "Task/66fe2fcc-fac0-4dc1-9e61-3f60be74a0ce"
    }
  }, {
    "fullUrl": "https://madie.cms.gov/Location/1a0b5bc0-c9d0-401e-9e4a-d7fde237e7ec",
    "resource": {
      "resourceType": "Location",
      "id": "1a0b5bc0-c9d0-401e-9e4a-d7fde237e7ec",
      "meta": {
        "profile": [ "http://hl7.org/fhir/us/qicore/StructureDefinition/qicore-location" ]
      },
      "identifier": [ {
        "use": "usual",
        "system": "http://exampleoflocation.com",
        "value": "B1-S.F2"
      } ],
      "name": "Medical Surgical East, first floor",
      "type": [ {
        "coding": [ {
          "system": "https://www.cdc.gov/nhsn/cdaportal/terminology/codesystem/hsloc.html",
          "code": "1025-6",
          "display": "Trauma Critical Care",
          "userSelected": true
        } ]
      } ]
    },
    "request": {
      "method": "PUT",
      "url": "Location/1a0b5bc0-c9d0-401e-9e4a-d7fde237e7ec"
    }
  }, {
    "fullUrl": "https://madie.cms.gov/Organization/dd309003-29a4-4576-b799-09098b656cbb",
    "resource": {
      "resourceType": "Organization",
      "id": "dd309003-29a4-4576-b799-09098b656cbb",
      "meta": {
        "profile": [ "http://hl7.org/fhir/us/qicore/StructureDefinition/qicore-organization" ]
      },
      "identifier": [ {
        "use": "temp",
        "system": "urn:oid:2.16.840.1.113883.4.4",
        "value": "21-3259825"
      } ],
      "active": true,
      "type": [ {
        "coding": [ {
          "system": "http://terminology.hl7.org/CodeSystem/organization-type",
          "code": "pay",
          "display": "Payer"
        } ]
      } ],
      "name": "Blue Cross Blue Shield of Texas",
      "telecom": [ {
        "system": "phone",
        "value": "(+1) 972-766-6900"
      } ],
      "address": [ {
        "use": "billing",
        "type": "postal",
        "line": [ "P.O. Box 660044" ],
        "city": "Dallas",
        "state": "TX",
        "postalCode": "75266-0044",
        "country": "USA"
      } ]
    },
    "request": {
      "method": "PUT",
      "url": "Organization/dd309003-29a4-4576-b799-09098b656cbb"
    }
  }, {
    "fullUrl": "https://madie.cms.gov/Practitioner/51ed54bb-83c9-4029-89bf-1d70c7923313",
    "resource": {
      "resourceType": "Practitioner",
      "id": "51ed54bb-83c9-4029-89bf-1d70c7923313",
      "identifier": [ {
        "system": "http://hl7.org/fhir/sid/us-npi",
        "value": "123456"
      } ],
      "name": [ {
        "family": "Evil",
        "prefix": [ "Dr" ]
      } ]
    },
    "request": {
      "method": "PUT",
      "url": "Practitioner/51ed54bb-83c9-4029-89bf-1d70c7923313"
    }
  }, {
    "fullUrl": "https://madie.cms.gov/MeasureReport/6e63dc69-1e82-44f5-bccb-e417baa090e5",
    "resource": {
      "resourceType": "MeasureReport",
      "id": "6e63dc69-1e82-44f5-bccb-e417baa090e5",
      "meta": {
        "profile": [ "http://hl7.org/fhir/us/cqfmeasures/StructureDefinition/test-case-cqfm" ]
      },
      "contained": [ {
        "resourceType": "Parameters",
        "id": "1a8d47a3-cac7-47fd-b698-8ca70edd9a36-parameters",
        "parameter": [ {
          "name": "subject",
          "valueString": "98d6da30-f55a-411d-94b4-359b204bcb5a"
        } ]
      } ],
      "extension": [ {
        "url": "http://hl7.org/fhir/StructureDefinition/cqf-inputParameters",
        "valueReference": {
          "reference": "#1a8d47a3-cac7-47fd-b698-8ca70edd9a36-parameters"
        }
      }, {
        "url": "http://hl7.org/fhir/us/cqfmeasures/StructureDefinition/cqfm-testCaseDescription",
        "valueMarkdown": "Patient refusal for Unfractionated Heparin with Task Rejected"
      } ],
      "modifierExtension": [ {
        "url": "http://hl7.org/fhir/us/cqfmeasures/StructureDefinition/cqfm-isTestCase",
        "valueBoolean": true
      } ],
      "status": "complete",
      "type": "individual",
      "measure": "https://madie.cms.gov/Measure/CMS190FHIRVTEProphylaxisICU",
      "period": {
        "start": "2026-01-01",
        "end": "2026-12-31"
      },
      "group": [ {
        "id": "Group_1",
        "population": [ {
          "id": "InitialPopulation_1",
          "code": {
            "coding": [ {
              "system": "http://terminology.hl7.org/CodeSystem/measure-population",
              "code": "initial-population",
              "display": "Initial Population"
            } ]
          },
          "count": 1
        }, {
          "id": "Denominator_1",
          "code": {
            "coding": [ {
              "system": "http://terminology.hl7.org/CodeSystem/measure-population",
              "code": "denominator",
              "display": "Denominator"
            } ]
          },
          "count": 1
        }, {
          "id": "DenominatorExclusion_1",
          "code": {
            "coding": [ {
              "system": "http://terminology.hl7.org/CodeSystem/measure-population",
              "code": "denominator-exclusion",
              "display": "Denominator Exclusion"
            } ]
          },
          "count": 0
        }, {
          "id": "Numerator_1",
          "code": {
            "coding": [ {
              "system": "http://terminology.hl7.org/CodeSystem/measure-population",
              "code": "numerator",
              "display": "Numerator"
            } ]
          },
          "count": 1
        }, {
          "id": "DenominatorException_1",
          "code": {
            "coding": [ {
              "system": "http://terminology.hl7.org/CodeSystem/measure-population",
              "code": "denominator-exception",
              "display": "Denominator Exception"
            } ]
          },
          "count": 0
        } ],
        "measureScore": {
          "value": 0.0
        }
      } ],
      "evaluatedResource": [ {
        "reference": "Patient/98d6da30-f55a-411d-94b4-359b204bcb5a"
      }, {
        "reference": "Encounter/59d6ade2-387c-40a6-b4f7-350c4259904a"
      }, {
        "reference": "Coverage/4179f947-74fe-425f-8a48-238378cbc2b1"
      }, {
        "reference": "MedicationRequest/c7b7b15f-897f-4d4d-ba0a-e2ca0d4789a9"
      }, {
        "reference": "Task/66fe2fcc-fac0-4dc1-9e61-3f60be74a0ce"
      }, {
        "reference": "Location/1a0b5bc0-c9d0-401e-9e4a-d7fde237e7ec"
      }, {
        "reference": "Organization/dd309003-29a4-4576-b799-09098b656cbb"
      }, {
        "reference": "Practitioner/51ed54bb-83c9-4029-89bf-1d70c7923313"
      } ]
    },
    "request": {
      "method": "PUT",
      "url": "MeasureReport/6e63dc69-1e82-44f5-bccb-e417baa090e5"
    }
  } ]
}