{
  "resourceType": "Bundle",
  "id": "NUMPass-RetinalExamRetinopathyInBothEyesJan1OfMP",
  "type": "transaction",
  "entry": [ {
    "fullUrl": "https://madie.cms.gov/Patient/cd42be5f-e738-465a-aa40-e8cfaa2e82e9",
    "resource": {
      "resourceType": "Patient",
      "id": "cd42be5f-e738-465a-aa40-e8cfaa2e82e9",
      "meta": {
        "profile": [ "http://hl7.org/fhir/us/qicore/StructureDefinition/qicore-patient" ]
      },
      "extension": [ {
        "url": "http://hl7.org/fhir/us/core/StructureDefinition/us-core-race",
        "extension": [ {
          "url": "ombCategory",
          "valueCoding": {
            "system": "urn:oid:2.16.840.1.113883.6.238",
            "code": "2028-9",
            "display": "Asian",
            "userSelected": true
          }
        }, {
          "url": "text",
          "valueString": "Asian"
        } ]
      }, {
        "url": "http://hl7.org/fhir/us/core/StructureDefinition/us-core-ethnicity",
        "extension": [ {
          "url": "ombCategory",
          "valueCoding": {
            "system": "urn:oid:2.16.840.1.113883.6.238",
            "code": "2135-2",
            "display": "Hispanic or Latino",
            "userSelected": true
          }
        }, {
          "url": "text",
          "valueString": "Hispanic or Latino"
        } ]
      } ],
      "identifier": [ {
        "type": {
          "coding": [ {
            "system": "http://terminology.hl7.org/CodeSystem/v2-0203",
            "code": "MR"
          } ]
        },
        "system": "http://hospital.smarthealthit.org",
        "value": "999999995"
      } ],
      "name": [ {
        "family": "Bertha",
        "given": [ "Betty" ]
      } ],
      "gender": "female",
      "birthDate": "2007-12-31"
    },
    "request": {
      "method": "PUT",
      "url": "Patient/cd42be5f-e738-465a-aa40-e8cfaa2e82e9"
    }
  }, {
    "fullUrl": "https://madie.cms.gov/Encounter/8298c097-3cd4-4202-91b1-cb6bcea011aa",
    "resource": {
      "resourceType": "Encounter",
      "id": "8298c097-3cd4-4202-91b1-cb6bcea011aa",
      "meta": {
        "profile": [ "http://hl7.org/fhir/us/qicore/StructureDefinition/qicore-encounter" ]
      },
      "status": "finished",
      "class": {
        "system": "http://terminology.hl7.org/CodeSystem/v3-ActCode",
        "code": "AMB",
        "display": "ambulatory"
      },
      "type": [ {
        "coding": [ {
          "system": "http://snomed.info/sct",
          "code": "185463005",
          "display": "Visit out of hours (procedure)"
        } ]
      } ],
      "subject": {
        "reference": "Patient/cd42be5f-e738-465a-aa40-e8cfaa2e82e9"
      },
      "period": {
        "start": "2026-01-01T00:00:00.000+00:00",
        "end": "2026-01-01T00:00:00.000+00:00"
      }
    },
    "request": {
      "method": "PUT",
      "url": "Encounter/8298c097-3cd4-4202-91b1-cb6bcea011aa"
    }
  }, {
    "fullUrl": "https://madie.cms.gov/Condition/b9b9c4ce-0504-4bdb-adfd-04dd6ce10556",
    "resource": {
      "resourceType": "Condition",
      "id": "b9b9c4ce-0504-4bdb-adfd-04dd6ce10556",
      "meta": {
        "profile": [ "http://hl7.org/fhir/us/qicore/StructureDefinition/qicore-condition-encounter-diagnosis" ]
      },
      "clinicalStatus": {
        "coding": [ {
          "system": "http://terminology.hl7.org/CodeSystem/condition-clinical",
          "code": "active"
        } ]
      },
      "category": [ {
        "coding": [ {
          "system": "http://terminology.hl7.org/CodeSystem/condition-category",
          "code": "encounter-diagnosis",
          "display": "Encounter Diagnosis"
        } ]
      } ],
      "code": {
        "coding": [ {
          "system": "http://snomed.info/sct",
          "code": "102781000119107",
          "display": "Sensory neuropathy due to type 1 diabetes mellitus (disorder)"
        } ]
      },
      "subject": {
        "reference": "Patient/cd42be5f-e738-465a-aa40-e8cfaa2e82e9"
      },
      "onsetDateTime": "2026-01-01T00:00:00.000+00:00"
    },
    "request": {
      "method": "PUT",
      "url": "Condition/b9b9c4ce-0504-4bdb-adfd-04dd6ce10556"
    }
  }, {
    "fullUrl": "https://madie.cms.gov/Observation/9c7c32bf-e81f-4ffc-be77-f6b10ffa66fe",
    "resource": {
      "resourceType": "Observation",
      "id": "9c7c32bf-e81f-4ffc-be77-f6b10ffa66fe",
      "meta": {
        "profile": [ "http://hl7.org/fhir/us/qicore/StructureDefinition/qicore-observation-clinical-result" ]
      },
      "status": "final",
      "category": [ {
        "coding": [ {
          "system": "http://terminology.hl7.org/CodeSystem/observation-category",
          "code": "exam"
        } ]
      } ],
      "code": {
        "coding": [ {
          "system": "http://loinc.org",
          "code": "71490-7",
          "display": "Left eye Diabetic retinopathy severity level by Ophthalmoscopy"
        } ]
      },
      "subject": {
        "reference": "Patient/cd42be5f-e738-465a-aa40-e8cfaa2e82e9"
      },
      "effectivePeriod": {
        "start": "2026-01-01T00:00:00.000+00:00",
        "end": "2026-01-01T00:00:00.000+00:00"
      },
      "valueCodeableConcept": {
        "coding": [ {
          "system": "http://loinc.org",
          "code": "LA18645-4",
          "display": "Moderate non-proliferative retinopathy"
        } ]
      }
    },
    "request": {
      "method": "PUT",
      "url": "Observation/9c7c32bf-e81f-4ffc-be77-f6b10ffa66fe"
    }
  }, {
    "fullUrl": "https://madie.cms.gov/Observation/d55491d8-b3d1-4d61-bad1-0b54e1e7f020",
    "resource": {
      "resourceType": "Observation",
      "id": "d55491d8-b3d1-4d61-bad1-0b54e1e7f020",
      "meta": {
        "profile": [ "http://hl7.org/fhir/us/qicore/StructureDefinition/qicore-observation-clinical-result" ]
      },
      "status": "final",
      "category": [ {
        "coding": [ {
          "system": "http://terminology.hl7.org/CodeSystem/observation-category",
          "code": "exam"
        } ]
      } ],
      "code": {
        "coding": [ {
          "system": "http://loinc.org",
          "code": "71491-5",
          "display": "Right eye Diabetic retinopathy severity level by Ophthalmoscopy"
        } ]
      },
      "subject": {
        "reference": "Patient/cd42be5f-e738-465a-aa40-e8cfaa2e82e9"
      },
      "effectivePeriod": {
        "start": "2026-01-01T00:00:00.000+00:00",
        "end": "2026-01-01T00:00:00.000+00:00"
      },
      "valueCodeableConcept": {
        "coding": [ {
          "system": "http://loinc.org",
          "code": "LA18645-4",
          "display": "Moderate non-proliferative retinopathy"
        } ]
      }
    },
    "request": {
      "method": "PUT",
      "url": "Observation/d55491d8-b3d1-4d61-bad1-0b54e1e7f020"
    }
  }, {
    "fullUrl": "https://madie.cms.gov/MeasureReport/6514a69d-8f89-41ba-9947-cdc289fc73ea",
    "resource": {
      "resourceType": "MeasureReport",
      "id": "6514a69d-8f89-41ba-9947-cdc289fc73ea",
      "meta": {
        "profile": [ "http://hl7.org/fhir/us/cqfmeasures/StructureDefinition/test-case-cqfm" ]
      },
      "contained": [ {
        "resourceType": "Parameters",
        "id": "4d12eb90-b9a9-4945-a523-e9d3ed8c69d8-parameters",
        "parameter": [ {
          "name": "subject",
          "valueString": "cd42be5f-e738-465a-aa40-e8cfaa2e82e9"
        } ]
      } ],
      "extension": [ {
        "url": "http://hl7.org/fhir/StructureDefinition/cqf-inputParameters",
        "valueReference": {
          "reference": "#4d12eb90-b9a9-4945-a523-e9d3ed8c69d8-parameters"
        }
      }, {
        "url": "http://hl7.org/fhir/us/cqfmeasures/StructureDefinition/cqfm-testCaseDescription",
        "valueMarkdown": "Retinal exam finding of retinopathy in left eye on 1/1 of MP"
      } ],
      "modifierExtension": [ {
        "url": "http://hl7.org/fhir/us/cqfmeasures/StructureDefinition/cqfm-isTestCase",
        "valueBoolean": true
      } ],
      "status": "complete",
      "type": "individual",
      "measure": "https://madie.cms.gov/Measure/CMS131FHIRDiabetesEyeExam",
      "period": {
        "start": "2026-01-01",
        "end": "2026-12-31"
      },
      "group": [ {
        "id": "Group_1",
        "population": [ {
          "id": "InitialPopulation_1",
          "code": {
            "coding": [ {
              "system": "http://terminology.hl7.org/CodeSystem/measure-population",
              "code": "initial-population",
              "display": "Initial Population"
            } ]
          },
          "count": 1
        }, {
          "id": "Denominator_1",
          "code": {
            "coding": [ {
              "system": "http://terminology.hl7.org/CodeSystem/measure-population",
              "code": "denominator",
              "display": "Denominator"
            } ]
          },
          "count": 1
        }, {
          "id": "DenominatorExclusion_1",
          "code": {
            "coding": [ {
              "system": "http://terminology.hl7.org/CodeSystem/measure-population",
              "code": "denominator-exclusion",
              "display": "Denominator Exclusion"
            } ]
          },
          "count": 0
        }, {
          "id": "Numerator_1",
          "code": {
            "coding": [ {
              "system": "http://terminology.hl7.org/CodeSystem/measure-population",
              "code": "numerator",
              "display": "Numerator"
            } ]
          },
          "count": 1
        } ],
        "measureScore": {
          "value": 1.0
        }
      } ],
      "evaluatedResource": [ {
        "reference": "Patient/cd42be5f-e738-465a-aa40-e8cfaa2e82e9"
      }, {
        "reference": "Encounter/8298c097-3cd4-4202-91b1-cb6bcea011aa"
      }, {
        "reference": "Condition/b9b9c4ce-0504-4bdb-adfd-04dd6ce10556"
      }, {
        "reference": "Observation/9c7c32bf-e81f-4ffc-be77-f6b10ffa66fe"
      }, {
        "reference": "Observation/d55491d8-b3d1-4d61-bad1-0b54e1e7f020"
      } ]
    },
    "request": {
      "method": "PUT",
      "url": "MeasureReport/6514a69d-8f89-41ba-9947-cdc289fc73ea"
    }
  } ]
}