{
  "resourceType": "Bundle",
  "id": "64d117291252352a0771c3b2",
  "type": "transaction",
  "entry": [ {
    "fullUrl": "https://madie.cms.gov/Patient/25f5ac8c-9cab-47fc-b336-8c880ef0c038",
    "resource": {
      "resourceType": "Patient",
      "id": "25f5ac8c-9cab-47fc-b336-8c880ef0c038",
      "meta": {
        "profile": [ "http://hl7.org/fhir/us/qicore/StructureDefinition/qicore-patient" ]
      },
      "extension": [ {
        "url": "http://hl7.org/fhir/us/core/StructureDefinition/us-core-race",
        "extension": [ {
          "url": "ombCategory",
          "valueCoding": {
            "system": "urn:oid:2.16.840.1.113883.6.238",
            "code": "2028-9",
            "display": "Asian",
            "userSelected": true
          }
        }, {
          "url": "text",
          "valueString": "Asian"
        } ]
      }, {
        "url": "http://hl7.org/fhir/us/core/StructureDefinition/us-core-ethnicity",
        "extension": [ {
          "url": "ombCategory",
          "valueCoding": {
            "system": "urn:oid:2.16.840.1.113883.6.238",
            "code": "2186-5",
            "display": "Not Hispanic or Latino",
            "userSelected": true
          }
        }, {
          "url": "text",
          "valueString": "Not Hispanic or Latino"
        } ]
      } ],
      "identifier": [ {
        "type": {
          "coding": [ {
            "system": "http://terminology.hl7.org/CodeSystem/v2-0203",
            "code": "MR"
          } ]
        },
        "system": "https://bonnie-fhir.healthit.gov/",
        "value": "64d117291252352a0771c3b2"
      } ],
      "name": [ {
        "family": "DENOMPass",
        "given": [ "Age16Yr11MoOnJanEdge" ]
      } ],
      "gender": "male",
      "birthDate": "2010-01-02"
    },
    "request": {
      "method": "PUT",
      "url": "Patient/25f5ac8c-9cab-47fc-b336-8c880ef0c038"
    }
  }, {
    "fullUrl": "https://madie.cms.gov/Encounter/e8134ce2-3b73-42d9-bf67-29a17db75d12",
    "resource": {
      "resourceType": "Encounter",
      "id": "e8134ce2-3b73-42d9-bf67-29a17db75d12",
      "status": "finished",
      "class": {
        "system": "http://terminology.hl7.org/CodeSystem/v3-ActCode",
        "code": "AMB",
        "display": "ambulatory",
        "userSelected": true
      },
      "type": [ {
        "coding": [ {
          "system": "http://www.ama-assn.org/go/cpt",
          "code": "90832",
          "userSelected": true
        } ]
      } ],
      "subject": {
        "reference": "Patient/25f5ac8c-9cab-47fc-b336-8c880ef0c038"
      },
      "period": {
        "start": "2027-07-12T11:45:00.000+00:00",
        "end": "2027-07-12T11:50:00.000+00:00"
      },
      "length": {
        "value": 0.0,
        "unit": "days"
      },
      "reasonCode": [ {
        "coding": [ {
          "system": "http://snomed.info/sct",
          "version": "2022-09",
          "code": "10811161000119107",
          "display": "Major depressive disorder in mother complicating pregnancy (disorder)",
          "userSelected": true
        } ]
      } ],
      "diagnosis": [ {
        "condition": {
          "reference": "Condition/3f27ef6a-37f4-4761-8cf1-6f2b64befce7"
        },
        "use": {
          "coding": [ {
            "system": "http://snomed.info/sct",
            "version": "2022-09",
            "code": "10811161000119107",
            "display": "Major depressive disorder in mother complicating pregnancy (disorder)",
            "userSelected": true
          } ]
        }
      } ]
    },
    "request": {
      "method": "PUT",
      "url": "Encounter/e8134ce2-3b73-42d9-bf67-29a17db75d12"
    }
  }, {
    "fullUrl": "https://madie.cms.gov/Condition/3f27ef6a-37f4-4761-8cf1-6f2b64befce7",
    "resource": {
      "resourceType": "Condition",
      "id": "3f27ef6a-37f4-4761-8cf1-6f2b64befce7",
      "category": [ {
        "coding": [ {
          "system": "http://terminology.hl7.org/CodeSystem/condition-category",
          "code": "encounter-diagnosis",
          "display": "Encounter Diagnosis"
        } ]
      } ],
      "code": {
        "coding": [ {
          "system": "http://snomed.info/sct",
          "version": "2022-09",
          "code": "10811121000119102",
          "display": "Major depressive disorder in mother complicating childbirth (disorder)",
          "userSelected": true
        } ]
      },
      "subject": {
        "reference": "Patient/25f5ac8c-9cab-47fc-b336-8c880ef0c038"
      },
      "recordedDate": "2027-07-12T11:45:00.000+00:00"
    },
    "request": {
      "method": "PUT",
      "url": "Condition/3f27ef6a-37f4-4761-8cf1-6f2b64befce7"
    }
  }, {
    "fullUrl": "https://madie.cms.gov/Coverage/f601473f-a710-418e-87cf-aca2b2b2834b",
    "resource": {
      "resourceType": "Coverage",
      "id": "f601473f-a710-418e-87cf-aca2b2b2834b",
      "status": "active",
      "type": {
        "coding": [ {
          "system": "http://www.nlm.nih.gov/research/umls/sop",
          "version": "9.2",
          "code": "1",
          "display": "MEDICARE",
          "userSelected": true
        } ]
      },
      "beneficiary": {
        "reference": "Patient/25f5ac8c-9cab-47fc-b336-8c880ef0c038"
      },
      "period": {
        "start": "2027-01-01T08:00:00.000+00:00",
        "end": "2027-08-29T08:15:00.000+00:00"
      },
      "payor": [ {
        "reference": "Organization/1d9939f4-7a38-44a4-ae5b-48a667c44737"
      } ]
    },
    "request": {
      "method": "PUT",
      "url": "Coverage/f601473f-a710-418e-87cf-aca2b2b2834b"
    }
  }, {
    "fullUrl": "https://madie.cms.gov/Organization/1d9939f4-7a38-44a4-ae5b-48a667c44737",
    "resource": {
      "resourceType": "Organization",
      "id": "1d9939f4-7a38-44a4-ae5b-48a667c44737",
      "meta": {
        "profile": [ "http://hl7.org/fhir/us/qicore/StructureDefinition/qicore-organization" ]
      },
      "identifier": [ {
        "use": "temp",
        "system": "urn:oid:2.16.840.1.113883.4.4",
        "value": "21-3259825"
      } ],
      "active": true,
      "type": [ {
        "coding": [ {
          "system": "http://terminology.hl7.org/CodeSystem/organization-type",
          "code": "pay",
          "display": "Payer"
        } ]
      } ],
      "name": "Blue Cross Blue Shield of Texas",
      "telecom": [ {
        "system": "phone",
        "value": "(+1) 972-766-6900"
      } ],
      "address": [ {
        "use": "billing",
        "type": "postal",
        "line": [ "P.O. Box 660044" ],
        "city": "Dallas",
        "state": "TX",
        "postalCode": "75266-0044",
        "country": "USA"
      } ]
    },
    "request": {
      "method": "PUT",
      "url": "Organization/1d9939f4-7a38-44a4-ae5b-48a667c44737"
    }
  }, {
    "fullUrl": "https://madie.cms.gov/Practitioner/6766903a-f191-4509-9872-28816fb23558",
    "resource": {
      "resourceType": "Practitioner",
      "id": "6766903a-f191-4509-9872-28816fb23558",
      "identifier": [ {
        "system": "http://hl7.org/fhir/sid/us-npi",
        "value": "123456"
      } ],
      "name": [ {
        "family": "Evil",
        "prefix": [ "Dr" ]
      } ]
    },
    "request": {
      "method": "PUT",
      "url": "Practitioner/6766903a-f191-4509-9872-28816fb23558"
    }
  }, {
    "fullUrl": "https://madie.cms.gov/MeasureReport/7493dc15-cbd5-4566-8425-6b29702c3335",
    "resource": {
      "resourceType": "MeasureReport",
      "id": "7493dc15-cbd5-4566-8425-6b29702c3335",
      "meta": {
        "profile": [ "http://hl7.org/fhir/us/cqfmeasures/StructureDefinition/test-case-cqfm" ]
      },
      "contained": [ {
        "resourceType": "Parameters",
        "id": "29cbeab0-887a-4f89-9fcd-46e281030b99-parameters",
        "parameter": [ {
          "name": "subject",
          "valueString": "25f5ac8c-9cab-47fc-b336-8c880ef0c038"
        } ]
      } ],
      "extension": [ {
        "url": "http://hl7.org/fhir/StructureDefinition/cqf-inputParameters",
        "valueReference": {
          "reference": "#29cbeab0-887a-4f89-9fcd-46e281030b99-parameters"
        }
      }, {
        "url": "http://hl7.org/fhir/us/cqfmeasures/StructureDefinition/cqfm-testCaseDescription",
        "valueMarkdown": "Patient is 16 years 11 months 30 days begins with depression and suicide risk assessment during psychotherapy encounter."
      } ],
      "modifierExtension": [ {
        "url": "http://hl7.org/fhir/us/cqfmeasures/StructureDefinition/cqfm-isTestCase",
        "valueBoolean": true
      } ],
      "status": "complete",
      "type": "individual",
      "measure": "https://madie.cms.gov/Measure/CMS177FHIRChildMDDSuicideAssmt",
      "period": {
        "start": "2026-01-01",
        "end": "2026-12-31"
      },
      "group": [ {
        "id": "Group_1",
        "population": [ {
          "id": "InitialPopulation_1",
          "code": {
            "coding": [ {
              "system": "http://terminology.hl7.org/CodeSystem/measure-population",
              "code": "initial-population",
              "display": "Initial Population"
            } ]
          },
          "count": 0
        }, {
          "id": "Denominator_1",
          "code": {
            "coding": [ {
              "system": "http://terminology.hl7.org/CodeSystem/measure-population",
              "code": "denominator",
              "display": "Denominator"
            } ]
          },
          "count": 0
        }, {
          "id": "Numerator_1",
          "code": {
            "coding": [ {
              "system": "http://terminology.hl7.org/CodeSystem/measure-population",
              "code": "numerator",
              "display": "Numerator"
            } ]
          },
          "count": 0
        } ],
        "measureScore": {
          "value": 0.0
        }
      } ],
      "evaluatedResource": [ {
        "reference": "Patient/25f5ac8c-9cab-47fc-b336-8c880ef0c038"
      }, {
        "reference": "Encounter/e8134ce2-3b73-42d9-bf67-29a17db75d12"
      }, {
        "reference": "Condition/3f27ef6a-37f4-4761-8cf1-6f2b64befce7"
      }, {
        "reference": "Coverage/f601473f-a710-418e-87cf-aca2b2b2834b"
      }, {
        "reference": "Organization/1d9939f4-7a38-44a4-ae5b-48a667c44737"
      }, {
        "reference": "Practitioner/6766903a-f191-4509-9872-28816fb23558"
      } ]
    },
    "request": {
      "method": "PUT",
      "url": "MeasureReport/7493dc15-cbd5-4566-8425-6b29702c3335"
    }
  } ]
}