{
  "resourceType": "Bundle",
  "id": "NUMERFail-FallAdvEventNoDates",
  "type": "transaction",
  "entry": [ {
    "fullUrl": "https://madie.cms.gov/Encounter/1d5bd2e7-7cc3-40d1-ae30-3245ab89b338",
    "resource": {
      "resourceType": "Encounter",
      "id": "1d5bd2e7-7cc3-40d1-ae30-3245ab89b338",
      "meta": {
        "profile": [ "http://hl7.org/fhir/us/qicore/StructureDefinition/qicore-encounter" ]
      },
      "status": "finished",
      "class": {
        "system": "http://terminology.hl7.org/CodeSystem/v3-ActCode",
        "code": "IMP",
        "display": "inpatient encounter"
      },
      "type": [ {
        "coding": [ {
          "system": "http://snomed.info/sct",
          "code": "183452005"
        } ]
      } ],
      "subject": {
        "reference": "Patient/6442de45-b65d-4bda-8143-0e9c28d19485"
      },
      "period": {
        "start": "2026-11-02T11:00:00.000+00:00",
        "end": "2026-11-05T08:15:00.000+00:00"
      },
      "diagnosis": [ {
        "extension": [ {
          "url": "http://hl7.org/fhir/us/qicore/StructureDefinition/qicore-encounter-diagnosisPresentOnAdmission",
          "valueCodeableConcept": {
            "coding": [ {
              "system": "https://www.cms.gov/Medicare/Medicare-Fee-for-Service-Payment/HospitalAcqCond/Coding",
              "code": "N"
            } ]
          }
        } ],
        "condition": {
          "reference": "Condition/7872b1d1-d86e-408d-a516-f07090824841"
        }
      } ]
    },
    "request": {
      "method": "PUT",
      "url": "Encounter/1d5bd2e7-7cc3-40d1-ae30-3245ab89b338"
    }
  }, {
    "fullUrl": "https://madie.cms.gov/Encounter/a623060a-8199-419d-aea5-e636a4202afe",
    "resource": {
      "resourceType": "Encounter",
      "id": "a623060a-8199-419d-aea5-e636a4202afe",
      "meta": {
        "profile": [ "http://hl7.org/fhir/us/qicore/StructureDefinition/qicore-encounter" ]
      },
      "status": "finished",
      "class": {
        "system": "http://terminology.hl7.org/CodeSystem/v3-ActCode",
        "code": "IMP",
        "display": "inpatient encounter"
      },
      "type": [ {
        "coding": [ {
          "system": "http://snomed.info/sct",
          "code": "4525004"
        } ]
      } ],
      "subject": {
        "reference": "Patient/6442de45-b65d-4bda-8143-0e9c28d19485"
      },
      "period": {
        "start": "2026-11-02T08:00:00.000+00:00",
        "end": "2026-11-02T08:15:00.000+00:00"
      }
    },
    "request": {
      "method": "PUT",
      "url": "Encounter/a623060a-8199-419d-aea5-e636a4202afe"
    }
  }, {
    "fullUrl": "https://madie.cms.gov/Condition/7872b1d1-d86e-408d-a516-f07090824841",
    "resource": {
      "resourceType": "Condition",
      "id": "7872b1d1-d86e-408d-a516-f07090824841",
      "meta": {
        "profile": [ "http://hl7.org/fhir/us/qicore/StructureDefinition/qicore-condition" ]
      },
      "clinicalStatus": {
        "coding": [ {
          "system": "http://terminology.hl7.org/CodeSystem/condition-clinical",
          "code": "active"
        } ]
      },
      "verificationStatus": {
        "coding": [ {
          "system": "http://terminology.hl7.org/CodeSystem/condition-ver-status",
          "code": "confirmed"
        } ]
      },
      "category": [ {
        "coding": [ {
          "system": "http://terminology.hl7.org/CodeSystem/condition-category",
          "code": "encounter-diagnosis",
          "display": "Encounter Diagnosis"
        } ]
      } ],
      "code": {
        "coding": [ {
          "system": "http://hl7.org/fhir/sid/icd-10-cm",
          "code": "M80.00XA"
        } ]
      },
      "subject": {
        "reference": "Patient/6442de45-b65d-4bda-8143-0e9c28d19485"
      },
      "encounter": {
        "reference": "Encounter/1d5bd2e7-7cc3-40d1-ae30-3245ab89b338"
      }
    },
    "request": {
      "method": "PUT",
      "url": "Condition/7872b1d1-d86e-408d-a516-f07090824841"
    }
  }, {
    "fullUrl": "https://madie.cms.gov/Patient/6442de45-b65d-4bda-8143-0e9c28d19485",
    "resource": {
      "resourceType": "Patient",
      "id": "6442de45-b65d-4bda-8143-0e9c28d19485",
      "meta": {
        "profile": [ "http://hl7.org/fhir/us/qicore/StructureDefinition/qicore-patient" ]
      },
      "extension": [ {
        "url": "http://hl7.org/fhir/us/core/StructureDefinition/us-core-race",
        "extension": [ {
          "url": "ombCategory",
          "valueCoding": {
            "system": "urn:oid:2.16.840.1.113883.6.238",
            "code": "2054-5",
            "display": "Black or African American",
            "userSelected": true
          }
        }, {
          "url": "text",
          "valueString": "Black or African American"
        } ]
      }, {
        "url": "http://hl7.org/fhir/us/core/StructureDefinition/us-core-ethnicity",
        "extension": [ {
          "url": "ombCategory",
          "valueCoding": {
            "system": "urn:oid:2.16.840.1.113883.6.238",
            "code": "2186-5",
            "display": "Not Hispanic or Latino",
            "userSelected": true
          }
        }, {
          "url": "text",
          "valueString": "Not Hispanic or Latino"
        } ]
      } ],
      "identifier": [ {
        "type": {
          "coding": [ {
            "system": "http://terminology.hl7.org/CodeSystem/v2-0203",
            "code": "MR"
          } ]
        },
        "system": "https://bonnie-fhir.healthit.gov/",
        "value": "61152a3b98086b7a79cbd7c1"
      } ],
      "active": true,
      "name": [ {
        "use": "usual",
        "family": "NUMERFail",
        "given": [ "FallAdvEventNoDates" ]
      } ],
      "gender": "male",
      "birthDate": "1984-06-11"
    },
    "request": {
      "method": "PUT",
      "url": "Patient/6442de45-b65d-4bda-8143-0e9c28d19485"
    }
  }, {
    "fullUrl": "https://madie.cms.gov/AdverseEvent/08cc681b-3371-43a1-ade0-9222f2183c55",
    "resource": {
      "resourceType": "AdverseEvent",
      "id": "08cc681b-3371-43a1-ade0-9222f2183c55",
      "meta": {
        "profile": [ "http://hl7.org/fhir/us/qicore/StructureDefinition/qicore-adverseevent" ]
      },
      "actuality": "actual",
      "event": {
        "coding": [ {
          "system": "http://hl7.org/fhir/sid/icd-10-cm",
          "code": "W01.0XXA"
        } ]
      },
      "subject": {
        "reference": "Patient/6442de45-b65d-4bda-8143-0e9c28d19485"
      }
    },
    "request": {
      "method": "PUT",
      "url": "AdverseEvent/08cc681b-3371-43a1-ade0-9222f2183c55"
    }
  }, {
    "fullUrl": "https://madie.cms.gov/MeasureReport/b81497c1-2782-497e-b242-04fe0f4eb196",
    "resource": {
      "resourceType": "MeasureReport",
      "id": "b81497c1-2782-497e-b242-04fe0f4eb196",
      "meta": {
        "profile": [ "http://hl7.org/fhir/us/cqfmeasures/StructureDefinition/test-case-cqfm" ]
      },
      "contained": [ {
        "resourceType": "Parameters",
        "id": "c3762241-ea88-4096-a326-791caca44391-parameters",
        "parameter": [ {
          "name": "subject",
          "valueString": "6442de45-b65d-4bda-8143-0e9c28d19485"
        } ]
      } ],
      "extension": [ {
        "url": "http://hl7.org/fhir/StructureDefinition/cqf-inputParameters",
        "valueReference": {
          "reference": "#c3762241-ea88-4096-a326-791caca44391-parameters"
        }
      }, {
        "url": "http://hl7.org/fhir/us/cqfmeasures/StructureDefinition/cqfm-testCaseDescription",
        "valueMarkdown": "Encounter with Adverse Event Fall, but no author or relevant date/time during Encounter. Encounter diag of major injury NPOA. Need relevant date time of fall to meet numerator. Numerator Fails."
      } ],
      "modifierExtension": [ {
        "url": "http://hl7.org/fhir/us/cqfmeasures/StructureDefinition/cqfm-isTestCase",
        "valueBoolean": true
      } ],
      "status": "complete",
      "type": "individual",
      "measure": "https://madie.cms.gov/Measure/CMS1017FHIRHHFI",
      "period": {
        "start": "2026-01-01",
        "end": "2026-12-31"
      },
      "group": [ {
        "id": "Group_1",
        "population": [ {
          "id": "InitialPopulation_1",
          "code": {
            "coding": [ {
              "system": "http://terminology.hl7.org/CodeSystem/measure-population",
              "code": "initial-population",
              "display": "Initial Population"
            } ]
          },
          "count": 1
        }, {
          "id": "Denominator_1",
          "code": {
            "coding": [ {
              "system": "http://terminology.hl7.org/CodeSystem/measure-population",
              "code": "denominator",
              "display": "Denominator"
            } ]
          },
          "count": 1
        }, {
          "id": "DenominatorExclusion_1",
          "code": {
            "coding": [ {
              "system": "http://terminology.hl7.org/CodeSystem/measure-population",
              "code": "denominator-exclusion",
              "display": "Denominator Exclusion"
            } ]
          },
          "count": 0
        }, {
          "id": "Numerator_1",
          "code": {
            "coding": [ {
              "system": "http://terminology.hl7.org/CodeSystem/measure-population",
              "code": "numerator",
              "display": "Numerator"
            } ]
          },
          "count": 0
        }, {
          "id": "NumeratorExclusion_1",
          "code": {
            "coding": [ {
              "system": "http://terminology.hl7.org/CodeSystem/measure-population",
              "code": "numerator-exclusion",
              "display": "Numerator Exclusion"
            } ]
          },
          "count": 0
        }, {
          "id": "MeasureObservation_1_1_1",
          "code": {
            "coding": [ {
              "system": "http://terminology.hl7.org/CodeSystem/measure-population",
              "code": "measure-observation",
              "display": "Measure Observation"
            } ]
          },
          "count": 2
        } ],
        "measureScore": {
          "value": 0.0
        }
      } ],
      "evaluatedResource": [ {
        "reference": "Encounter/1d5bd2e7-7cc3-40d1-ae30-3245ab89b338"
      }, {
        "reference": "Encounter/a623060a-8199-419d-aea5-e636a4202afe"
      }, {
        "reference": "Condition/7872b1d1-d86e-408d-a516-f07090824841"
      }, {
        "reference": "Patient/6442de45-b65d-4bda-8143-0e9c28d19485"
      }, {
        "reference": "AdverseEvent/08cc681b-3371-43a1-ade0-9222f2183c55"
      } ]
    },
    "request": {
      "method": "PUT",
      "url": "MeasureReport/b81497c1-2782-497e-b242-04fe0f4eb196"
    }
  } ]
}