{
  "resourceType": "Bundle",
  "id": "657cbdc9b4f1f0343662347a",
  "type": "transaction",
  "entry": [ {
    "fullUrl": "https://madie.cms.gov/Patient/5796742c-16e9-4c84-9a5a-e695d96a9b2a",
    "resource": {
      "resourceType": "Patient",
      "id": "5796742c-16e9-4c84-9a5a-e695d96a9b2a",
      "meta": {
        "profile": [ "http://hl7.org/fhir/us/qicore/StructureDefinition/qicore-patient" ]
      },
      "extension": [ {
        "url": "http://hl7.org/fhir/us/core/StructureDefinition/us-core-race",
        "extension": [ {
          "url": "ombCategory",
          "valueCoding": {
            "system": "urn:oid:2.16.840.1.113883.6.238",
            "code": "2106-3",
            "display": "White",
            "userSelected": true
          }
        }, {
          "url": "text",
          "valueString": "White"
        } ]
      }, {
        "url": "http://hl7.org/fhir/us/core/StructureDefinition/us-core-ethnicity",
        "extension": [ {
          "url": "ombCategory",
          "valueCoding": {
            "system": "urn:oid:2.16.840.1.113883.6.238",
            "code": "2186-5",
            "display": "Not Hispanic or Latino",
            "userSelected": true
          }
        }, {
          "url": "text",
          "valueString": "Not Hispanic or Latino"
        } ]
      } ],
      "identifier": [ {
        "type": {
          "coding": [ {
            "system": "http://terminology.hl7.org/CodeSystem/v2-0203",
            "code": "MR"
          } ]
        },
        "system": "https://bonnie-fhir.healthit.gov/",
        "value": "657cbdc9b4f1f0343662347a"
      } ],
      "name": [ {
        "family": "ServiceRequestPass",
        "given": [ "ServiceRequestAttributes" ]
      } ],
      "gender": "female",
      "birthDate": "2008-01-01"
    },
    "request": {
      "method": "PUT",
      "url": "Patient/5796742c-16e9-4c84-9a5a-e695d96a9b2a"
    }
  }, {
    "fullUrl": "https://madie.cms.gov/Encounter/81d9dd12-5ce4-4aab-a8fe-544b23521559",
    "resource": {
      "resourceType": "Encounter",
      "id": "81d9dd12-5ce4-4aab-a8fe-544b23521559",
      "meta": {
        "profile": [ "http://hl7.org/fhir/us/qicore/StructureDefinition/qicore-encounter" ]
      },
      "status": "finished",
      "class": {
        "system": "http://terminology.hl7.org/CodeSystem/v3-ActCode",
        "code": "ACUTE",
        "display": "inpatient acute"
      },
      "type": [ {
        "coding": [ {
          "system": "http://snomed.info/sct",
          "version": "2024",
          "code": "32485007",
          "display": "Hospital admission (procedure)",
          "userSelected": true
        } ]
      } ],
      "subject": {
        "reference": "Patient/5796742c-16e9-4c84-9a5a-e695d96a9b2a"
      },
      "period": {
        "start": "2026-01-01T08:00:00.000+00:00",
        "end": "2026-01-02T09:15:00.000+00:00"
      }
    },
    "request": {
      "method": "PUT",
      "url": "Encounter/81d9dd12-5ce4-4aab-a8fe-544b23521559"
    }
  }, {
    "fullUrl": "https://madie.cms.gov/Location/cb12222e-11e1-402f-b511-c1969b39f224",
    "resource": {
      "resourceType": "Location",
      "id": "cb12222e-11e1-402f-b511-c1969b39f224",
      "meta": {
        "profile": [ "http://hl7.org/fhir/us/qicore/StructureDefinition/qicore-location" ]
      },
      "identifier": [ {
        "use": "usual",
        "system": "http://exampleoflocation.com",
        "value": "B1-S.F2"
      } ],
      "name": "Medical Surgical East, first floor",
      "type": [ {
        "coding": [ {
          "system": "https://www.cdc.gov/nhsn/cdaportal/terminology/codesystem/hsloc.html",
          "code": "1028-0",
          "display": "Medical Cardiac Critical Care",
          "userSelected": true
        } ]
      } ]
    },
    "request": {
      "method": "PUT",
      "url": "Location/cb12222e-11e1-402f-b511-c1969b39f224"
    }
  }, {
    "fullUrl": "https://madie.cms.gov/MedicationRequest/cf34b0a4-aba5-41bc-8be0-a4c41c50e288",
    "resource": {
      "resourceType": "MedicationRequest",
      "id": "cf34b0a4-aba5-41bc-8be0-a4c41c50e288",
      "meta": {
        "profile": [ "http://hl7.org/fhir/us/qicore/StructureDefinition/qicore-medicationrequest" ]
      },
      "status": "completed",
      "intent": "order",
      "medicationCodeableConcept": {
        "coding": [ {
          "system": "http://www.nlm.nih.gov/research/umls/rxnorm",
          "code": "1007184"
        } ]
      },
      "subject": {
        "reference": "Patient/5796742c-16e9-4c84-9a5a-e695d96a9b2a"
      },
      "authoredOn": "2026-01-01T08:15:00.000+00:00",
      "requester": {
        "reference": "Practitioner/5fd8a304-63df-4161-b51d-15fafe1974fa"
      },
      "dosageInstruction": [ {
        "timing": {
          "repeat": {
            "boundsPeriod": {
              "start": "2025-01-01T08:15:00.000+00:00",
              "end": "2025-01-10T08:15:00.000+00:00"
            }
          }
        }
      } ]
    },
    "request": {
      "method": "PUT",
      "url": "MedicationRequest/cf34b0a4-aba5-41bc-8be0-a4c41c50e288"
    }
  }, {
    "fullUrl": "https://madie.cms.gov/Condition/de2fe888-5ddc-4945-a675-b86d0f5de6a6",
    "resource": {
      "resourceType": "Condition",
      "id": "de2fe888-5ddc-4945-a675-b86d0f5de6a6",
      "meta": {
        "profile": [ "http://hl7.org/fhir/us/qicore/StructureDefinition/qicore-condition-problems-health-concerns" ]
      },
      "clinicalStatus": {
        "coding": [ {
          "system": "http://terminology.hl7.org/CodeSystem/condition-clinical",
          "code": "active",
          "display": "Active",
          "userSelected": true
        } ]
      },
      "verificationStatus": {
        "coding": [ {
          "system": "http://terminology.hl7.org/CodeSystem/condition-ver-status",
          "code": "confirmed",
          "display": "confirmed",
          "userSelected": true
        } ]
      },
      "category": [ {
        "coding": [ {
          "system": "http://terminology.hl7.org/CodeSystem/condition-category",
          "code": "encounter-diagnosis",
          "display": "Encounter Diagnosis"
        }, {
          "system": "http://snomed.info/sct",
          "code": "439401001",
          "display": "Diagnosis"
        }, {
          "system": "http://terminology.hl7.org/CodeSystem/condition-category",
          "code": "problem-list-item",
          "display": "Problem List Item"
        } ]
      } ],
      "code": {
        "coding": [ {
          "system": "http://snomed.info/sct",
          "version": "2023-09",
          "code": "46635009",
          "display": "Diabetes mellitus type 1",
          "userSelected": true
        } ]
      },
      "subject": {
        "reference": "Patient/5796742c-16e9-4c84-9a5a-e695d96a9b2a"
      },
      "onsetDateTime": "2026-01-01T00:00:00.000+00:00",
      "recordedDate": "2026-01-01T08:10:00.000+00:00"
    },
    "request": {
      "method": "PUT",
      "url": "Condition/de2fe888-5ddc-4945-a675-b86d0f5de6a6"
    }
  }, {
    "fullUrl": "https://madie.cms.gov/ServiceRequest/179327b9-faf4-4725-b84c-e3a0f94d90a3",
    "resource": {
      "resourceType": "ServiceRequest",
      "id": "179327b9-faf4-4725-b84c-e3a0f94d90a3",
      "meta": {
        "profile": [ "http://hl7.org/fhir/us/qicore/StructureDefinition/qicore-servicerequest" ]
      },
      "identifier": [ {
        "system": "https://acme.org/identifiers",
        "value": "1234"
      } ],
      "instantiatesCanonical": [ "http://www.bccancer.bc.ca/chemotherapy-protocols-site/Documents/Lymphoma-Myeloma/ULYBRENTUX%20Protocol_1Jun2017.pdf" ],
      "instantiatesUri": [ "http://www.bccancer.bc.ca/chemotherapy-protocols-site/Documents/Lymphoma-Myeloma/ULYBRENTUX%20Protocol_1Jun2017.pdf" ],
      "basedOn": [ {
        "reference": "ServiceRequest/123456"
      } ],
      "replaces": [ {
        "reference": "ServiceRequest/123456"
      } ],
      "requisition": {
        "value": "A13848392"
      },
      "status": "active",
      "intent": "order",
      "category": [ {
        "coding": [ {
          "system": "http://snomed.info/sct",
          "code": "103693007",
          "display": "Diagnostic procedure (procedure)"
        } ],
        "text": "Diagnostics Procedure"
      } ],
      "priority": "routine",
      "doNotPerform": false,
      "code": {
        "coding": [ {
          "system": "http://www.ama-assn.org/go/cpt",
          "version": "2024",
          "code": "64450",
          "display": "Injection(s), anesthetic agent(s) and/or steroid; other peripheral nerve or branch",
          "userSelected": true
        } ]
      },
      "orderDetail": [ {
        "coding": [ {
          "system": "http://snomed.info/sct",
          "code": "243144002",
          "display": "Patient triggered inspiratory assistance (procedure)"
        } ],
        "text": "IPPB"
      }, {
        "text": " Initial Settings : Sens: -1 cm H20 Pressure 15 cm H2O moderate flow:  Monitor VS every 15 minutes x 4 at the start of mechanical ventilation, then routine for unit OR every 5 hr"
      } ],
      "quantityQuantity": {
        "value": 1
      },
      "subject": {
        "reference": "Patient/5796742c-16e9-4c84-9a5a-e695d96a9b2a"
      },
      "encounter": {
        "reference": "Encounter/81d9dd12-5ce4-4aab-a8fe-544b23521559"
      },
      "occurrenceDateTime": "2026-01-01T16:16:00.000+00:00",
      "asNeededCodeableConcept": {
        "text": "as needed to clear mucus"
      },
      "authoredOn": "2026-01-01T08:00:00.000+00:00",
      "requester": {
        "reference": "Practitioner/5fd8a304-63df-4161-b51d-15fafe1974fa"
      },
      "performerType": {
        "coding": [ {
          "system": "http://snomed.info/sct",
          "code": "106292003",
          "display": "Professional nurse (occupation)"
        } ]
      },
      "performer": [ {
        "reference": "Practitioner/f202"
      } ],
      "locationCode": [ {
        "coding": [ {
          "system": "http://terminology.hl7.org/CodeSystem/v3-RoleCode",
          "code": "HOSP",
          "display": "Hospital"
        } ]
      } ],
      "reasonCode": [ {
        "coding": [ {
          "system": "http://hl7.org/fhir/sid/icd-9",
          "code": "V173",
          "display": "Fam hx-ischem heart dis"
        } ]
      } ],
      "reasonReference": [ {
        "reference": "Condition/de2fe888-5ddc-4945-a675-b86d0f5de6a6"
      } ],
      "insurance": [ {
        "reference": "Coverage/9876B1"
      } ],
      "bodySite": [ {
        "coding": [ {
          "display": "Right arm"
        } ],
        "text": "Right arm"
      } ],
      "note": [ {
        "text": "patient is afraid of needles"
      } ],
      "patientInstruction": "Start with 30kg 10-15 repetitions for three sets and increase in increments of 5kg when you feel ready"
    },
    "request": {
      "method": "PUT",
      "url": "ServiceRequest/179327b9-faf4-4725-b84c-e3a0f94d90a3"
    }
  }, {
    "fullUrl": "https://madie.cms.gov/Coverage/32a36ab5-9c9b-4a23-b892-8714d8598118",
    "resource": {
      "resourceType": "Coverage",
      "id": "32a36ab5-9c9b-4a23-b892-8714d8598118",
      "meta": {
        "profile": [ "http://hl7.org/fhir/us/qicore/StructureDefinition/qicore-coverage" ]
      },
      "identifier": [ {
        "system": "http://benefitsinc.com/certificate",
        "value": "12345"
      } ],
      "status": "active",
      "type": {
        "coding": [ {
          "system": "https://nahdo.org/sopt",
          "version": "1.0.1",
          "code": "1",
          "display": "MEDICARE",
          "userSelected": true
        } ]
      },
      "subscriberId": "AB9876",
      "beneficiary": {
        "reference": "Patient/5796742c-16e9-4c84-9a5a-e695d96a9b2a"
      },
      "relationship": {
        "coding": [ {
          "system": "http://terminology.hl7.org/CodeSystem/subscriber-relationship",
          "code": "self"
        } ]
      },
      "period": {
        "start": "2026-01-01T00:00:00.000+00:00",
        "end": "2027-03-26T08:15:00.000+00:00"
      },
      "payor": [ {
        "reference": "Organization/e507f953-923a-4f98-bb53-75a631f85712"
      } ]
    },
    "request": {
      "method": "PUT",
      "url": "Coverage/32a36ab5-9c9b-4a23-b892-8714d8598118"
    }
  }, {
    "fullUrl": "https://madie.cms.gov/Organization/e507f953-923a-4f98-bb53-75a631f85712",
    "resource": {
      "resourceType": "Organization",
      "id": "e507f953-923a-4f98-bb53-75a631f85712",
      "meta": {
        "profile": [ "http://hl7.org/fhir/us/qicore/StructureDefinition/qicore-organization" ]
      },
      "identifier": [ {
        "use": "temp",
        "system": "urn:oid:2.16.840.1.113883.4.4",
        "value": "21-3259825"
      } ],
      "active": true,
      "type": [ {
        "coding": [ {
          "system": "http://terminology.hl7.org/CodeSystem/organization-type",
          "code": "pay",
          "display": "Payer"
        } ]
      } ],
      "name": "Blue Cross Blue Shield of Texas",
      "telecom": [ {
        "system": "phone",
        "value": "(+1) 972-766-6900"
      } ],
      "address": [ {
        "use": "billing",
        "type": "postal",
        "line": [ "P.O. Box 660044" ],
        "city": "Dallas",
        "state": "TX",
        "postalCode": "75266-0044",
        "country": "USA"
      } ]
    },
    "request": {
      "method": "PUT",
      "url": "Organization/e507f953-923a-4f98-bb53-75a631f85712"
    }
  }, {
    "fullUrl": "https://madie.cms.gov/Practitioner/5fd8a304-63df-4161-b51d-15fafe1974fa",
    "resource": {
      "resourceType": "Practitioner",
      "id": "5fd8a304-63df-4161-b51d-15fafe1974fa",
      "meta": {
        "profile": [ "http://hl7.org/fhir/us/qicore/StructureDefinition/qicore-practitioner" ]
      },
      "identifier": [ {
        "system": "http://hl7.org/fhir/sid/us-npi",
        "value": "0723660813"
      } ],
      "name": [ {
        "family": "Evil",
        "prefix": [ "Dr" ]
      } ]
    },
    "request": {
      "method": "PUT",
      "url": "Practitioner/5fd8a304-63df-4161-b51d-15fafe1974fa"
    }
  }, {
    "fullUrl": "https://madie.cms.gov/MeasureReport/e2bc501d-0af6-4a1d-93a5-932996f82740",
    "resource": {
      "resourceType": "MeasureReport",
      "id": "e2bc501d-0af6-4a1d-93a5-932996f82740",
      "meta": {
        "profile": [ "http://hl7.org/fhir/us/cqfmeasures/StructureDefinition/test-case-cqfm" ]
      },
      "contained": [ {
        "resourceType": "Parameters",
        "id": "5cf355e5-0e0c-4921-95a7-a1e23be44390-parameters",
        "parameter": [ {
          "name": "subject",
          "valueString": "5796742c-16e9-4c84-9a5a-e695d96a9b2a"
        } ]
      } ],
      "extension": [ {
        "url": "http://hl7.org/fhir/StructureDefinition/cqf-inputParameters",
        "valueReference": {
          "reference": "#5cf355e5-0e0c-4921-95a7-a1e23be44390-parameters"
        }
      }, {
        "url": "http://hl7.org/fhir/us/cqfmeasures/StructureDefinition/cqfm-testCaseDescription",
        "valueMarkdown": "Testing service request attributes"
      } ],
      "modifierExtension": [ {
        "url": "http://hl7.org/fhir/us/cqfmeasures/StructureDefinition/cqfm-isTestCase",
        "valueBoolean": true
      } ],
      "status": "complete",
      "type": "individual",
      "measure": "https://madie.cms.gov/Measure/NHSNGlycemicControlHypoglycemiaInitialPopulation",
      "period": {
        "start": "2026-01-01",
        "end": "2026-12-31"
      },
      "group": [ {
        "id": "Group_1",
        "population": [ {
          "id": "InitialPopulation_1",
          "code": {
            "coding": [ {
              "system": "http://terminology.hl7.org/CodeSystem/measure-population",
              "code": "initial-population",
              "display": "Initial Population"
            } ]
          },
          "count": 1
        } ],
        "measureScore": {
          "value": 0.0
        }
      } ],
      "evaluatedResource": [ {
        "reference": "Patient/5796742c-16e9-4c84-9a5a-e695d96a9b2a"
      }, {
        "reference": "Encounter/81d9dd12-5ce4-4aab-a8fe-544b23521559"
      }, {
        "reference": "Location/cb12222e-11e1-402f-b511-c1969b39f224"
      }, {
        "reference": "MedicationRequest/cf34b0a4-aba5-41bc-8be0-a4c41c50e288"
      }, {
        "reference": "Condition/de2fe888-5ddc-4945-a675-b86d0f5de6a6"
      }, {
        "reference": "ServiceRequest/179327b9-faf4-4725-b84c-e3a0f94d90a3"
      }, {
        "reference": "Coverage/32a36ab5-9c9b-4a23-b892-8714d8598118"
      }, {
        "reference": "Organization/e507f953-923a-4f98-bb53-75a631f85712"
      }, {
        "reference": "Practitioner/5fd8a304-63df-4161-b51d-15fafe1974fa"
      } ]
    },
    "request": {
      "method": "PUT",
      "url": "MeasureReport/e2bc501d-0af6-4a1d-93a5-932996f82740"
    }
  } ]
}