{
  "resourceType": "Bundle",
  "id": "tests-DenexFail-ComfortCareOrderedAfterEncounterEnds-bundle",
  "type": "transaction",
  "entry": [ {
    "fullUrl": "https://madie.cms.gov/Condition/968eabf0-2c31-4e6d-8074-0292c0a4f5f1",
    "resource": {
      "resourceType": "Condition",
      "id": "968eabf0-2c31-4e6d-8074-0292c0a4f5f1",
      "meta": {
        "profile": [ "http://hl7.org/fhir/us/qicore/StructureDefinition/qicore-condition-encounter-diagnosis" ]
      },
      "clinicalStatus": {
        "coding": [ {
          "system": "http://terminology.hl7.org/CodeSystem/condition-clinical",
          "code": "active"
        } ]
      },
      "verificationStatus": {
        "coding": [ {
          "system": "http://terminology.hl7.org/CodeSystem/condition-ver-status",
          "code": "confirmed"
        } ]
      },
      "category": [ {
        "coding": [ {
          "system": "http://terminology.hl7.org/CodeSystem/condition-category",
          "code": "encounter-diagnosis",
          "display": "Encounter Diagnosis"
        } ]
      } ],
      "code": {
        "coding": [ {
          "system": "http://snomed.info/sct",
          "code": "46635009",
          "display": "Diabetes Mellitus"
        } ]
      },
      "subject": {
        "reference": "Patient/48c2ed10-7c2d-4130-a215-a6f72b169111"
      },
      "encounter": {
        "reference": "Encounter/f8b2c7a5-6ecf-42aa-80eb-7fb7d51206a7"
      },
      "onsetPeriod": {
        "start": "2026-07-09T08:00:00.000+00:00",
        "end": "2026-07-11T08:00:00.000+00:00"
      }
    },
    "request": {
      "method": "PUT",
      "url": "Condition/968eabf0-2c31-4e6d-8074-0292c0a4f5f1"
    }
  }, {
    "fullUrl": "https://madie.cms.gov/Encounter/e9322158-e666-41a5-9e6d-0e1c5ad66487",
    "resource": {
      "resourceType": "Encounter",
      "id": "e9322158-e666-41a5-9e6d-0e1c5ad66487",
      "meta": {
        "profile": [ "http://hl7.org/fhir/us/qicore/StructureDefinition/qicore-encounter" ]
      },
      "status": "finished",
      "class": {
        "system": "http://terminology.hl7.org/CodeSystem/v3-ActCode",
        "code": "IMP",
        "display": "inpatient encounter"
      },
      "type": [ {
        "coding": [ {
          "system": "http://snomed.info/sct",
          "code": "183452005",
          "display": "Inpatient encounter"
        } ]
      } ],
      "subject": {
        "reference": "Patient/48c2ed10-7c2d-4130-a215-a6f72b169111"
      },
      "period": {
        "start": "2026-10-19T08:30:00.000+00:00",
        "end": "2026-10-21T08:15:00.000+00:00"
      }
    },
    "request": {
      "method": "PUT",
      "url": "Encounter/e9322158-e666-41a5-9e6d-0e1c5ad66487"
    }
  }, {
    "fullUrl": "https://madie.cms.gov/Encounter/f8b2c7a5-6ecf-42aa-80eb-7fb7d51206a7",
    "resource": {
      "resourceType": "Encounter",
      "id": "f8b2c7a5-6ecf-42aa-80eb-7fb7d51206a7",
      "meta": {
        "profile": [ "http://hl7.org/fhir/us/qicore/StructureDefinition/qicore-encounter" ]
      },
      "status": "finished",
      "class": {
        "system": "http://terminology.hl7.org/CodeSystem/v3-ActCode",
        "code": "EMER",
        "display": "emergency encounter"
      },
      "type": [ {
        "coding": [ {
          "system": "http://snomed.info/sct",
          "code": "4525004",
          "display": "Emergency Department Visit"
        } ]
      } ],
      "subject": {
        "reference": "Patient/48c2ed10-7c2d-4130-a215-a6f72b169111"
      },
      "period": {
        "start": "2026-10-18T09:15:00.000+00:00",
        "end": "2026-10-19T08:15:00.000+00:00"
      }
    },
    "request": {
      "method": "PUT",
      "url": "Encounter/f8b2c7a5-6ecf-42aa-80eb-7fb7d51206a7"
    }
  }, {
    "fullUrl": "https://madie.cms.gov/Patient/48c2ed10-7c2d-4130-a215-a6f72b169111",
    "resource": {
      "resourceType": "Patient",
      "id": "48c2ed10-7c2d-4130-a215-a6f72b169111",
      "meta": {
        "profile": [ "http://hl7.org/fhir/us/qicore/StructureDefinition/qicore-patient" ]
      },
      "extension": [ {
        "url": "http://hl7.org/fhir/us/core/StructureDefinition/us-core-race",
        "extension": [ {
          "url": "ombCategory",
          "valueCoding": {
            "system": "urn:oid:2.16.840.1.113883.6.238",
            "code": "2106-3",
            "display": "White"
          }
        }, {
          "url": "text",
          "valueString": "White"
        } ]
      }, {
        "url": "http://hl7.org/fhir/us/core/StructureDefinition/us-core-ethnicity",
        "extension": [ {
          "url": "ombCategory",
          "valueCoding": {
            "system": "urn:oid:2.16.840.1.113883.6.238",
            "code": "2135-2",
            "display": "Hispanic or Latino"
          }
        }, {
          "url": "text",
          "valueString": "Hispanic or Latino"
        } ]
      }, {
        "url": "http://hl7.org/fhir/us/core/StructureDefinition/us-core-sex",
        "valueCode": "248153007"
      } ],
      "identifier": [ {
        "system": "http://hospital.smarthealthit.org",
        "value": "999999999"
      } ],
      "name": [ {
        "family": "Example",
        "given": [ "Patient" ]
      } ],
      "gender": "female",
      "birthDate": "1956-01-01"
    },
    "request": {
      "method": "PUT",
      "url": "Patient/48c2ed10-7c2d-4130-a215-a6f72b169111"
    }
  }, {
    "fullUrl": "https://madie.cms.gov/ServiceRequest/af415acf-3634-47ee-88a2-837c1a7abdbf",
    "resource": {
      "resourceType": "ServiceRequest",
      "id": "af415acf-3634-47ee-88a2-837c1a7abdbf",
      "meta": {
        "profile": [ "http://hl7.org/fhir/us/qicore/StructureDefinition/qicore-servicerequest" ]
      },
      "status": "active",
      "intent": "order",
      "priority": "routine",
      "code": {
        "coding": [ {
          "system": "http://snomed.info/sct",
          "code": "133918004",
          "display": "Comfort Measures"
        } ]
      },
      "subject": {
        "reference": "Patient/48c2ed10-7c2d-4130-a215-a6f72b169111"
      },
      "authoredOn": "2026-10-21T08:16:00.000+00:00"
    },
    "request": {
      "method": "PUT",
      "url": "ServiceRequest/af415acf-3634-47ee-88a2-837c1a7abdbf"
    }
  }, {
    "fullUrl": "https://madie.cms.gov/Observation/40dd6af1-33f0-46fc-b369-a42c17eaafec",
    "resource": {
      "resourceType": "Observation",
      "id": "40dd6af1-33f0-46fc-b369-a42c17eaafec",
      "meta": {
        "profile": [ "http://hl7.org/fhir/us/qicore/StructureDefinition/qicore-observation-lab" ]
      },
      "status": "final",
      "category": [ {
        "coding": [ {
          "system": "http://terminology.hl7.org/CodeSystem/observation-category",
          "code": "laboratory",
          "display": "Laboratory"
        } ]
      } ],
      "code": {
        "coding": [ {
          "system": "http://loinc.org",
          "version": "2.72",
          "code": "1547-9",
          "display": "Glucose Lab Test Mass Per Volume"
        } ]
      },
      "subject": {
        "reference": "Patient/48c2ed10-7c2d-4130-a215-a6f72b169111"
      },
      "effectiveDateTime": "2026-10-18T09:15:00.000+00:00",
      "valueQuantity": {
        "value": 201,
        "unit": "mg/dL"
      }
    },
    "request": {
      "method": "PUT",
      "url": "Observation/40dd6af1-33f0-46fc-b369-a42c17eaafec"
    }
  }, {
    "fullUrl": "https://madie.cms.gov/MeasureReport/fa9a16b8-16c8-441f-b6a3-520d3769719f",
    "resource": {
      "resourceType": "MeasureReport",
      "id": "fa9a16b8-16c8-441f-b6a3-520d3769719f",
      "meta": {
        "profile": [ "http://hl7.org/fhir/us/cqfmeasures/StructureDefinition/test-case-cqfm" ]
      },
      "contained": [ {
        "resourceType": "Parameters",
        "id": "72ef64e4-8dcc-4ce2-a7e0-df3e4591d7a6-parameters",
        "parameter": [ {
          "name": "subject",
          "valueString": "48c2ed10-7c2d-4130-a215-a6f72b169111"
        } ]
      } ],
      "extension": [ {
        "url": "http://hl7.org/fhir/StructureDefinition/cqf-inputParameters",
        "valueReference": {
          "reference": "#72ef64e4-8dcc-4ce2-a7e0-df3e4591d7a6-parameters"
        }
      }, {
        "url": "http://hl7.org/fhir/us/cqfmeasures/StructureDefinition/cqfm-testCaseDescription",
        "valueMarkdown": "Enc starts in ED prior to IP. Has glucose >200 and >18 age so meets IPP. Has comfort care ordered one minute after end of encounter so does not meet Denom Exclusion."
      } ],
      "modifierExtension": [ {
        "url": "http://hl7.org/fhir/us/cqfmeasures/StructureDefinition/cqfm-isTestCase",
        "valueBoolean": true
      } ],
      "status": "complete",
      "type": "individual",
      "measure": "https://madie.cms.gov/Measure/CMS871FHIRHHHyper",
      "period": {
        "start": "2026-01-01",
        "end": "2026-12-31"
      },
      "group": [ {
        "id": "Group_1",
        "population": [ {
          "id": "InitialPopulation_1",
          "code": {
            "coding": [ {
              "system": "http://terminology.hl7.org/CodeSystem/measure-population",
              "code": "initial-population",
              "display": "Initial Population"
            } ]
          },
          "count": 1
        }, {
          "id": "Denominator_1",
          "code": {
            "coding": [ {
              "system": "http://terminology.hl7.org/CodeSystem/measure-population",
              "code": "denominator",
              "display": "Denominator"
            } ]
          },
          "count": 1
        }, {
          "id": "DenominatorExclusion_1",
          "code": {
            "coding": [ {
              "system": "http://terminology.hl7.org/CodeSystem/measure-population",
              "code": "denominator-exclusion",
              "display": "Denominator Exclusion"
            } ]
          },
          "count": 0
        }, {
          "id": "Numerator_1",
          "code": {
            "coding": [ {
              "system": "http://terminology.hl7.org/CodeSystem/measure-population",
              "code": "numerator",
              "display": "Numerator"
            } ]
          },
          "count": 0
        }, {
          "id": "NumeratorExclusion_1",
          "code": {
            "coding": [ {
              "system": "http://terminology.hl7.org/CodeSystem/measure-population",
              "code": "numerator-exclusion",
              "display": "Numerator Exclusion"
            } ]
          },
          "count": 0
        }, {
          "id": "MeasureObservation_1_1_1",
          "code": {
            "coding": [ {
              "system": "http://terminology.hl7.org/CodeSystem/measure-population",
              "code": "measure-observation",
              "display": "Measure Observation"
            } ]
          },
          "count": 1
        } ],
        "measureScore": {
          "value": 0.0
        }
      } ],
      "evaluatedResource": [ {
        "reference": "Condition/968eabf0-2c31-4e6d-8074-0292c0a4f5f1"
      }, {
        "reference": "Encounter/e9322158-e666-41a5-9e6d-0e1c5ad66487"
      }, {
        "reference": "Encounter/f8b2c7a5-6ecf-42aa-80eb-7fb7d51206a7"
      }, {
        "reference": "Patient/48c2ed10-7c2d-4130-a215-a6f72b169111"
      }, {
        "reference": "ServiceRequest/af415acf-3634-47ee-88a2-837c1a7abdbf"
      }, {
        "reference": "Observation/40dd6af1-33f0-46fc-b369-a42c17eaafec"
      } ]
    },
    "request": {
      "method": "PUT",
      "url": "MeasureReport/fa9a16b8-16c8-441f-b6a3-520d3769719f"
    }
  } ]
}