{
  "resourceType": "Bundle",
  "id": "6129133d02c62a011f2e69a8",
  "type": "transaction",
  "entry": [ {
    "fullUrl": "https://madie.cms.gov/Patient/15e67912-9913-4b22-9f1b-3e86879e1d6d",
    "resource": {
      "resourceType": "Patient",
      "id": "15e67912-9913-4b22-9f1b-3e86879e1d6d",
      "meta": {
        "profile": [ "http://hl7.org/fhir/us/qicore/StructureDefinition/qicore-patient" ]
      },
      "text": {
        "status": "generated",
        "div": "<div xmlns=\"http://www.w3.org/1999/xhtml\"><div class=\"hapiHeaderText\">CMOdurEnc_ED&lt;1hrObs&lt;1hrBFEnc <b>DENEXPASS </b></div><table class=\"hapiPropertyTable\"><tbody><tr><td>Identifier</td><td>7f541e179007ad9d60d9a7087c5b8c8d</td></tr><tr><td>Date of birth</td><td><span>21 August 1994</span></td></tr></tbody></table></div>"
      },
      "extension": [ {
        "url": "http://hl7.org/fhir/us/core/StructureDefinition/us-core-race",
        "extension": [ {
          "url": "ombCategory",
          "valueCoding": {
            "system": "urn:oid:2.16.840.1.113883.6.238",
            "code": "1002-5",
            "display": "American Indian or Alaska Native",
            "userSelected": true
          }
        }, {
          "url": "text",
          "valueString": "American Indian or Alaska Native"
        } ]
      }, {
        "url": "http://hl7.org/fhir/us/core/StructureDefinition/us-core-ethnicity",
        "extension": [ {
          "url": "ombCategory",
          "valueCoding": {
            "system": "urn:oid:2.16.840.1.113883.6.238",
            "code": "2135-2",
            "display": "Hispanic or Latino",
            "userSelected": true
          }
        }, {
          "url": "text",
          "valueString": "Hispanic or Latino"
        } ]
      } ],
      "identifier": [ {
        "type": {
          "coding": [ {
            "system": "http://terminology.hl7.org/CodeSystem/v2-0203",
            "code": "MR"
          } ]
        },
        "system": "https://bonnie-fhir.healthit.gov/",
        "value": "6129133d02c62a011f2e69a8"
      } ],
      "active": true,
      "name": [ {
        "use": "usual",
        "family": "DENEXPass",
        "given": [ "CMOdurEnc_ED<1hrObs<1hrBFEnc" ]
      } ],
      "gender": "male",
      "birthDate": "1995-08-21"
    },
    "request": {
      "method": "PUT",
      "url": "Patient/15e67912-9913-4b22-9f1b-3e86879e1d6d"
    }
  }, {
    "fullUrl": "https://madie.cms.gov/Encounter/3a96ccb2-dbe5-42b7-a4fe-106bb15716c4",
    "resource": {
      "resourceType": "Encounter",
      "id": "3a96ccb2-dbe5-42b7-a4fe-106bb15716c4",
      "meta": {
        "profile": [ "http://hl7.org/fhir/us/qicore/StructureDefinition/qicore-encounter" ]
      },
      "status": "finished",
      "class": {
        "system": "http://terminology.hl7.org/CodeSystem/v3-ActCode",
        "code": "EMER",
        "display": "emergency",
        "userSelected": true
      },
      "type": [ {
        "coding": [ {
          "system": "http://snomed.info/sct",
          "code": "4525004"
        } ]
      } ],
      "subject": {
        "reference": "Patient/15e67912-9913-4b22-9f1b-3e86879e1d6d"
      },
      "period": {
        "start": "2026-10-10T07:30:00.000+00:00",
        "end": "2026-10-10T07:35:00.000+00:00"
      },
      "length": {
        "value": 0,
        "unit": "days"
      }
    },
    "request": {
      "method": "PUT",
      "url": "Encounter/3a96ccb2-dbe5-42b7-a4fe-106bb15716c4"
    }
  }, {
    "fullUrl": "https://madie.cms.gov/Encounter/0d1b2809-31bb-43cc-92d7-f9fb9236f792",
    "resource": {
      "resourceType": "Encounter",
      "id": "0d1b2809-31bb-43cc-92d7-f9fb9236f792",
      "meta": {
        "profile": [ "http://hl7.org/fhir/us/qicore/StructureDefinition/qicore-encounter" ]
      },
      "status": "finished",
      "class": {
        "system": "http://terminology.hl7.org/CodeSystem/v3-ActCode",
        "code": "OBSENC",
        "display": "observation encounter",
        "userSelected": true
      },
      "type": [ {
        "coding": [ {
          "system": "http://snomed.info/sct",
          "code": "448851000124103"
        } ]
      } ],
      "subject": {
        "reference": "Patient/15e67912-9913-4b22-9f1b-3e86879e1d6d"
      },
      "period": {
        "start": "2026-10-10T07:36:00.000+00:00",
        "end": "2026-10-10T07:40:00.000+00:00"
      },
      "length": {
        "value": 0,
        "unit": "days"
      }
    },
    "request": {
      "method": "PUT",
      "url": "Encounter/0d1b2809-31bb-43cc-92d7-f9fb9236f792"
    }
  }, {
    "fullUrl": "https://madie.cms.gov/Encounter/051e5f59-7050-4aab-a5dd-259bf94aa996",
    "resource": {
      "resourceType": "Encounter",
      "id": "051e5f59-7050-4aab-a5dd-259bf94aa996",
      "meta": {
        "profile": [ "http://hl7.org/fhir/us/qicore/StructureDefinition/qicore-encounter" ]
      },
      "status": "finished",
      "class": {
        "system": "http://terminology.hl7.org/CodeSystem/v3-ActCode",
        "code": "ACUTE",
        "display": "inpatient acute",
        "userSelected": true
      },
      "type": [ {
        "coding": [ {
          "system": "http://snomed.info/sct",
          "code": "32485007"
        } ]
      } ],
      "subject": {
        "reference": "Patient/15e67912-9913-4b22-9f1b-3e86879e1d6d"
      },
      "period": {
        "start": "2026-10-10T07:41:00.000+00:00",
        "end": "2026-10-12T10:30:00.000+00:00"
      },
      "length": {
        "value": 2,
        "unit": "days"
      },
      "diagnosis": [ {
        "condition": {
          "reference": "Condition/b48e8eef-3708-472a-9fc2-f0765002b727"
        },
        "use": {
          "coding": [ {
            "system": "http://terminology.hl7.org/CodeSystem/diagnosis-role",
            "code": "billing",
            "display": "Billing"
          } ]
        },
        "rank": 1
      } ]
    },
    "request": {
      "method": "PUT",
      "url": "Encounter/051e5f59-7050-4aab-a5dd-259bf94aa996"
    }
  }, {
    "fullUrl": "https://madie.cms.gov/claim/5ca62962b8484628b8de1ec5",
    "resource": {
      "resourceType": "Claim",
      "id": "5ca62962b8484628b8de1ec5",
      "meta": {
        "profile": [ "http://hl7.org/fhir/us/qicore/StructureDefinition/qicore-claim" ]
      },
      "status": "active",
      "type": {
        "coding": [ {
          "system": "http://terminology.hl7.org/CodeSystem/claim-type",
          "code": "institutional"
        } ]
      },
      "use": "claim",
      "patient": {
        "reference": "Patient/d170a0a8-b5ad-4303-b6df-e304dd5f92ad"
      },
      "created": "2026-12-01",
      "provider": {
        "reference": "Practitioner/practitioner-123456"
      },
      "priority": {
        "coding": [ {
          "system": "http://terminology.hl7.org/CodeSystem/processpriority",
          "code": "normal"
        } ]
      },
      "diagnosis": [ {
        "sequence": 1,
        "diagnosisCodeableConcept": {
          "coding": [ {
            "system": "http://hl7.org/fhir/sid/icd-10-cm",
            "code": "I63.00"
          } ]
        },
        "type": [ {
          "coding": [ {
            "system": "http://terminology.hl7.org/CodeSystem/ex-diagnosistype",
            "code": "principal"
          } ]
        } ]
      } ],
      "insurance": [ {
        "sequence": 1,
        "focal": true,
        "coverage": {
          "reference": "Coverage/5fa041661c76ba66d9959367"
        }
      } ],
      "item": [ {
        "sequence": 1,
        "diagnosisSequence": [ 1 ],
        "productOrService": {
          "coding": [ {
            "system": "http://terminology.hl7.org/CodeSystem/ex-USCLS",
            "code": "99555"
          } ]
        },
        "encounter": [ {
          "reference": "Encounter/051e5f59-7050-4aab-a5dd-259bf94aa996"
        } ]
      } ]
    },
    "request": {
      "method": "PUT",
      "url": "Claim/5ca62962b8484628b8de1ec5"
    }
  }, {
    "fullUrl": "https://madie.cms.gov/ServiceRequest/63f22063-64ce-41f9-99e7-2733ba9f7cba",
    "resource": {
      "resourceType": "ServiceRequest",
      "id": "63f22063-64ce-41f9-99e7-2733ba9f7cba",
      "meta": {
        "profile": [ "http://hl7.org/fhir/us/qicore/StructureDefinition/qicore-servicerequest" ]
      },
      "status": "active",
      "intent": "order",
      "code": {
        "coding": [ {
          "system": "http://snomed.info/sct",
          "code": "133918004"
        } ]
      },
      "subject": {
        "reference": "Patient/15e67912-9913-4b22-9f1b-3e86879e1d6d"
      },
      "authoredOn": "2026-10-10T07:46:00.000+00:00"
    },
    "request": {
      "method": "PUT",
      "url": "ServiceRequest/63f22063-64ce-41f9-99e7-2733ba9f7cba"
    }
  }, {
    "fullUrl": "https://madie.cms.gov/Condition/b48e8eef-3708-472a-9fc2-f0765002b727",
    "resource": {
      "resourceType": "Condition",
      "id": "b48e8eef-3708-472a-9fc2-f0765002b727",
      "meta": {
        "profile": [ "http://hl7.org/fhir/us/qicore/StructureDefinition/qicore-condition" ]
      },
      "clinicalStatus": {
        "coding": [ {
          "system": "http://terminology.hl7.org/CodeSystem/condition-clinical",
          "code": "active"
        } ]
      },
      "verificationStatus": {
        "coding": [ {
          "system": "http://terminology.hl7.org/CodeSystem/condition-ver-status",
          "code": "confirmed"
        } ]
      },
      "category": [ {
        "coding": [ {
          "system": "http://terminology.hl7.org/CodeSystem/condition-category",
          "code": "encounter-diagnosis",
          "display": "Encounter Diagnosis"
        } ]
      } ],
      "code": {
        "coding": [ {
          "system": "http://snomed.info/sct",
          "version": "2020-09",
          "code": "111297002",
          "display": "Nonparalytic stroke (disorder)",
          "userSelected": true
        } ]
      },
      "subject": {
        "reference": "Patient/15e67912-9913-4b22-9f1b-3e86879e1d6d"
      },
      "recordedDate": "2026-07-14T08:00:00.000+00:00"
    },
    "request": {
      "method": "PUT",
      "url": "Condition/b48e8eef-3708-472a-9fc2-f0765002b727"
    }
  }, {
    "fullUrl": "https://madie.cms.gov/Coverage/cd7a1a1c-8423-4763-bbfd-7c51c159fc57",
    "resource": {
      "resourceType": "Coverage",
      "id": "cd7a1a1c-8423-4763-bbfd-7c51c159fc57",
      "meta": {
        "profile": [ "http://hl7.org/fhir/us/qicore/StructureDefinition/qicore-coverage" ]
      },
      "status": "active",
      "beneficiary": {
        "reference": "Patient/15e67912-9913-4b22-9f1b-3e86879e1d6d"
      },
      "payor": [ {
        "reference": "Organization/ca2351bd-7375-43c4-a0ae-cdf430d67c3b"
      } ]
    },
    "request": {
      "method": "PUT",
      "url": "Coverage/cd7a1a1c-8423-4763-bbfd-7c51c159fc57"
    }
  }, {
    "fullUrl": "https://madie.cms.gov/Organization/ca2351bd-7375-43c4-a0ae-cdf430d67c3b",
    "resource": {
      "resourceType": "Organization",
      "id": "ca2351bd-7375-43c4-a0ae-cdf430d67c3b",
      "meta": {
        "profile": [ "http://hl7.org/fhir/us/qicore/StructureDefinition/qicore-organization" ]
      },
      "identifier": [ {
        "use": "temp",
        "system": "urn:oid:2.16.840.1.113883.4.4",
        "value": "21-3259825"
      } ],
      "active": true,
      "type": [ {
        "coding": [ {
          "system": "http://terminology.hl7.org/CodeSystem/organization-type",
          "code": "pay",
          "display": "Payer"
        } ]
      } ],
      "name": "Blue Cross Blue Shield of Texas",
      "telecom": [ {
        "system": "phone",
        "value": "(+1) 972-766-6900"
      } ],
      "address": [ {
        "use": "billing",
        "type": "postal",
        "line": [ "P.O. Box 660044" ],
        "city": "Dallas",
        "state": "TX",
        "postalCode": "75266-0044",
        "country": "USA"
      } ]
    },
    "request": {
      "method": "PUT",
      "url": "Organization/ca2351bd-7375-43c4-a0ae-cdf430d67c3b"
    }
  }, {
    "fullUrl": "https://madie.cms.gov/MeasureReport/cc82c466-71ef-46d8-828a-bfe8588fdcd3",
    "resource": {
      "resourceType": "MeasureReport",
      "id": "cc82c466-71ef-46d8-828a-bfe8588fdcd3",
      "meta": {
        "profile": [ "http://hl7.org/fhir/us/cqfmeasures/StructureDefinition/test-case-cqfm" ]
      },
      "contained": [ {
        "resourceType": "Parameters",
        "id": "ae8c38c2-3156-4a03-9d16-25d63c314d5d-parameters",
        "parameter": [ {
          "name": "subject",
          "valueString": "15e67912-9913-4b22-9f1b-3e86879e1d6d"
        } ]
      } ],
      "extension": [ {
        "url": "http://hl7.org/fhir/StructureDefinition/cqf-inputParameters",
        "valueReference": {
          "reference": "#ae8c38c2-3156-4a03-9d16-25d63c314d5d-parameters"
        }
      }, {
        "url": "http://hl7.org/fhir/us/cqfmeasures/StructureDefinition/cqfm-testCaseDescription",
        "valueMarkdown": "Patient receives CMO during inpatient encounter. ED ends 1 minute before observation. Obs ends 1 min before inpatient encounter start. Testing day of operator with HospitalizationWithObservation function."
      } ],
      "modifierExtension": [ {
        "url": "http://hl7.org/fhir/us/cqfmeasures/StructureDefinition/cqfm-isTestCase",
        "valueBoolean": true
      } ],
      "status": "complete",
      "type": "individual",
      "measure": "https://madie.cms.gov/Measure/CMS104FHIRSTKDCAntithrombotic",
      "period": {
        "start": "2026-01-01",
        "end": "2026-12-31"
      },
      "group": [ {
        "id": "Group_1",
        "population": [ {
          "id": "InitialPopulation_1",
          "code": {
            "coding": [ {
              "system": "http://terminology.hl7.org/CodeSystem/measure-population",
              "code": "initial-population",
              "display": "Initial Population"
            } ]
          },
          "count": 1
        }, {
          "id": "Denominator_1",
          "code": {
            "coding": [ {
              "system": "http://terminology.hl7.org/CodeSystem/measure-population",
              "code": "denominator",
              "display": "Denominator"
            } ]
          },
          "count": 1
        }, {
          "id": "DenominatorExclusion_1",
          "code": {
            "coding": [ {
              "system": "http://terminology.hl7.org/CodeSystem/measure-population",
              "code": "denominator-exclusion",
              "display": "Denominator Exclusion"
            } ]
          },
          "count": 1
        }, {
          "id": "Numerator_1",
          "code": {
            "coding": [ {
              "system": "http://terminology.hl7.org/CodeSystem/measure-population",
              "code": "numerator",
              "display": "Numerator"
            } ]
          },
          "count": 0
        }, {
          "id": "DenominatorException_1",
          "code": {
            "coding": [ {
              "system": "http://terminology.hl7.org/CodeSystem/measure-population",
              "code": "denominator-exception",
              "display": "Denominator Exception"
            } ]
          },
          "count": 0
        } ],
        "measureScore": {
          "value": 0.0
        }
      } ],
      "evaluatedResource": [ {
        "reference": "Patient/15e67912-9913-4b22-9f1b-3e86879e1d6d"
      }, {
        "reference": "Encounter/3a96ccb2-dbe5-42b7-a4fe-106bb15716c4"
      }, {
        "reference": "Encounter/0d1b2809-31bb-43cc-92d7-f9fb9236f792"
      }, {
        "reference": "Encounter/051e5f59-7050-4aab-a5dd-259bf94aa996"
      }, {
        "reference": "Claim/5ca62962b8484628b8de1ec5"
      }, {
        "reference": "ServiceRequest/63f22063-64ce-41f9-99e7-2733ba9f7cba"
      }, {
        "reference": "Condition/b48e8eef-3708-472a-9fc2-f0765002b727"
      }, {
        "reference": "Coverage/cd7a1a1c-8423-4763-bbfd-7c51c159fc57"
      }, {
        "reference": "Organization/ca2351bd-7375-43c4-a0ae-cdf430d67c3b"
      } ]
    },
    "request": {
      "method": "PUT",
      "url": "MeasureReport/cc82c466-71ef-46d8-828a-bfe8588fdcd3"
    }
  } ]
}