{
  "resourceType": "Bundle",
  "id": "62cddc0a62b2323a168e9764",
  "type": "collection",
  "entry": [ {
    "fullUrl": "https://madie.cms.gov/Patient/095ef9fa-0b0e-477f-9fd3-364ccfb9ee34",
    "resource": {
      "resourceType": "Patient",
      "id": "095ef9fa-0b0e-477f-9fd3-364ccfb9ee34",
      "meta": {
        "profile": [ "http://hl7.org/fhir/us/qicore/StructureDefinition/qicore-patient" ]
      },
      "extension": [ {
        "url": "http://hl7.org/fhir/us/core/StructureDefinition/us-core-race",
        "extension": [ {
          "url": "ombCategory",
          "valueCoding": {
            "system": "urn:oid:2.16.840.1.113883.6.238",
            "code": "1002-5",
            "display": "American Indian or Alaska Native",
            "userSelected": true
          }
        }, {
          "url": "text",
          "valueString": "American Indian or Alaska Native"
        } ]
      }, {
        "url": "http://hl7.org/fhir/us/core/StructureDefinition/us-core-ethnicity",
        "extension": [ {
          "url": "ombCategory",
          "valueCoding": {
            "system": "urn:oid:2.16.840.1.113883.6.238",
            "code": "2135-2",
            "display": "Hispanic or Latino",
            "userSelected": true
          }
        }, {
          "url": "text",
          "valueString": "Hispanic or Latino"
        } ]
      } ],
      "identifier": [ {
        "type": {
          "coding": [ {
            "system": "http://terminology.hl7.org/CodeSystem/v2-0203",
            "code": "MR"
          } ]
        },
        "system": "https://bonnie-fhir.healthit.gov/",
        "value": "62cddc0a62b2323a168e9764"
      } ],
      "name": [ {
        "family": "NUMERPass",
        "given": [ "SecondReadingOver130" ]
      } ],
      "gender": "male",
      "birthDate": "1976-12-31"
    }
  }, {
    "fullUrl": "https://madie.cms.gov/Encounter/4c5f9854-5786-4542-a45f-a35e1603b619",
    "resource": {
      "resourceType": "Encounter",
      "id": "4c5f9854-5786-4542-a45f-a35e1603b619",
      "meta": {
        "profile": [ "http://hl7.org/fhir/us/qicore/StructureDefinition/qicore-encounter" ]
      },
      "status": "finished",
      "class": {
        "system": "http://terminology.hl7.org/CodeSystem/v3-ActCode",
        "code": "AMB",
        "display": "ambulatory"
      },
      "type": [ {
        "coding": [ {
          "system": "http://snomed.info/sct",
          "version": "2022-03",
          "code": "103705002",
          "display": "Patient status observation (procedure)",
          "userSelected": true
        } ]
      } ],
      "subject": {
        "reference": "Patient/095ef9fa-0b0e-477f-9fd3-364ccfb9ee34"
      },
      "period": {
        "start": "2026-01-01T08:00:00.000Z",
        "end": "2026-01-01T08:45:00.000Z"
      }
    }
  }, {
    "fullUrl": "https://madie.cms.gov/ServiceRequest/1d743c2a-d3e1-456f-b6b5-1c0f1234bd0c",
    "resource": {
      "resourceType": "ServiceRequest",
      "id": "1d743c2a-d3e1-456f-b6b5-1c0f1234bd0c",
      "meta": {
        "profile": [ "http://hl7.org/fhir/us/qicore/StructureDefinition/qicore-servicerequest" ]
      },
      "status": "active",
      "intent": "order",
      "code": {
        "coding": [ {
          "system": "http://snomed.info/sct",
          "version": "2022-03",
          "code": "183617005",
          "display": "Follow-up 1 day (finding)",
          "userSelected": true
        } ]
      },
      "subject": {
        "reference": "Patient/095ef9fa-0b0e-477f-9fd3-364ccfb9ee34"
      },
      "authoredOn": "2026-01-01T08:30:00.000Z"
    }
  }, {
    "fullUrl": "https://madie.cms.gov/Encounter/9cc4da6f-2b61-45b0-8503-d4258719b1fb",
    "resource": {
      "resourceType": "Encounter",
      "id": "9cc4da6f-2b61-45b0-8503-d4258719b1fb",
      "meta": {
        "profile": [ "http://hl7.org/fhir/us/qicore/StructureDefinition/qicore-encounter" ]
      },
      "status": "finished",
      "class": {
        "system": "http://terminology.hl7.org/CodeSystem/v3-ActCode",
        "code": "AMB",
        "display": "ambulatory"
      },
      "type": [ {
        "coding": [ {
          "system": "http://snomed.info/sct",
          "version": "2022-03",
          "code": "103705002",
          "display": "Patient status observation (procedure)",
          "userSelected": true
        } ]
      } ],
      "subject": {
        "reference": "Patient/095ef9fa-0b0e-477f-9fd3-364ccfb9ee34"
      },
      "period": {
        "start": "2026-12-31T10:00:00.000Z",
        "end": "2026-12-31T10:30:00.000Z"
      }
    }
  }, {
    "fullUrl": "https://madie.cms.gov/ServiceRequest/036515ab-46fd-4d99-a86c-576140a8c3bb",
    "resource": {
      "resourceType": "ServiceRequest",
      "id": "036515ab-46fd-4d99-a86c-576140a8c3bb",
      "meta": {
        "profile": [ "http://hl7.org/fhir/us/qicore/StructureDefinition/qicore-servicerequest" ]
      },
      "status": "active",
      "intent": "order",
      "code": {
        "coding": [ {
          "system": "http://snomed.info/sct",
          "version": "2022-03",
          "code": "183624006",
          "display": "Follow-up 2-3 months (finding)",
          "userSelected": true
        } ]
      },
      "subject": {
        "reference": "Patient/095ef9fa-0b0e-477f-9fd3-364ccfb9ee34"
      },
      "authoredOn": "2026-12-31T10:10:00.000Z"
    }
  }, {
    "fullUrl": "https://madie.cms.gov/ServiceRequest/acb72751-7d36-488f-bde2-b253ecacccaf",
    "resource": {
      "resourceType": "ServiceRequest",
      "id": "acb72751-7d36-488f-bde2-b253ecacccaf",
      "meta": {
        "profile": [ "http://hl7.org/fhir/us/qicore/StructureDefinition/qicore-servicerequest" ]
      },
      "status": "active",
      "intent": "order",
      "code": {
        "coding": [ {
          "system": "http://snomed.info/sct",
          "version": "2022-03",
          "code": "20093000",
          "display": "Alcohol rehabilitation and detoxification (regime/therapy)",
          "userSelected": true
        } ]
      },
      "subject": {
        "reference": "Patient/095ef9fa-0b0e-477f-9fd3-364ccfb9ee34"
      },
      "authoredOn": "2026-01-01T08:30:00.000Z"
    }
  }, {
    "fullUrl": "https://madie.cms.gov/ServiceRequest/d9e76805-64be-44d7-9f99-b13f598a1735",
    "resource": {
      "resourceType": "ServiceRequest",
      "id": "d9e76805-64be-44d7-9f99-b13f598a1735",
      "meta": {
        "profile": [ "http://hl7.org/fhir/us/qicore/StructureDefinition/qicore-servicerequest" ]
      },
      "status": "active",
      "intent": "order",
      "code": {
        "coding": [ {
          "system": "http://loinc.org",
          "code": "34534-8",
          "display": "12 lead EKG panel",
          "userSelected": true
        } ]
      },
      "subject": {
        "reference": "Patient/095ef9fa-0b0e-477f-9fd3-364ccfb9ee34"
      },
      "authoredOn": "2026-12-31T10:10:00.000Z"
    }
  }, {
    "fullUrl": "https://madie.cms.gov/ServiceRequest/5862f034-44b6-4c59-8673-96daaa9caf06",
    "resource": {
      "resourceType": "ServiceRequest",
      "id": "5862f034-44b6-4c59-8673-96daaa9caf06",
      "meta": {
        "profile": [ "http://hl7.org/fhir/us/qicore/StructureDefinition/qicore-servicerequest" ]
      },
      "status": "active",
      "intent": "order",
      "code": {
        "coding": [ {
          "system": "http://loinc.org",
          "code": "11524-6",
          "display": "EKG study",
          "userSelected": true
        } ]
      },
      "subject": {
        "reference": "Patient/095ef9fa-0b0e-477f-9fd3-364ccfb9ee34"
      },
      "authoredOn": "2026-12-31T10:10:00.000Z"
    }
  }, {
    "fullUrl": "https://madie.cms.gov/ServiceRequest/d5276277-d41e-40af-93dd-4c01081f0201",
    "resource": {
      "resourceType": "ServiceRequest",
      "id": "d5276277-d41e-40af-93dd-4c01081f0201",
      "meta": {
        "profile": [ "http://hl7.org/fhir/us/qicore/StructureDefinition/qicore-servicerequest" ]
      },
      "status": "active",
      "intent": "order",
      "code": {
        "coding": [ {
          "system": "http://snomed.info/sct",
          "version": "2022-03",
          "code": "313204009",
          "display": "Lifestyle education (procedure)",
          "userSelected": true
        } ]
      },
      "subject": {
        "reference": "Patient/095ef9fa-0b0e-477f-9fd3-364ccfb9ee34"
      },
      "authoredOn": "2026-12-31T10:10:00.000Z"
    }
  }, {
    "fullUrl": "https://madie.cms.gov/MedicationRequest/8ade6d45-4ca0-4e36-af2f-51795a429dd4",
    "resource": {
      "resourceType": "MedicationRequest",
      "id": "8ade6d45-4ca0-4e36-af2f-51795a429dd4",
      "meta": {
        "profile": [ "http://hl7.org/fhir/us/qicore/StructureDefinition/qicore-medicationrequest" ]
      },
      "status": "active",
      "intent": "order",
      "medicationCodeableConcept": {
        "coding": [ {
          "system": "http://www.nlm.nih.gov/research/umls/rxnorm",
          "code": "1000001",
          "display": "amlodipine 5 MG / hydrochlorothiazide 25 MG / olmesartan medoxomil 40 MG Oral Tablet",
          "userSelected": true
        } ]
      },
      "subject": {
        "reference": "Patient/095ef9fa-0b0e-477f-9fd3-364ccfb9ee34"
      },
      "authoredOn": "2026-12-31T10:10:00.000Z",
      "requester": {
        "reference": "Practitioner/f007",
        "display": "Patrick Pump"
      }
    }
  }, {
    "fullUrl": "https://madie.cms.gov/Observation/ada80575-6e65-45a3-8ae2-35165a81a4fc",
    "resource": {
      "resourceType": "Observation",
      "id": "ada80575-6e65-45a3-8ae2-35165a81a4fc",
      "meta": {
        "profile": [ "http://hl7.org/fhir/us/core/StructureDefinition/us-core-blood-pressure" ]
      },
      "status": "corrected",
      "category": [ {
        "coding": [ {
          "system": "http://terminology.hl7.org/CodeSystem/observation-category",
          "code": "vital-signs",
          "display": "Vital Signs"
        } ],
        "text": "Vital Signs"
      } ],
      "code": {
        "coding": [ {
          "system": "http://loinc.org",
          "code": "85354-9",
          "display": "Blood pressure panel with all children optional"
        } ]
      },
      "subject": {
        "reference": "Patient/095ef9fa-0b0e-477f-9fd3-364ccfb9ee34"
      },
      "effectiveDateTime": "2026-01-01T08:05:00.000Z",
      "component": [ {
        "code": {
          "coding": [ {
            "system": "http://loinc.org",
            "code": "8480-6",
            "display": "Systolic blood pressure"
          } ]
        },
        "valueQuantity": {
          "value": 130,
          "unit": "mmHg",
          "system": "http://unitsofmeasure.org",
          "code": "mm[Hg]"
        }
      }, {
        "code": {
          "coding": [ {
            "system": "http://loinc.org",
            "code": "8462-4",
            "display": "Diastolic blood pressure"
          } ]
        },
        "valueQuantity": {
          "value": 80,
          "unit": "mmHg",
          "system": "http://unitsofmeasure.org",
          "code": "mm[Hg]"
        }
      } ]
    }
  }, {
    "fullUrl": "https://madie.cms.gov/Observation/1712078c-9fe7-4b45-923e-dd983884e9d4",
    "resource": {
      "resourceType": "Observation",
      "id": "1712078c-9fe7-4b45-923e-dd983884e9d4",
      "meta": {
        "profile": [ "http://hl7.org/fhir/us/core/StructureDefinition/us-core-blood-pressure" ]
      },
      "status": "final",
      "category": [ {
        "coding": [ {
          "system": "http://terminology.hl7.org/CodeSystem/observation-category",
          "code": "vital-signs",
          "display": "Vital Signs"
        } ],
        "text": "Vital Signs"
      } ],
      "code": {
        "coding": [ {
          "system": "http://loinc.org",
          "code": "85354-9",
          "display": "Blood pressure panel with all children optional"
        } ]
      },
      "subject": {
        "reference": "Patient/095ef9fa-0b0e-477f-9fd3-364ccfb9ee34"
      },
      "effectiveDateTime": "2026-12-31T10:05:00.000Z",
      "component": [ {
        "code": {
          "coding": [ {
            "system": "http://loinc.org",
            "code": "8480-6",
            "display": "Systolic blood pressure"
          } ]
        },
        "valueQuantity": {
          "value": 131,
          "unit": "mmHg",
          "system": "http://unitsofmeasure.org",
          "code": "mm[Hg]"
        }
      }, {
        "code": {
          "coding": [ {
            "system": "http://loinc.org",
            "code": "8462-4",
            "display": "Diastolic blood pressure"
          } ]
        },
        "valueQuantity": {
          "value": 80,
          "unit": "mmHg",
          "system": "http://unitsofmeasure.org",
          "code": "mm[Hg]"
        }
      } ]
    }
  }, {
    "fullUrl": "https://madie.cms.gov/Coverage/cd3dec17-55d2-48d1-b0f2-c2ae162a88e4",
    "resource": {
      "resourceType": "Coverage",
      "id": "cd3dec17-55d2-48d1-b0f2-c2ae162a88e4",
      "meta": {
        "profile": [ "http://hl7.org/fhir/us/qicore/StructureDefinition/qicore-coverage" ]
      },
      "status": "active",
      "subscriberId": "65214568",
      "beneficiary": {
        "reference": "Patient/095ef9fa-0b0e-477f-9fd3-364ccfb9ee34"
      },
      "relationship": {
        "coding": [ {
          "system": "http://terminology.hl7.org/CodeSystem/subscriber-relationship",
          "code": "self",
          "display": "Self"
        } ]
      },
      "payor": [ {
        "reference": "Organization/677566d8-551e-4db7-b57e-af3c21bcae43"
      } ]
    }
  }, {
    "fullUrl": "https://madie.cms.gov/Organization/677566d8-551e-4db7-b57e-af3c21bcae43",
    "resource": {
      "resourceType": "Organization",
      "id": "677566d8-551e-4db7-b57e-af3c21bcae43",
      "meta": {
        "profile": [ "http://hl7.org/fhir/us/qicore/StructureDefinition/qicore-organization" ]
      },
      "identifier": [ {
        "use": "temp",
        "system": "urn:oid:2.16.840.1.113883.4.4",
        "value": "21-3259825"
      } ],
      "active": true,
      "type": [ {
        "coding": [ {
          "system": "http://terminology.hl7.org/CodeSystem/organization-type",
          "code": "pay",
          "display": "Payer"
        } ]
      } ],
      "name": "Blue Cross Blue Shield of Texas",
      "telecom": [ {
        "system": "phone",
        "value": "(+1) 972-766-6900"
      } ],
      "address": [ {
        "use": "billing",
        "type": "postal",
        "line": [ "P.O. Box 660044" ],
        "city": "Dallas",
        "state": "TX",
        "postalCode": "75266-0044",
        "country": "USA"
      } ]
    }
  }, {
    "fullUrl": "https://madie.cms.gov/MeasureReport/01e7991e-8d8e-461e-a048-1bf510d39fd7",
    "resource": {
      "resourceType": "MeasureReport",
      "id": "01e7991e-8d8e-461e-a048-1bf510d39fd7",
      "meta": {
        "profile": [ "http://hl7.org/fhir/us/cqfmeasures/StructureDefinition/test-case-cqfm" ]
      },
      "contained": [ {
        "resourceType": "Parameters",
        "id": "b03a2f5d-d30f-4b6d-9509-fcb999c4b725-parameters",
        "parameter": [ {
          "name": "subject",
          "valueString": "095ef9fa-0b0e-477f-9fd3-364ccfb9ee34"
        } ]
      } ],
      "extension": [ {
        "url": "http://hl7.org/fhir/StructureDefinition/cqf-inputParameters",
        "valueReference": {
          "reference": "#b03a2f5d-d30f-4b6d-9509-fcb999c4b725-parameters"
        }
      }, {
        "url": "http://hl7.org/fhir/us/cqfmeasures/StructureDefinition/cqfm-testCaseDescription",
        "valueMarkdown": "Age 18+, encounter 01/01 0800 - 0845 during MP, second BP reading 130/80 with detox order, f/u in 1 day.\n2nd enc. 12/31 1000-1045, BP 131/80, EKG, lifestyle education, medication, f/u 1 day"
      } ],
      "modifierExtension": [ {
        "url": "http://hl7.org/fhir/us/cqfmeasures/StructureDefinition/cqfm-isTestCase",
        "valueBoolean": true
      } ],
      "status": "complete",
      "type": "individual",
      "measure": "https://madie.cms.gov/Measure/CMS22FHIRPCSBPScreeningFollowUp",
      "period": {
        "start": "2026-01-01",
        "end": "2026-12-31"
      },
      "group": [ {
        "id": "Group_1",
        "population": [ {
          "id": "InitialPopulation_1",
          "code": {
            "coding": [ {
              "system": "http://terminology.hl7.org/CodeSystem/measure-population",
              "code": "initial-population",
              "display": "Initial Population"
            } ]
          },
          "count": 2
        }, {
          "id": "Denominator_1",
          "code": {
            "coding": [ {
              "system": "http://terminology.hl7.org/CodeSystem/measure-population",
              "code": "denominator",
              "display": "Denominator"
            } ]
          },
          "count": 2
        }, {
          "id": "DenominatorExclusion_1",
          "code": {
            "coding": [ {
              "system": "http://terminology.hl7.org/CodeSystem/measure-population",
              "code": "denominator-exclusion",
              "display": "Denominator Exclusion"
            } ]
          },
          "count": 0
        }, {
          "id": "Numerator_1",
          "code": {
            "coding": [ {
              "system": "http://terminology.hl7.org/CodeSystem/measure-population",
              "code": "numerator",
              "display": "Numerator"
            } ]
          },
          "count": 2
        }, {
          "id": "DenominatorException_1",
          "code": {
            "coding": [ {
              "system": "http://terminology.hl7.org/CodeSystem/measure-population",
              "code": "denominator-exception",
              "display": "Denominator Exception"
            } ]
          },
          "count": 0
        } ],
        "measureScore": {
          "value": 0.0
        }
      } ],
      "evaluatedResource": [ {
        "reference": "Patient/095ef9fa-0b0e-477f-9fd3-364ccfb9ee34"
      }, {
        "reference": "Encounter/4c5f9854-5786-4542-a45f-a35e1603b619"
      }, {
        "reference": "ServiceRequest/1d743c2a-d3e1-456f-b6b5-1c0f1234bd0c"
      }, {
        "reference": "Encounter/9cc4da6f-2b61-45b0-8503-d4258719b1fb"
      }, {
        "reference": "ServiceRequest/036515ab-46fd-4d99-a86c-576140a8c3bb"
      }, {
        "reference": "ServiceRequest/acb72751-7d36-488f-bde2-b253ecacccaf"
      }, {
        "reference": "ServiceRequest/d9e76805-64be-44d7-9f99-b13f598a1735"
      }, {
        "reference": "ServiceRequest/5862f034-44b6-4c59-8673-96daaa9caf06"
      }, {
        "reference": "ServiceRequest/d5276277-d41e-40af-93dd-4c01081f0201"
      }, {
        "reference": "MedicationRequest/8ade6d45-4ca0-4e36-af2f-51795a429dd4"
      }, {
        "reference": "Observation/ada80575-6e65-45a3-8ae2-35165a81a4fc"
      }, {
        "reference": "Observation/1712078c-9fe7-4b45-923e-dd983884e9d4"
      }, {
        "reference": "Coverage/cd3dec17-55d2-48d1-b0f2-c2ae162a88e4"
      }, {
        "reference": "Organization/677566d8-551e-4db7-b57e-af3c21bcae43"
      } ]
    }
  } ]
}