{
  "resourceType": "Bundle",
  "id": "tests-DENOMPass-Age18EDEnc-bundle",
  "type": "transaction",
  "entry": [ {
    "fullUrl": "https://madie.cms.gov/Encounter/b7f9d997-fa2b-418d-a98f-1bb45c1327b7",
    "resource": {
      "resourceType": "Encounter",
      "id": "b7f9d997-fa2b-418d-a98f-1bb45c1327b7",
      "meta": {
        "profile": [ "http://hl7.org/fhir/us/qicore/StructureDefinition/qicore-encounter" ]
      },
      "status": "finished",
      "class": {
        "system": "http://terminology.hl7.org/CodeSystem/v3-ActCode",
        "code": "IMP",
        "display": "Inpatient encounter"
      },
      "type": [ {
        "coding": [ {
          "system": "http://snomed.info/sct",
          "code": "183452005",
          "display": "Emergency hospital admission"
        } ]
      } ],
      "subject": {
        "reference": "Patient/f3a5ce49-9f1f-455b-8f44-2389c61d5850"
      },
      "period": {
        "start": "2026-01-11T08:00:00.000Z",
        "end": "2026-01-12T21:00:00.000Z"
      }
    },
    "request": {
      "method": "PUT",
      "url": "Encounter/b7f9d997-fa2b-418d-a98f-1bb45c1327b7"
    }
  }, {
    "fullUrl": "https://madie.cms.gov/MedicationAdministration/d85c2c55-44ef-4ca6-83f7-e08be0e9439a",
    "resource": {
      "resourceType": "MedicationAdministration",
      "id": "d85c2c55-44ef-4ca6-83f7-e08be0e9439a",
      "meta": {
        "profile": [ "http://hl7.org/fhir/us/qicore/StructureDefinition/qicore-medicationadministration" ]
      },
      "status": "completed",
      "medicationCodeableConcept": {
        "coding": [ {
          "system": "http://www.nlm.nih.gov/research/umls/rxnorm",
          "code": "1670021",
          "display": "3 ML insulin degludec 200 UNT/ML Pen Injector"
        } ]
      },
      "subject": {
        "reference": "Patient/f3a5ce49-9f1f-455b-8f44-2389c61d5850"
      },
      "effectivePeriod": {
        "start": "2026-01-12T21:00:00.000Z"
      }
    },
    "request": {
      "method": "PUT",
      "url": "MedicationAdministration/d85c2c55-44ef-4ca6-83f7-e08be0e9439a"
    }
  }, {
    "fullUrl": "https://madie.cms.gov/Patient/f3a5ce49-9f1f-455b-8f44-2389c61d5850",
    "resource": {
      "resourceType": "Patient",
      "id": "f3a5ce49-9f1f-455b-8f44-2389c61d5850",
      "meta": {
        "profile": [ "http://hl7.org/fhir/us/qicore/StructureDefinition/qicore-patient" ]
      },
      "extension": [ {
        "url": "http://hl7.org/fhir/us/core/StructureDefinition/us-core-race",
        "extension": [ {
          "url": "ombCategory",
          "valueCoding": {
            "system": "urn:oid:2.16.840.1.113883.6.238",
            "code": "2106-3",
            "display": "White"
          }
        }, {
          "url": "text",
          "valueString": "White"
        } ]
      }, {
        "url": "http://hl7.org/fhir/us/core/StructureDefinition/us-core-ethnicity",
        "extension": [ {
          "url": "ombCategory",
          "valueCoding": {
            "system": "urn:oid:2.16.840.1.113883.6.238",
            "code": "2135-2",
            "display": "Hispanic or Latino"
          }
        }, {
          "url": "text",
          "valueString": "Hispanic or Latino"
        } ]
      }, {
        "url": "http://hl7.org/fhir/us/core/StructureDefinition/us-core-sex",
        "valueCode": "248153007"
      } ],
      "identifier": [ {
        "system": "http://hospital.smarthealthit.org",
        "value": "999999999"
      } ],
      "name": [ {
        "family": "CMSDENOMPass",
        "given": [ "Age18EDEnc" ]
      } ],
      "gender": "female",
      "birthDate": "2008-07-11"
    },
    "request": {
      "method": "PUT",
      "url": "Patient/f3a5ce49-9f1f-455b-8f44-2389c61d5850"
    }
  }, {
    "fullUrl": "https://madie.cms.gov/MeasureReport/dce2ddab-a28a-490c-a8a9-4e1b3c05c587",
    "resource": {
      "resourceType": "MeasureReport",
      "id": "dce2ddab-a28a-490c-a8a9-4e1b3c05c587",
      "meta": {
        "profile": [ "http://hl7.org/fhir/us/cqfmeasures/StructureDefinition/test-case-cqfm" ]
      },
      "contained": [ {
        "resourceType": "Parameters",
        "id": "135dd135-bac3-450d-96ef-454928350450-parameters",
        "parameter": [ {
          "name": "subject",
          "valueString": "f3a5ce49-9f1f-455b-8f44-2389c61d5850"
        } ]
      } ],
      "extension": [ {
        "url": "http://hl7.org/fhir/StructureDefinition/cqf-inputParameters",
        "valueReference": {
          "reference": "#135dd135-bac3-450d-96ef-454928350450-parameters"
        }
      }, {
        "url": "http://hl7.org/fhir/us/cqfmeasures/StructureDefinition/cqfm-testCaseDescription",
        "valueMarkdown": "Pt turned 18 at exact date/time at start of ED encounter, meds administered, no lab tests. Denom pass.\n\n(CMS #10)"
      } ],
      "modifierExtension": [ {
        "url": "http://hl7.org/fhir/us/cqfmeasures/StructureDefinition/cqfm-isTestCase",
        "valueBoolean": true
      } ],
      "status": "complete",
      "type": "individual",
      "measure": "https://madie.cms.gov/Measure/NHSNGlycemicControlHypoglycemiaInitialPopulation",
      "period": {
        "start": "2026-01-01",
        "end": "2026-12-31"
      },
      "group": [ {
        "id": "Group_1",
        "population": [ {
          "id": "InitialPopulation_1",
          "code": {
            "coding": [ {
              "system": "http://terminology.hl7.org/CodeSystem/measure-population",
              "code": "initial-population",
              "display": "Initial Population"
            } ]
          },
          "count": 1
        } ],
        "measureScore": {
          "value": 0.0
        }
      } ],
      "evaluatedResource": [ {
        "reference": "Encounter/b7f9d997-fa2b-418d-a98f-1bb45c1327b7"
      }, {
        "reference": "MedicationAdministration/d85c2c55-44ef-4ca6-83f7-e08be0e9439a"
      }, {
        "reference": "Patient/f3a5ce49-9f1f-455b-8f44-2389c61d5850"
      } ]
    },
    "request": {
      "method": "PUT",
      "url": "MeasureReport/dce2ddab-a28a-490c-a8a9-4e1b3c05c587"
    }
  } ]
}