{
  "resourceType": "Bundle",
  "id": "63487c2d0968f80122540150",
  "type": "transaction",
  "entry": [ {
    "fullUrl": "https://madie.cms.gov/Patient/97d0a68f-69d6-41cb-b369-dacef5afef50",
    "resource": {
      "resourceType": "Patient",
      "id": "97d0a68f-69d6-41cb-b369-dacef5afef50",
      "meta": {
        "profile": [ "http://hl7.org/fhir/us/qicore/StructureDefinition/qicore-patient" ]
      },
      "text": {
        "status": "generated",
        "div": "<div xmlns=\"http://www.w3.org/1999/xhtml\"><div class=\"hapiHeaderText\">AssessPreTerm0RelDtTimeEQTimeOfDeliv <b>DENOMFail</b></div><table class=\"hapiPropertyTable\"><tbody><tr><td>Identifier</td><td>21cab5939e6bb47c04798dd477e91be28cac4144bde9f0e7b54700273d8719cc</td></tr><tr><td>Date of birth</td><td><span>14 February 1985</span></td></tr></tbody></table></div>"
      },
      "extension": [ {
        "url": "http://hl7.org/fhir/us/core/StructureDefinition/us-core-race",
        "extension": [ {
          "url": "ombCategory",
          "valueCoding": {
            "system": "urn:oid:2.16.840.1.113883.6.238",
            "code": "1002-5",
            "display": "American Indian or Alaska Native",
            "userSelected": true
          }
        }, {
          "url": "text",
          "valueString": "American Indian or Alaska Native"
        } ]
      }, {
        "url": "http://hl7.org/fhir/us/core/StructureDefinition/us-core-ethnicity",
        "extension": [ {
          "url": "ombCategory",
          "valueCoding": {
            "system": "urn:oid:2.16.840.1.113883.6.238",
            "code": "2135-2",
            "display": "Hispanic or Latino",
            "userSelected": true
          }
        }, {
          "url": "text",
          "valueString": "Hispanic or Latino"
        } ]
      } ],
      "identifier": [ {
        "type": {
          "coding": [ {
            "system": "http://terminology.hl7.org/CodeSystem/v2-0203",
            "code": "MR"
          } ]
        },
        "system": "https://bonnie-fhir.healthit.gov/",
        "value": "63487c2d0968f80122540150"
      } ],
      "active": true,
      "name": [ {
        "use": "usual",
        "family": "DENOMFail",
        "given": [ "AssessPreTerm0RelDtTimeEQTimeOfDeliv" ]
      } ],
      "gender": "female",
      "birthDate": "1998-02-14"
    },
    "request": {
      "method": "PUT",
      "url": "Patient/97d0a68f-69d6-41cb-b369-dacef5afef50"
    }
  }, {
    "fullUrl": "https://madie.cms.gov/Observation/5d73c0b0-dc67-4f69-acb2-2562bbe6fa2e",
    "resource": {
      "resourceType": "Observation",
      "id": "5d73c0b0-dc67-4f69-acb2-2562bbe6fa2e",
      "meta": {
        "profile": [ "http://hl7.org/fhir/us/qicore/StructureDefinition/qicore-simple-observation" ]
      },
      "status": "final",
      "category": [ {
        "coding": [ {
          "system": "http://terminology.hl7.org/CodeSystem/observation-category",
          "code": "exam",
          "display": "exam",
          "userSelected": true
        } ]
      } ],
      "code": {
        "coding": [ {
          "system": "http://loinc.org",
          "code": "11639-2"
        } ]
      },
      "subject": {
        "reference": "Patient/97d0a68f-69d6-41cb-b369-dacef5afef50"
      },
      "effectiveDateTime": "2025-09-19T09:00:00.000+00:00",
      "valueInteger": 0
    },
    "request": {
      "method": "PUT",
      "url": "Observation/5d73c0b0-dc67-4f69-acb2-2562bbe6fa2e"
    }
  }, {
    "fullUrl": "https://madie.cms.gov/Observation/3ccd6aea-f955-42f2-9f2f-cf80852ad368",
    "resource": {
      "resourceType": "Observation",
      "id": "3ccd6aea-f955-42f2-9f2f-cf80852ad368",
      "meta": {
        "profile": [ "http://hl7.org/fhir/us/qicore/StructureDefinition/qicore-simple-observation" ]
      },
      "status": "final",
      "category": [ {
        "coding": [ {
          "system": "http://terminology.hl7.org/CodeSystem/observation-category",
          "code": "exam",
          "display": "exam",
          "userSelected": true
        } ]
      } ],
      "code": {
        "coding": [ {
          "system": "http://loinc.org",
          "code": "11637-6"
        } ]
      },
      "subject": {
        "reference": "Patient/97d0a68f-69d6-41cb-b369-dacef5afef50"
      },
      "effectiveDateTime": "2026-06-08T20:00:00.000+00:00",
      "valueInteger": 0
    },
    "request": {
      "method": "PUT",
      "url": "Observation/3ccd6aea-f955-42f2-9f2f-cf80852ad368"
    }
  }, {
    "fullUrl": "https://madie.cms.gov/Observation/144c4491-a898-4914-8fa9-89754f94b2ea",
    "resource": {
      "resourceType": "Observation",
      "id": "144c4491-a898-4914-8fa9-89754f94b2ea",
      "meta": {
        "profile": [ "http://hl7.org/fhir/us/qicore/StructureDefinition/qicore-simple-observation" ]
      },
      "status": "final",
      "category": [ {
        "coding": [ {
          "system": "http://terminology.hl7.org/CodeSystem/observation-category",
          "code": "exam",
          "display": "exam",
          "userSelected": true
        } ]
      } ],
      "code": {
        "coding": [ {
          "system": "http://loinc.org",
          "code": "11884-4"
        } ]
      },
      "subject": {
        "reference": "Patient/97d0a68f-69d6-41cb-b369-dacef5afef50"
      },
      "effectiveDateTime": "2026-06-08T20:00:00.000+00:00",
      "valueQuantity": {
        "value": 37,
        "system": "http://unitsofmeasure.org",
        "code": "wk"
      }
    },
    "request": {
      "method": "PUT",
      "url": "Observation/144c4491-a898-4914-8fa9-89754f94b2ea"
    }
  }, {
    "fullUrl": "https://madie.cms.gov/Observation/b47d0c9f-395a-456b-88d2-25b0bb2fe42a",
    "resource": {
      "resourceType": "Observation",
      "id": "b47d0c9f-395a-456b-88d2-25b0bb2fe42a",
      "meta": {
        "profile": [ "http://hl7.org/fhir/us/qicore/StructureDefinition/qicore-simple-observation" ]
      },
      "status": "final",
      "category": [ {
        "coding": [ {
          "system": "http://terminology.hl7.org/CodeSystem/observation-category",
          "code": "exam",
          "display": "exam",
          "userSelected": true
        } ]
      } ],
      "code": {
        "coding": [ {
          "system": "http://loinc.org",
          "code": "93857-1"
        } ]
      },
      "subject": {
        "reference": "Patient/97d0a68f-69d6-41cb-b369-dacef5afef50"
      },
      "effectiveDateTime": "2026-06-08T20:00:00.000+00:00",
      "valueDateTime": "2026-06-08T20:00:00.000+00:00"
    },
    "request": {
      "method": "PUT",
      "url": "Observation/b47d0c9f-395a-456b-88d2-25b0bb2fe42a"
    }
  }, {
    "fullUrl": "https://madie.cms.gov/Encounter/32d0f2a0-e60a-4807-9e33-f462604781be",
    "resource": {
      "resourceType": "Encounter",
      "id": "32d0f2a0-e60a-4807-9e33-f462604781be",
      "meta": {
        "profile": [ "http://hl7.org/fhir/us/qicore/StructureDefinition/qicore-encounter" ]
      },
      "status": "finished",
      "class": {
        "system": "http://terminology.hl7.org/CodeSystem/v3-ActCode",
        "code": "IMP",
        "display": "inpatient encounter"
      },
      "type": [ {
        "coding": [ {
          "system": "http://snomed.info/sct",
          "code": "8715000"
        } ]
      } ],
      "subject": {
        "reference": "Patient/97d0a68f-69d6-41cb-b369-dacef5afef50"
      },
      "period": {
        "start": "2026-06-08T08:00:00.000+00:00",
        "end": "2026-06-10T08:15:00.000+00:00"
      },
      "length": {
        "value": 2,
        "unit": "days"
      },
      "reasonReference": [ {
        "reference": "Condition/55d4c5c2-e8e8-48a4-95f0-2c15ad650fa3"
      } ]
    },
    "request": {
      "method": "PUT",
      "url": "Encounter/32d0f2a0-e60a-4807-9e33-f462604781be"
    }
  }, {
    "fullUrl": "https://madie.cms.gov/Procedure/2330bd1c-d8c5-4719-96b0-b412fb23d421",
    "resource": {
      "resourceType": "Procedure",
      "id": "2330bd1c-d8c5-4719-96b0-b412fb23d421",
      "meta": {
        "profile": [ "http://hl7.org/fhir/us/qicore/StructureDefinition/qicore-procedure" ]
      },
      "extension": [ {
        "url": "http://hl7.org/fhir/us/qicore/StructureDefinition/qicore-recorded",
        "valueDateTime": "2014-04-05T13:35:00.000+00:00"
      } ],
      "status": "completed",
      "code": {
        "coding": [ {
          "system": "http://www.cms.gov/Medicare/Coding/ICD10",
          "code": "10D00Z0"
        }, {
          "system": "http://snomed.info/sct",
          "code": "4504004"
        }, {
          "system": "http://www.icd10data.com/icd10pcs",
          "code": "10D00Z0",
          "userSelected": true
        } ]
      },
      "subject": {
        "reference": "Patient/97d0a68f-69d6-41cb-b369-dacef5afef50"
      },
      "performedPeriod": {
        "start": "2026-06-08T20:00:00.000+00:00",
        "end": "2026-06-08T20:15:00.000+00:00"
      }
    },
    "request": {
      "method": "PUT",
      "url": "Procedure/2330bd1c-d8c5-4719-96b0-b412fb23d421"
    }
  }, {
    "fullUrl": "https://madie.cms.gov/Condition/55d4c5c2-e8e8-48a4-95f0-2c15ad650fa3",
    "resource": {
      "resourceType": "Condition",
      "id": "55d4c5c2-e8e8-48a4-95f0-2c15ad650fa3",
      "meta": {
        "profile": [ "http://hl7.org/fhir/us/qicore/StructureDefinition/qicore-condition-encounter-diagnosis" ]
      },
      "category": [ {
        "coding": [ {
          "system": "http://terminology.hl7.org/CodeSystem/condition-category",
          "code": "encounter-diagnosis",
          "display": "Encounter Diagnosis"
        } ]
      } ],
      "code": {
        "coding": [ {
          "system": "http://snomed.info/sct",
          "version": "2022-09",
          "code": "169826009",
          "display": "Single live birth from singleton pregnancy (finding)",
          "userSelected": true
        } ]
      },
      "subject": {
        "reference": "Patient/97d0a68f-69d6-41cb-b369-dacef5afef50"
      },
      "encounter": {
        "reference": "Encounter/32d0f2a0-e60a-4807-9e33-f462604781be"
      },
      "recordedDate": "2026-10-21T08:00:00.000+00:00"
    },
    "request": {
      "method": "PUT",
      "url": "Condition/55d4c5c2-e8e8-48a4-95f0-2c15ad650fa3"
    }
  }, {
    "fullUrl": "https://madie.cms.gov/Coverage/dc9a77aa-6bcd-4824-ac8e-2c4cab0deb10",
    "resource": {
      "resourceType": "Coverage",
      "id": "dc9a77aa-6bcd-4824-ac8e-2c4cab0deb10",
      "meta": {
        "profile": [ "http://hl7.org/fhir/us/qicore/StructureDefinition/qicore-coverage" ]
      },
      "status": "active",
      "subscriberId": "523435",
      "beneficiary": {
        "reference": "Patient/97d0a68f-69d6-41cb-b369-dacef5afef50"
      },
      "relationship": {
        "coding": [ {
          "system": "http://terminology.hl7.org/CodeSystem/subscriber-relationship",
          "code": "self"
        } ]
      },
      "payor": [ {
        "reference": "Organization/0c0ff13d-0533-4369-88a5-c927c629a87d"
      } ]
    },
    "request": {
      "method": "PUT",
      "url": "Coverage/dc9a77aa-6bcd-4824-ac8e-2c4cab0deb10"
    }
  }, {
    "fullUrl": "https://madie.cms.gov/Organization/0c0ff13d-0533-4369-88a5-c927c629a87d",
    "resource": {
      "resourceType": "Organization",
      "id": "0c0ff13d-0533-4369-88a5-c927c629a87d",
      "meta": {
        "profile": [ "http://hl7.org/fhir/us/qicore/StructureDefinition/qicore-organization" ]
      },
      "identifier": [ {
        "use": "temp",
        "system": "urn:oid:2.16.840.1.113883.4.4",
        "value": "21-3259825"
      } ],
      "active": true,
      "type": [ {
        "coding": [ {
          "system": "http://terminology.hl7.org/CodeSystem/organization-type",
          "code": "pay",
          "display": "Payer"
        } ]
      } ],
      "name": "Blue Cross Blue Shield of Texas",
      "telecom": [ {
        "system": "phone",
        "value": "(+1) 972-766-6900"
      } ],
      "address": [ {
        "use": "billing",
        "type": "postal",
        "line": [ "P.O. Box 660044" ],
        "city": "Dallas",
        "state": "TX",
        "postalCode": "75266-0044",
        "country": "USA"
      } ]
    },
    "request": {
      "method": "PUT",
      "url": "Organization/0c0ff13d-0533-4369-88a5-c927c629a87d"
    }
  }, {
    "fullUrl": "https://madie.cms.gov/Practitioner/290555c8-3075-4123-a7f4-8a19dea5c7c4",
    "resource": {
      "resourceType": "Practitioner",
      "id": "290555c8-3075-4123-a7f4-8a19dea5c7c4",
      "meta": {
        "profile": [ "http://hl7.org/fhir/us/qicore/StructureDefinition/qicore-practitioner" ]
      },
      "identifier": [ {
        "system": "http://hl7.org/fhir/sid/us-npi",
        "value": "1234567890"
      } ],
      "name": [ {
        "family": "Evil",
        "prefix": [ "Dr" ]
      } ]
    },
    "request": {
      "method": "PUT",
      "url": "Practitioner/290555c8-3075-4123-a7f4-8a19dea5c7c4"
    }
  }, {
    "fullUrl": "https://madie.cms.gov/MeasureReport/904897bf-26f4-4474-890b-fe19fc5570c0",
    "resource": {
      "resourceType": "MeasureReport",
      "id": "904897bf-26f4-4474-890b-fe19fc5570c0",
      "meta": {
        "profile": [ "http://hl7.org/fhir/us/cqfmeasures/StructureDefinition/test-case-cqfm" ]
      },
      "contained": [ {
        "resourceType": "Parameters",
        "id": "af4d7b4e-8615-4fdf-9061-b2ffdc73ef3b-parameters",
        "parameter": [ {
          "name": "subject",
          "valueString": "97d0a68f-69d6-41cb-b369-dacef5afef50"
        } ]
      } ],
      "extension": [ {
        "url": "http://hl7.org/fhir/StructureDefinition/cqf-inputParameters",
        "valueReference": {
          "reference": "#af4d7b4e-8615-4fdf-9061-b2ffdc73ef3b-parameters"
        }
      }, {
        "url": "http://hl7.org/fhir/us/cqfmeasures/StructureDefinition/cqfm-testCaseDescription",
        "valueMarkdown": "\"Term Newborn=0,  <42wks B4 Asse delivery.\nPreterm=0, rel date/time same date and time as Asse delivery Datetime.  Fails"
      } ],
      "modifierExtension": [ {
        "url": "http://hl7.org/fhir/us/cqfmeasures/StructureDefinition/cqfm-isTestCase",
        "valueBoolean": true
      } ],
      "status": "complete",
      "type": "individual",
      "measure": "https://madie.cms.gov/Measure/CMS0334FHIRPCCesareanBirth",
      "period": {
        "start": "2026-01-01",
        "end": "2026-12-31"
      },
      "group": [ {
        "id": "Group_1",
        "population": [ {
          "id": "InitialPopulation_1",
          "code": {
            "coding": [ {
              "system": "http://terminology.hl7.org/CodeSystem/measure-population",
              "code": "initial-population",
              "display": "Initial Population"
            } ]
          },
          "count": 1
        }, {
          "id": "Denominator_1",
          "code": {
            "coding": [ {
              "system": "http://terminology.hl7.org/CodeSystem/measure-population",
              "code": "denominator",
              "display": "Denominator"
            } ]
          },
          "count": 0
        }, {
          "id": "DenominatorExclusion_1",
          "code": {
            "coding": [ {
              "system": "http://terminology.hl7.org/CodeSystem/measure-population",
              "code": "denominator-exclusion",
              "display": "Denominator Exclusion"
            } ]
          },
          "count": 0
        }, {
          "id": "Numerator_1",
          "code": {
            "coding": [ {
              "system": "http://terminology.hl7.org/CodeSystem/measure-population",
              "code": "numerator",
              "display": "Numerator"
            } ]
          },
          "count": 0
        } ],
        "measureScore": {
          "value": 0.0
        }
      } ],
      "evaluatedResource": [ {
        "reference": "Patient/97d0a68f-69d6-41cb-b369-dacef5afef50"
      }, {
        "reference": "Observation/5d73c0b0-dc67-4f69-acb2-2562bbe6fa2e"
      }, {
        "reference": "Observation/3ccd6aea-f955-42f2-9f2f-cf80852ad368"
      }, {
        "reference": "Observation/144c4491-a898-4914-8fa9-89754f94b2ea"
      }, {
        "reference": "Observation/b47d0c9f-395a-456b-88d2-25b0bb2fe42a"
      }, {
        "reference": "Encounter/32d0f2a0-e60a-4807-9e33-f462604781be"
      }, {
        "reference": "Procedure/2330bd1c-d8c5-4719-96b0-b412fb23d421"
      }, {
        "reference": "Condition/55d4c5c2-e8e8-48a4-95f0-2c15ad650fa3"
      }, {
        "reference": "Coverage/dc9a77aa-6bcd-4824-ac8e-2c4cab0deb10"
      }, {
        "reference": "Organization/0c0ff13d-0533-4369-88a5-c927c629a87d"
      }, {
        "reference": "Practitioner/290555c8-3075-4123-a7f4-8a19dea5c7c4"
      } ]
    },
    "request": {
      "method": "PUT",
      "url": "MeasureReport/904897bf-26f4-4474-890b-fe19fc5570c0"
    }
  } ]
}