{
  "resourceType": "Bundle",
  "id": "TMT-PATIENT-BUNDLE-20",
  "type": "collection",
  "entry": [ {
    "fullUrl": "https://madie.cms.gov/Patient/a788d38f-a86a-4dc0-8f79-a22a31709495",
    "resource": {
      "resourceType": "Patient",
      "id": "a788d38f-a86a-4dc0-8f79-a22a31709495",
      "meta": {
        "profile": [ "http://hl7.org/fhir/us/qicore/StructureDefinition/qicore-patient" ]
      },
      "text": {
        "status": "generated",
        "div": "<div xmlns=\"http://www.w3.org/1999/xhtml\"><div class=\"hapiHeaderText\">DOVE-IPP-PASS <b>PATIENT </b></div><table class=\"hapiPropertyTable\"><tbody><tr><td>Identifier</td><td>679a60f5-1866-49a0-9992-a7ded2451985</td></tr><tr><td>Date of birth</td><td><span>10 May 1960</span></td></tr></tbody></table></div>"
      },
      "extension": [ {
        "url": "http://hl7.org/fhir/us/core/StructureDefinition/us-core-race",
        "extension": [ {
          "url": "ombCategory",
          "valueCoding": {
            "system": "urn:oid:2.16.840.1.113883.6.238",
            "code": "1002-5",
            "display": "American Indian or Alaska Native",
            "userSelected": true
          }
        }, {
          "url": "text",
          "valueString": "American Indian or Alaska Native"
        }, {
          "url": "detailed",
          "valueCoding": {
            "system": "urn:oid:2.16.840.1.113883.6.238",
            "code": "1653-5",
            "display": "Tohono O'Odham"
          }
        } ]
      }, {
        "url": "http://hl7.org/fhir/us/core/StructureDefinition/us-core-ethnicity",
        "extension": [ {
          "url": "ombCategory",
          "valueCoding": {
            "system": "urn:oid:2.16.840.1.113883.6.238",
            "code": "2135-2",
            "display": "Hispanic or Latino",
            "userSelected": true
          }
        }, {
          "url": "text",
          "valueString": "Hispanic or Latino"
        }, {
          "url": "detailed",
          "valueCoding": {
            "system": "urn:oid:2.16.840.1.113883.6.238",
            "code": "2153-5",
            "display": "Mexican American Indian"
          }
        } ]
      }, {
        "id": "sex",
        "url": "http://hl7.org/fhir/us/core/StructureDefinition/us-core-sex",
        "valueCode": "248152002"
      } ],
      "identifier": [ {
        "use": "usual",
        "type": {
          "coding": [ {
            "system": "http://terminology.hl7.org/CodeSystem/v2-0203",
            "code": "MR"
          } ]
        },
        "system": "urn:oid:1.2.36.146.595.217.0.1",
        "value": "12345",
        "period": {
          "start": "1995-05-06"
        },
        "assigner": {
          "display": "Acme Healthcare"
        }
      } ],
      "active": true,
      "name": [ {
        "use": "official",
        "family": "Dovetestpatient20",
        "given": [ "Sarah" ]
      } ],
      "telecom": [ {
        "system": "phone",
        "value": "(302) 212 1212",
        "use": "mobile",
        "rank": 1
      } ],
      "gender": "female",
      "birthDate": "1946-09-25",
      "_birthDate": {
        "extension": [ {
          "url": "http://hl7.org/fhir/StructureDefinition/patient-birthTime",
          "valueDateTime": "1946-09-25T19:35:45.000+00:00"
        } ]
      },
      "deceasedBoolean": false,
      "address": [ {
        "use": "home",
        "type": "both",
        "text": "1600 Pennslyvania Ave",
        "line": [ "1600 Pennslyvania Ave" ],
        "city": "Washington DC",
        "state": "DC",
        "postalCode": "20500",
        "period": {
          "start": "1946-12-25"
        }
      } ],
      "contact": [ {
        "relationship": [ {
          "coding": [ {
            "system": "http://terminology.hl7.org/CodeSystem/v2-0131",
            "code": "N"
          } ]
        } ],
        "name": {
          "family": "du Marché",
          "_family": {
            "extension": [ {
              "url": "http://hl7.org/fhir/StructureDefinition/humanname-own-prefix",
              "valueString": "VV"
            } ]
          },
          "given": [ "Bénédicte" ]
        },
        "telecom": [ {
          "system": "phone",
          "value": "+33 (237) 998327"
        } ],
        "address": {
          "use": "home",
          "type": "both",
          "line": [ "534 Erewhon St" ],
          "city": "PleasantVille",
          "district": "Rainbow",
          "state": "VT",
          "postalCode": "3999",
          "period": {
            "start": "1974-12-25"
          }
        },
        "gender": "female",
        "period": {
          "start": "2012"
        }
      } ],
      "managingOrganization": {
        "reference": "Organization/example"
      }
    }
  }, {
    "fullUrl": "https://madie.cms.gov/Encounter/d8ae51d3-ea00-4f29-8933-82aa1b0657db",
    "resource": {
      "resourceType": "Encounter",
      "id": "d8ae51d3-ea00-4f29-8933-82aa1b0657db",
      "meta": {
        "profile": [ "http://hl7.org/fhir/us/qicore/StructureDefinition/qicore-encounter" ]
      },
      "text": {
        "status": "generated",
        "div": "<div xmlns=\"http://www.w3.org/1999/xhtml\"><div class=\"hapiHeaderText\">Generic Resource Narrative for Testing</div><table class=\"hapiPropertyTable\"><tbody><tr><td>Identifier</td><td>resource narrative</td></tr></tbody></table></div>"
      },
      "status": "finished",
      "class": {
        "system": "http://terminology.hl7.org/CodeSystem/v3-ActCode",
        "code": "IMP",
        "display": "inpatient encounter"
      },
      "type": [ {
        "coding": [ {
          "system": "http://snomed.info/sct",
          "code": "183452005",
          "display": "Emergency hospital admission (procedure)"
        } ]
      } ],
      "subject": {
        "reference": "Patient/a788d38f-a86a-4dc0-8f79-a22a31709495"
      },
      "period": {
        "start": "2026-01-01T02:30:00.000+00:00",
        "end": "2026-01-01T22:30:00.000+00:00"
      },
      "length": {
        "value": 20,
        "unit": "hours"
      },
      "reasonCode": [ {
        "coding": [ {
          "system": "http://hl7.org/fhir/sid/icd-10-cm",
          "code": "I82.3",
          "display": "Embolism and thrombosis of renal vein",
          "userSelected": true
        } ]
      } ],
      "reasonReference": [ {
        "reference": "Condition/165e5a42-ff8e-4c71-ac1a-60a2d65aa652"
      } ]
    }
  }, {
    "fullUrl": "https://madie.cms.gov/Encounter/56b7d6e0-b4d5-4d9d-8674-0b00dcb6ae26",
    "resource": {
      "resourceType": "Encounter",
      "id": "56b7d6e0-b4d5-4d9d-8674-0b00dcb6ae26",
      "meta": {
        "profile": [ "http://hl7.org/fhir/us/qicore/StructureDefinition/qicore-encounter" ]
      },
      "text": {
        "status": "generated",
        "div": "<div xmlns=\"http://www.w3.org/1999/xhtml\"><div class=\"hapiHeaderText\">Generic Resource Narrative for Testing</div><table class=\"hapiPropertyTable\"><tbody><tr><td>Identifier</td><td>resource narrative</td></tr></tbody></table></div>"
      },
      "status": "finished",
      "class": {
        "system": "http://terminology.hl7.org/CodeSystem/v3-ActCode",
        "code": "IMP",
        "display": "inpatient encounter"
      },
      "type": [ {
        "coding": [ {
          "system": "http://snomed.info/sct",
          "code": "183452005",
          "display": "Emergency hospital admission (procedure)"
        } ]
      } ],
      "subject": {
        "reference": "Patient/a788d38f-a86a-4dc0-8f79-a22a31709495"
      },
      "period": {
        "start": "2026-07-01T02:30:00.000+00:00",
        "end": "2026-07-01T22:30:00.000+00:00"
      },
      "length": {
        "value": 20,
        "unit": "hours"
      },
      "reasonCode": [ {
        "coding": [ {
          "system": "http://hl7.org/fhir/sid/icd-10-cm",
          "code": "I82.3",
          "display": "Embolism and thrombosis of renal vein",
          "userSelected": true
        } ]
      } ],
      "reasonReference": [ {
        "reference": "Condition/bf9f95d3-e57e-43ba-8849-af2253919577"
      } ]
    }
  }, {
    "fullUrl": "https://madie.cms.gov/Condition/165e5a42-ff8e-4c71-ac1a-60a2d65aa652",
    "resource": {
      "resourceType": "Condition",
      "id": "165e5a42-ff8e-4c71-ac1a-60a2d65aa652",
      "meta": {
        "profile": [ "http://hl7.org/fhir/us/qicore/StructureDefinition/qicore-condition-encounter-diagnosis" ]
      },
      "text": {
        "status": "generated",
        "div": "<div xmlns=\"http://www.w3.org/1999/xhtml\"><p><b>Generated Narrative: Condition</b><a name=\"appendicitis-example\"> </a></p><div style=\"display: inline-block; background-color: #d9e0e7; padding: 6px; margin: 4px; border: 1px solid #8da1b4; border-radius: 5px; line-height: 60%\"><p style=\"margin-bottom: 0px\">Resource Condition &quot;appendicitis-example&quot; </p><p style=\"margin-bottom: 0px\">Profile: <a href=\"StructureDefinition-qicore-condition-encounter-diagnosis.html\">QICore Condition Encounter Diagnosis</a></p></div><p><b>clinicalStatus</b>: Active <span style=\"background: LightGoldenRodYellow; margin: 4px; border: 1px solid khaki\"> (<a href=\"http://terminology.hl7.org/5.4.0/CodeSystem-condition-clinical.html\">Condition Clinical Status Codes</a>#active)</span></p><p><b>verificationStatus</b>: Confirmed <span style=\"background: LightGoldenRodYellow; margin: 4px; border: 1px solid khaki\"> (<a href=\"http://terminology.hl7.org/5.4.0/CodeSystem-condition-ver-status.html\">ConditionVerificationStatus</a>#confirmed)</span></p><p><b>category</b>: Encounter Diagnosis <span style=\"background: LightGoldenRodYellow; margin: 4px; border: 1px solid khaki\"> (<a href=\"http://terminology.hl7.org/5.4.0/CodeSystem-condition-category.html\">Condition Category Codes</a>#encounter-diagnosis)</span></p><p><b>severity</b>: Severe (severity modifier) <span style=\"background: LightGoldenRodYellow; margin: 4px; border: 1px solid khaki\"> (<a href=\"https://browser.ihtsdotools.org/\">SNOMED CT</a>#24484000)</span></p><p><b>code</b>: Appendicitis <span style=\"background: LightGoldenRodYellow; margin: 4px; border: 1px solid khaki\"> (<a href=\"https://browser.ihtsdotools.org/\">SNOMED CT</a>#74400008 &quot;Appendicitis (disorder)&quot;)</span></p><p><b>bodySite</b>: Appendix structure <span style=\"background: LightGoldenRodYellow; margin: 4px; border: 1px solid khaki\"> (<a href=\"https://browser.ihtsdotools.org/\">SNOMED CT</a>#66754008)</span></p><p><b>subject</b>: <a href=\"Patient-example.html\">Patient/example</a> &quot; CHALMERS&quot;</p><p><b>encounter</b>: <a href=\"Encounter-example.html\">Encounter/example</a></p><p><b>onset</b>: 2012-05-24 00:00:00+0000</p><p><b>recordedDate</b>: 2012-05-24 00:00:00+0000</p></div>"
      },
      "clinicalStatus": {
        "coding": [ {
          "system": "http://terminology.hl7.org/CodeSystem/condition-clinical",
          "code": "active"
        } ]
      },
      "verificationStatus": {
        "coding": [ {
          "system": "http://terminology.hl7.org/CodeSystem/condition-ver-status",
          "code": "confirmed"
        } ]
      },
      "category": [ {
        "coding": [ {
          "system": "http://terminology.hl7.org/CodeSystem/condition-category",
          "code": "encounter-diagnosis",
          "display": "Encounter Diagnosis"
        } ]
      } ],
      "code": {
        "coding": [ {
          "system": "http://hl7.org/fhir/sid/icd-10-cm",
          "code": "I82.3",
          "display": "Embolism and thrombosis of renal vein"
        } ],
        "text": "Embolism and thrombosis of renal vein"
      },
      "subject": {
        "reference": "Patient/a788d38f-a86a-4dc0-8f79-a22a31709495"
      },
      "encounter": {
        "reference": "Encounter/d8ae51d3-ea00-4f29-8933-82aa1b0657db"
      },
      "onsetDateTime": "2026-01-01T04:30:00.000+00:00",
      "recordedDate": "2026-01-01T04:30:00.000+00:00"
    }
  }, {
    "fullUrl": "https://madie.cms.gov/Condition/bf9f95d3-e57e-43ba-8849-af2253919577",
    "resource": {
      "resourceType": "Condition",
      "id": "bf9f95d3-e57e-43ba-8849-af2253919577",
      "meta": {
        "profile": [ "http://hl7.org/fhir/us/qicore/StructureDefinition/qicore-condition-encounter-diagnosis" ]
      },
      "text": {
        "status": "generated",
        "div": "<div xmlns=\"http://www.w3.org/1999/xhtml\"><p><b>Generated Narrative: Condition</b><a name=\"appendicitis-example\"> </a></p><div style=\"display: inline-block; background-color: #d9e0e7; padding: 6px; margin: 4px; border: 1px solid #8da1b4; border-radius: 5px; line-height: 60%\"><p style=\"margin-bottom: 0px\">Resource Condition &quot;appendicitis-example&quot; </p><p style=\"margin-bottom: 0px\">Profile: <a href=\"StructureDefinition-qicore-condition-encounter-diagnosis.html\">QICore Condition Encounter Diagnosis</a></p></div><p><b>clinicalStatus</b>: Active <span style=\"background: LightGoldenRodYellow; margin: 4px; border: 1px solid khaki\"> (<a href=\"http://terminology.hl7.org/5.4.0/CodeSystem-condition-clinical.html\">Condition Clinical Status Codes</a>#active)</span></p><p><b>verificationStatus</b>: Confirmed <span style=\"background: LightGoldenRodYellow; margin: 4px; border: 1px solid khaki\"> (<a href=\"http://terminology.hl7.org/5.4.0/CodeSystem-condition-ver-status.html\">ConditionVerificationStatus</a>#confirmed)</span></p><p><b>category</b>: Encounter Diagnosis <span style=\"background: LightGoldenRodYellow; margin: 4px; border: 1px solid khaki\"> (<a href=\"http://terminology.hl7.org/5.4.0/CodeSystem-condition-category.html\">Condition Category Codes</a>#encounter-diagnosis)</span></p><p><b>severity</b>: Severe (severity modifier) <span style=\"background: LightGoldenRodYellow; margin: 4px; border: 1px solid khaki\"> (<a href=\"https://browser.ihtsdotools.org/\">SNOMED CT</a>#24484000)</span></p><p><b>code</b>: Appendicitis <span style=\"background: LightGoldenRodYellow; margin: 4px; border: 1px solid khaki\"> (<a href=\"https://browser.ihtsdotools.org/\">SNOMED CT</a>#74400008 &quot;Appendicitis (disorder)&quot;)</span></p><p><b>bodySite</b>: Appendix structure <span style=\"background: LightGoldenRodYellow; margin: 4px; border: 1px solid khaki\"> (<a href=\"https://browser.ihtsdotools.org/\">SNOMED CT</a>#66754008)</span></p><p><b>subject</b>: <a href=\"Patient-example.html\">Patient/example</a> &quot; CHALMERS&quot;</p><p><b>encounter</b>: <a href=\"Encounter-example.html\">Encounter/example</a></p><p><b>onset</b>: 2012-05-24 00:00:00+0000</p><p><b>recordedDate</b>: 2012-05-24 00:00:00+0000</p></div>"
      },
      "clinicalStatus": {
        "coding": [ {
          "system": "http://terminology.hl7.org/CodeSystem/condition-clinical",
          "code": "active"
        } ]
      },
      "verificationStatus": {
        "coding": [ {
          "system": "http://terminology.hl7.org/CodeSystem/condition-ver-status",
          "code": "confirmed"
        } ]
      },
      "category": [ {
        "coding": [ {
          "system": "http://terminology.hl7.org/CodeSystem/condition-category",
          "code": "encounter-diagnosis",
          "display": "Encounter Diagnosis"
        } ]
      } ],
      "code": {
        "coding": [ {
          "system": "http://hl7.org/fhir/sid/icd-10-cm",
          "code": "I82.3",
          "display": "Embolism and thrombosis of renal vein"
        } ],
        "text": "Embolism and thrombosis of renal vein"
      },
      "subject": {
        "reference": "Patient/a788d38f-a86a-4dc0-8f79-a22a31709495"
      },
      "encounter": {
        "reference": "Encounter/56b7d6e0-b4d5-4d9d-8674-0b00dcb6ae26"
      },
      "onsetDateTime": "2026-07-01T04:30:00.000+00:00",
      "recordedDate": "2026-07-01T04:30:00.000+00:00"
    }
  }, {
    "fullUrl": "https://madie.cms.gov/Encounter/6925a3b1-28fc-4d93-95cd-1fe4c8852ddb",
    "resource": {
      "resourceType": "Encounter",
      "id": "6925a3b1-28fc-4d93-95cd-1fe4c8852ddb",
      "meta": {
        "profile": [ "http://hl7.org/fhir/us/qicore/StructureDefinition/qicore-encounter" ]
      },
      "text": {
        "status": "generated",
        "div": "<div xmlns=\"http://www.w3.org/1999/xhtml\"><div class=\"hapiHeaderText\">Generic Resource Narrative for Testing</div><table class=\"hapiPropertyTable\"><tbody><tr><td>Identifier</td><td>resource narrative</td></tr></tbody></table></div>"
      },
      "status": "finished",
      "class": {
        "system": "http://terminology.hl7.org/CodeSystem/v3-ActCode",
        "code": "AMB",
        "display": "ambulatory"
      },
      "type": [ {
        "coding": [ {
          "system": "http://www.ama-assn.org/go/cpt",
          "code": "99202",
          "display": "Office or other outpatient visit for the evaluation and management of a new patient, which requires a medically appropriate history and/or examination and straightforward medical decision making. When using time for code selection, 15-29 minutes of total time is spent on the date of the encounter."
        } ]
      } ],
      "subject": {
        "reference": "Patient/a788d38f-a86a-4dc0-8f79-a22a31709495"
      },
      "period": {
        "start": "2025-12-02T17:48:57.000+00:00",
        "end": "2025-12-02T18:00:00.000+00:00"
      },
      "length": {
        "value": 20,
        "unit": "hours"
      },
      "reasonCode": [ {
        "coding": [ {
          "system": "http://snomed.info/sct",
          "code": "10601006",
          "display": "Pain in lower limb (finding)",
          "userSelected": true
        } ]
      } ],
      "reasonReference": [ {
        "reference": "Condition/751d5c3e-a3d1-4da5-a40a-2952a344e250"
      } ]
    }
  }, {
    "fullUrl": "https://madie.cms.gov/Encounter/ad7a4768-4841-4f9f-89ff-a1ea3de217d5",
    "resource": {
      "resourceType": "Encounter",
      "id": "ad7a4768-4841-4f9f-89ff-a1ea3de217d5",
      "meta": {
        "profile": [ "http://hl7.org/fhir/us/qicore/StructureDefinition/qicore-encounter" ]
      },
      "text": {
        "status": "generated",
        "div": "<div xmlns=\"http://www.w3.org/1999/xhtml\"><div class=\"hapiHeaderText\">Generic Resource Narrative for Testing</div><table class=\"hapiPropertyTable\"><tbody><tr><td>Identifier</td><td>resource narrative</td></tr></tbody></table></div>"
      },
      "status": "finished",
      "class": {
        "system": "http://terminology.hl7.org/CodeSystem/v3-ActCode",
        "code": "AMB",
        "display": "ambulatory"
      },
      "type": [ {
        "coding": [ {
          "system": "http://www.ama-assn.org/go/cpt",
          "code": "99202",
          "display": "Office or other outpatient visit for the evaluation and management of a new patient, which requires a medically appropriate history and/or examination and straightforward medical decision making. When using time for code selection, 15-29 minutes of total time is spent on the date of the encounter."
        } ]
      } ],
      "subject": {
        "reference": "Patient/a788d38f-a86a-4dc0-8f79-a22a31709495"
      },
      "period": {
        "start": "2026-06-11T02:30:00.000+00:00",
        "end": "2026-06-11T18:00:00.000+00:00"
      },
      "length": {
        "value": 20,
        "unit": "hours"
      },
      "reasonCode": [ {
        "coding": [ {
          "system": "http://snomed.info/sct",
          "code": "10601006",
          "display": "Pain in lower limb (finding)",
          "userSelected": true
        } ]
      } ],
      "reasonReference": [ {
        "reference": "Condition/751d5c3e-a3d1-4da5-a40a-2952a344e250"
      } ]
    }
  }, {
    "fullUrl": "https://madie.cms.gov/Condition/751d5c3e-a3d1-4da5-a40a-2952a344e250",
    "resource": {
      "resourceType": "Condition",
      "id": "751d5c3e-a3d1-4da5-a40a-2952a344e250",
      "meta": {
        "profile": [ "http://hl7.org/fhir/us/qicore/StructureDefinition/qicore-condition-encounter-diagnosis" ]
      },
      "text": {
        "status": "generated",
        "div": "<div xmlns=\"http://www.w3.org/1999/xhtml\"><p><b>Generated Narrative: Condition</b><a name=\"appendicitis-example\"> </a></p><div style=\"display: inline-block; background-color: #d9e0e7; padding: 6px; margin: 4px; border: 1px solid #8da1b4; border-radius: 5px; line-height: 60%\"><p style=\"margin-bottom: 0px\">Resource Condition &quot;appendicitis-example&quot; </p><p style=\"margin-bottom: 0px\">Profile: <a href=\"StructureDefinition-qicore-condition-encounter-diagnosis.html\">QICore Condition Encounter Diagnosis</a></p></div><p><b>clinicalStatus</b>: Active <span style=\"background: LightGoldenRodYellow; margin: 4px; border: 1px solid khaki\"> (<a href=\"http://terminology.hl7.org/5.4.0/CodeSystem-condition-clinical.html\">Condition Clinical Status Codes</a>#active)</span></p><p><b>verificationStatus</b>: Confirmed <span style=\"background: LightGoldenRodYellow; margin: 4px; border: 1px solid khaki\"> (<a href=\"http://terminology.hl7.org/5.4.0/CodeSystem-condition-ver-status.html\">ConditionVerificationStatus</a>#confirmed)</span></p><p><b>category</b>: Encounter Diagnosis <span style=\"background: LightGoldenRodYellow; margin: 4px; border: 1px solid khaki\"> (<a href=\"http://terminology.hl7.org/5.4.0/CodeSystem-condition-category.html\">Condition Category Codes</a>#encounter-diagnosis)</span></p><p><b>severity</b>: Severe (severity modifier) <span style=\"background: LightGoldenRodYellow; margin: 4px; border: 1px solid khaki\"> (<a href=\"https://browser.ihtsdotools.org/\">SNOMED CT</a>#24484000)</span></p><p><b>code</b>: Appendicitis <span style=\"background: LightGoldenRodYellow; margin: 4px; border: 1px solid khaki\"> (<a href=\"https://browser.ihtsdotools.org/\">SNOMED CT</a>#74400008 &quot;Appendicitis (disorder)&quot;)</span></p><p><b>bodySite</b>: Appendix structure <span style=\"background: LightGoldenRodYellow; margin: 4px; border: 1px solid khaki\"> (<a href=\"https://browser.ihtsdotools.org/\">SNOMED CT</a>#66754008)</span></p><p><b>subject</b>: <a href=\"Patient-example.html\">Patient/example</a> &quot; CHALMERS&quot;</p><p><b>encounter</b>: <a href=\"Encounter-example.html\">Encounter/example</a></p><p><b>onset</b>: 2012-05-24 00:00:00+0000</p><p><b>recordedDate</b>: 2012-05-24 00:00:00+0000</p></div>"
      },
      "clinicalStatus": {
        "coding": [ {
          "system": "http://terminology.hl7.org/CodeSystem/condition-clinical",
          "code": "active"
        } ]
      },
      "verificationStatus": {
        "coding": [ {
          "system": "http://terminology.hl7.org/CodeSystem/condition-ver-status",
          "code": "confirmed"
        } ]
      },
      "category": [ {
        "coding": [ {
          "system": "http://terminology.hl7.org/CodeSystem/condition-category",
          "code": "encounter-diagnosis",
          "display": "Encounter Diagnosis"
        } ]
      } ],
      "code": {
        "coding": [ {
          "system": "http://snomed.info/sct",
          "code": "10601006",
          "display": "Pain in lower limb (finding)"
        } ],
        "text": "Pain in lower limb (finding)"
      },
      "subject": {
        "reference": "Patient/a788d38f-a86a-4dc0-8f79-a22a31709495"
      },
      "encounter": {
        "reference": "Encounter/6925a3b1-28fc-4d93-95cd-1fe4c8852ddb"
      },
      "onsetDateTime": "2025-12-02T17:48:57.000+00:00",
      "recordedDate": "2025-12-02T17:48:57.000+00:00"
    }
  }, {
    "fullUrl": "https://madie.cms.gov/Condition/f4d473c7-91db-46dd-933b-25f9df9798f3",
    "resource": {
      "resourceType": "Condition",
      "id": "f4d473c7-91db-46dd-933b-25f9df9798f3",
      "meta": {
        "profile": [ "http://hl7.org/fhir/us/qicore/StructureDefinition/qicore-condition-encounter-diagnosis" ]
      },
      "text": {
        "status": "generated",
        "div": "<div xmlns=\"http://www.w3.org/1999/xhtml\"><p><b>Generated Narrative: Condition</b><a name=\"appendicitis-example\"> </a></p><div style=\"display: inline-block; background-color: #d9e0e7; padding: 6px; margin: 4px; border: 1px solid #8da1b4; border-radius: 5px; line-height: 60%\"><p style=\"margin-bottom: 0px\">Resource Condition &quot;appendicitis-example&quot; </p><p style=\"margin-bottom: 0px\">Profile: <a href=\"StructureDefinition-qicore-condition-encounter-diagnosis.html\">QICore Condition Encounter Diagnosis</a></p></div><p><b>clinicalStatus</b>: Active <span style=\"background: LightGoldenRodYellow; margin: 4px; border: 1px solid khaki\"> (<a href=\"http://terminology.hl7.org/5.4.0/CodeSystem-condition-clinical.html\">Condition Clinical Status Codes</a>#active)</span></p><p><b>verificationStatus</b>: Confirmed <span style=\"background: LightGoldenRodYellow; margin: 4px; border: 1px solid khaki\"> (<a href=\"http://terminology.hl7.org/5.4.0/CodeSystem-condition-ver-status.html\">ConditionVerificationStatus</a>#confirmed)</span></p><p><b>category</b>: Encounter Diagnosis <span style=\"background: LightGoldenRodYellow; margin: 4px; border: 1px solid khaki\"> (<a href=\"http://terminology.hl7.org/5.4.0/CodeSystem-condition-category.html\">Condition Category Codes</a>#encounter-diagnosis)</span></p><p><b>severity</b>: Severe (severity modifier) <span style=\"background: LightGoldenRodYellow; margin: 4px; border: 1px solid khaki\"> (<a href=\"https://browser.ihtsdotools.org/\">SNOMED CT</a>#24484000)</span></p><p><b>code</b>: Appendicitis <span style=\"background: LightGoldenRodYellow; margin: 4px; border: 1px solid khaki\"> (<a href=\"https://browser.ihtsdotools.org/\">SNOMED CT</a>#74400008 &quot;Appendicitis (disorder)&quot;)</span></p><p><b>bodySite</b>: Appendix structure <span style=\"background: LightGoldenRodYellow; margin: 4px; border: 1px solid khaki\"> (<a href=\"https://browser.ihtsdotools.org/\">SNOMED CT</a>#66754008)</span></p><p><b>subject</b>: <a href=\"Patient-example.html\">Patient/example</a> &quot; CHALMERS&quot;</p><p><b>encounter</b>: <a href=\"Encounter-example.html\">Encounter/example</a></p><p><b>onset</b>: 2012-05-24 00:00:00+0000</p><p><b>recordedDate</b>: 2012-05-24 00:00:00+0000</p></div>"
      },
      "clinicalStatus": {
        "coding": [ {
          "system": "http://terminology.hl7.org/CodeSystem/condition-clinical",
          "code": "active"
        } ]
      },
      "verificationStatus": {
        "coding": [ {
          "system": "http://terminology.hl7.org/CodeSystem/condition-ver-status",
          "code": "confirmed"
        } ]
      },
      "category": [ {
        "coding": [ {
          "system": "http://terminology.hl7.org/CodeSystem/condition-category",
          "code": "encounter-diagnosis",
          "display": "Encounter Diagnosis"
        } ]
      } ],
      "code": {
        "coding": [ {
          "system": "http://snomed.info/sct",
          "code": "10601006",
          "display": "Pain in lower limb (finding)"
        } ],
        "text": "Pain in lower limb (finding)"
      },
      "subject": {
        "reference": "Patient/a788d38f-a86a-4dc0-8f79-a22a31709495"
      },
      "encounter": {
        "reference": "Encounter/ad7a4768-4841-4f9f-89ff-a1ea3de217d5"
      },
      "onsetDateTime": "2026-06-11T17:48:57.000+00:00",
      "recordedDate": "2026-06-11T17:48:57.000+00:00"
    }
  }, {
    "fullUrl": "https://madie.cms.gov/DiagnosticReport/bee18a99-13fb-4cb3-8373-a16ba183cd59",
    "resource": {
      "resourceType": "DiagnosticReport",
      "id": "bee18a99-13fb-4cb3-8373-a16ba183cd59",
      "meta": {
        "profile": [ "http://hl7.org/fhir/us/qicore/StructureDefinition/qicore-diagnosticreport-note" ]
      },
      "text": {
        "status": "generated",
        "div": "<div xmlns=\"http://www.w3.org/1999/xhtml\"><p><b>Generated Narrative: DiagnosticReport</b><a name=\"clinical-result-heart-rate-rhythm\"> </a></p><div style=\"display: inline-block; background-color: #d9e0e7; padding: 6px; margin: 4px; border: 1px solid #8da1b4; border-radius: 5px; line-height: 60%\"><p style=\"margin-bottom: 0px\">Resource Observation &quot;clinical-result-heart-rate-rhythm&quot; </p><p style=\"margin-bottom: 0px\">Profile: <a href=\"StructureDefinition-qicore-observation-clinical-result.html\">QICore Observation Clinical Result</a></p></div><p><b>status</b>: final</p><p><b>category</b>: Exam <span style=\"background: LightGoldenRodYellow; margin: 4px; border: 1px solid khaki\"> (<a href=\"http://terminology.hl7.org/5.4.0/CodeSystem-observation-category.html\">Observation Category Codes</a>#exam)</span></p><p><b>code</b>: Heart rate rhythm <span style=\"background: LightGoldenRodYellow; margin: 4px; border: 1px solid khaki\"> (<a href=\"https://loinc.org/\">LOINC</a>#8884-9)</span></p><p><b>subject</b>: <a href=\"Patient-example.html\">Patient/example</a> &quot; CHALMERS&quot;</p><p><b>encounter</b>: <span>: Cardiology Consult</span></p><p><b>effective</b>: 2021-11-10 16:48:57-0800</p><p><b>performer</b>: <a href=\"Practitioner-example.html\">Practitioner/example: Practitioner</a> &quot; CAREFUL&quot;</p><p><b>value</b>: Regular (R)</p></div>"
      },
      "status": "final",
      "category": [ {
        "coding": [ {
          "system": "http://loinc.org",
          "code": "LP29684-5",
          "display": "Radiology"
        } ],
        "text": "Imaging"
      } ],
      "code": {
        "coding": [ {
          "system": "http://www.ama-assn.org/go/cpt",
          "code": "71260",
          "display": "Computed tomography, thorax, diagnostic; with contrast material(s)"
        } ],
        "text": "Computed tomography, thorax, diagnostic; with contrast material(s)"
      },
      "subject": {
        "reference": "Patient/a788d38f-a86a-4dc0-8f79-a22a31709495"
      },
      "encounter": {
        "display": "Computed tomography"
      },
      "effectiveDateTime": "2026-01-01T17:48:57.000+00:00",
      "performer": [ {
        "reference": "Practitioner/example",
        "display": "Practitioner"
      } ]
    }
  }, {
    "fullUrl": "https://madie.cms.gov/DiagnosticReport/58259df7-57f4-4155-a910-7d474933e008",
    "resource": {
      "resourceType": "DiagnosticReport",
      "id": "58259df7-57f4-4155-a910-7d474933e008",
      "meta": {
        "profile": [ "http://hl7.org/fhir/us/qicore/StructureDefinition/qicore-diagnosticreport-note" ]
      },
      "text": {
        "status": "generated",
        "div": "<div xmlns=\"http://www.w3.org/1999/xhtml\"><p><b>Generated Narrative: DiagnosticReport</b><a name=\"clinical-result-heart-rate-rhythm\"> </a></p><div style=\"display: inline-block; background-color: #d9e0e7; padding: 6px; margin: 4px; border: 1px solid #8da1b4; border-radius: 5px; line-height: 60%\"><p style=\"margin-bottom: 0px\">Resource Observation &quot;clinical-result-heart-rate-rhythm&quot; </p><p style=\"margin-bottom: 0px\">Profile: <a href=\"StructureDefinition-qicore-observation-clinical-result.html\">QICore Observation Clinical Result</a></p></div><p><b>status</b>: final</p><p><b>category</b>: Exam <span style=\"background: LightGoldenRodYellow; margin: 4px; border: 1px solid khaki\"> (<a href=\"http://terminology.hl7.org/5.4.0/CodeSystem-observation-category.html\">Observation Category Codes</a>#exam)</span></p><p><b>code</b>: Heart rate rhythm <span style=\"background: LightGoldenRodYellow; margin: 4px; border: 1px solid khaki\"> (<a href=\"https://loinc.org/\">LOINC</a>#8884-9)</span></p><p><b>subject</b>: <a href=\"Patient-example.html\">Patient/example</a> &quot; CHALMERS&quot;</p><p><b>encounter</b>: <span>: Cardiology Consult</span></p><p><b>effective</b>: 2021-11-10 16:48:57-0800</p><p><b>performer</b>: <a href=\"Practitioner-example.html\">Practitioner/example: Practitioner</a> &quot; CAREFUL&quot;</p><p><b>value</b>: Regular (R)</p></div>"
      },
      "status": "final",
      "category": [ {
        "coding": [ {
          "system": "http://loinc.org",
          "code": "LP29684-5",
          "display": "Radiology"
        } ],
        "text": "Imaging"
      } ],
      "code": {
        "coding": [ {
          "system": "http://www.ama-assn.org/go/cpt",
          "code": "71260",
          "display": "Computed tomography, thorax, diagnostic; with contrast material(s)"
        } ],
        "text": "Computed tomography, thorax, diagnostic; with contrast material(s)"
      },
      "subject": {
        "reference": "Patient/a788d38f-a86a-4dc0-8f79-a22a31709495"
      },
      "encounter": {
        "display": "Computed tomography"
      },
      "effectiveDateTime": "2026-07-01T17:48:57.000+00:00",
      "performer": [ {
        "reference": "Practitioner/example",
        "display": "Practitioner"
      } ]
    }
  }, {
    "fullUrl": "https://madie.cms.gov/MedicationRequest/da697ed2-e2bc-48c5-b8f0-c102b1691dfc",
    "resource": {
      "resourceType": "MedicationRequest",
      "id": "da697ed2-e2bc-48c5-b8f0-c102b1691dfc",
      "meta": {
        "profile": [ "http://hl7.org/fhir/us/qicore/StructureDefinition/qicore-medicationrequest" ]
      },
      "text": {
        "status": "generated",
        "div": "<div xmlns=\"http://www.w3.org/1999/xhtml\"><div class=\"hapiHeaderText\">Generic Resource Narrative for Testing</div><table class=\"hapiPropertyTable\"><tbody><tr><td>Identifier</td><td>resource narrative</td></tr></tbody></table></div>"
      },
      "status": "active",
      "intent": "order",
      "category": [ {
        "coding": [ {
          "system": "http://terminology.hl7.org/CodeSystem/medicationrequest-category",
          "code": "discharge",
          "display": "Discharge",
          "userSelected": true
        } ]
      } ],
      "medicationCodeableConcept": {
        "coding": [ {
          "system": "http://www.nlm.nih.gov/research/umls/rxnorm",
          "code": "114194"
        } ]
      },
      "subject": {
        "reference": "Patient/a788d38f-a86a-4dc0-8f79-a22a31709495"
      },
      "authoredOn": "2026-01-01T06:30:00.000+00:00",
      "requester": {
        "reference": "Practitioner/example"
      }
    }
  }, {
    "fullUrl": "https://madie.cms.gov/MedicationRequest/0b903157-d8de-45ce-81c7-4f3ffe7459b7",
    "resource": {
      "resourceType": "MedicationRequest",
      "id": "0b903157-d8de-45ce-81c7-4f3ffe7459b7",
      "meta": {
        "profile": [ "http://hl7.org/fhir/us/qicore/StructureDefinition/qicore-medicationrequest" ]
      },
      "text": {
        "status": "generated",
        "div": "<div xmlns=\"http://www.w3.org/1999/xhtml\"><div class=\"hapiHeaderText\">Generic Resource Narrative for Testing</div><table class=\"hapiPropertyTable\"><tbody><tr><td>Identifier</td><td>resource narrative</td></tr></tbody></table></div>"
      },
      "status": "active",
      "intent": "order",
      "category": [ {
        "coding": [ {
          "system": "http://terminology.hl7.org/CodeSystem/medicationrequest-category",
          "code": "discharge",
          "display": "Discharge",
          "userSelected": true
        } ]
      } ],
      "medicationCodeableConcept": {
        "coding": [ {
          "system": "http://www.nlm.nih.gov/research/umls/rxnorm",
          "code": "114194"
        } ]
      },
      "subject": {
        "reference": "Patient/a788d38f-a86a-4dc0-8f79-a22a31709495"
      },
      "authoredOn": "2026-07-01T06:30:00.000+00:00",
      "requester": {
        "reference": "Practitioner/example"
      }
    }
  }, {
    "fullUrl": "https://madie.cms.gov/Coverage/f635925e-5b0c-43ad-9734-31e380ca93ab",
    "resource": {
      "resourceType": "Coverage",
      "id": "f635925e-5b0c-43ad-9734-31e380ca93ab",
      "meta": {
        "profile": [ "http://hl7.org/fhir/us/qicore/StructureDefinition/qicore-coverage" ]
      },
      "text": {
        "status": "generated",
        "div": "<div xmlns=\"http://www.w3.org/1999/xhtml\"><div class=\"hapiHeaderText\">Generic Resource Narrative for Testing</div><table class=\"hapiPropertyTable\"><tbody><tr><td>Identifier</td><td>resource narrative</td></tr></tbody></table></div>"
      },
      "status": "active",
      "type": {
        "coding": [ {
          "system": "https://nahdo.org/sopt",
          "code": "59",
          "display": "Other Private Insurance"
        } ]
      },
      "policyHolder": {
        "reference": "Patient/a788d38f-a86a-4dc0-8f79-a22a31709495"
      },
      "subscriber": {
        "reference": "Patient/a788d38f-a86a-4dc0-8f79-a22a31709495"
      },
      "subscriberId": "888009336",
      "beneficiary": {
        "reference": "Patient/a788d38f-a86a-4dc0-8f79-a22a31709495"
      },
      "dependent": "0",
      "relationship": {
        "coding": [ {
          "system": "http://terminology.hl7.org/CodeSystem/subscriber-relationship",
          "code": "self"
        } ]
      },
      "period": {
        "start": "2026-01-10T08:00:00.000+00:00",
        "end": "2026-12-31T08:15:00.000+00:00"
      },
      "payor": [ {
        "reference": "Organization/f662b0ae-39a2-4ec0-8208-20e775f35d9a"
      } ]
    }
  }, {
    "fullUrl": "https://madie.cms.gov/Claim/7ba1381b-b5fd-47ef-bf4a-21fcd523e0be",
    "resource": {
      "resourceType": "Claim",
      "id": "7ba1381b-b5fd-47ef-bf4a-21fcd523e0be",
      "meta": {
        "profile": [ "http://hl7.org/fhir/us/qicore/StructureDefinition/qicore-claim" ]
      },
      "text": {
        "status": "generated",
        "div": "<div xmlns=\"http://www.w3.org/1999/xhtml\"><div class=\"hapiHeaderText\">Generic Resource Narrative for Testing</div><table class=\"hapiPropertyTable\"><tbody><tr><td>Identifier</td><td>resource narrative</td></tr></tbody></table></div>"
      },
      "status": "active",
      "type": {
        "coding": [ {
          "system": "http://terminology.hl7.org/CodeSystem/claim-type",
          "code": "institutional"
        } ]
      },
      "use": "claim",
      "patient": {
        "reference": "Patient/a788d38f-a86a-4dc0-8f79-a22a31709495"
      },
      "created": "2026-01-01",
      "provider": {
        "reference": "Practitioner/practitioner-123456"
      },
      "priority": {
        "coding": [ {
          "system": "http://terminology.hl7.org/CodeSystem/processpriority",
          "code": "normal"
        } ]
      },
      "diagnosis": [ {
        "sequence": 1,
        "diagnosisCodeableConcept": {
          "coding": [ {
            "system": "http://hl7.org/fhir/sid/icd-10-cm",
            "code": "I63.00"
          } ]
        },
        "type": [ {
          "coding": [ {
            "system": "http://terminology.hl7.org/CodeSystem/ex-diagnosistype",
            "code": "principal"
          } ]
        } ]
      } ],
      "insurance": [ {
        "sequence": 1,
        "focal": true,
        "coverage": {
          "reference": "Coverage/5fa041661c76ba66d9959367"
        }
      } ],
      "item": [ {
        "sequence": 1,
        "diagnosisSequence": [ 1 ],
        "productOrService": {
          "coding": [ {
            "system": "http://terminology.hl7.org/CodeSystem/ex-USCLS",
            "code": "99555"
          } ]
        },
        "encounter": [ {
          "reference": "Encounter/d8ae51d3-ea00-4f29-8933-82aa1b0657db"
        } ]
      } ]
    }
  }, {
    "fullUrl": "https://madie.cms.gov/Organization/f662b0ae-39a2-4ec0-8208-20e775f35d9a",
    "resource": {
      "resourceType": "Organization",
      "id": "f662b0ae-39a2-4ec0-8208-20e775f35d9a",
      "meta": {
        "profile": [ "http://hl7.org/fhir/us/qicore/StructureDefinition/qicore-organization" ]
      },
      "text": {
        "status": "generated",
        "div": "<div xmlns=\"http://www.w3.org/1999/xhtml\"><div class=\"hapiHeaderText\">Generic Resource Narrative for Testing</div><table class=\"hapiPropertyTable\"><tbody><tr><td>Identifier</td><td>resource narrative</td></tr></tbody></table></div>"
      },
      "identifier": [ {
        "use": "temp",
        "system": "urn:oid:2.16.840.1.113883.4.4",
        "value": "21-3259825"
      } ],
      "active": true,
      "type": [ {
        "coding": [ {
          "system": "http://terminology.hl7.org/CodeSystem/organization-type",
          "code": "pay",
          "display": "Payer"
        } ]
      } ],
      "name": "Blue Cross Blue Shield of Texas",
      "telecom": [ {
        "system": "phone",
        "value": "(+1) 972-766-6900"
      } ],
      "address": [ {
        "use": "billing",
        "type": "postal",
        "line": [ "P.O. Box 660044" ],
        "city": "Dallas",
        "state": "TX",
        "postalCode": "75266-0044",
        "country": "USA"
      } ]
    }
  }, {
    "fullUrl": "https://madie.cms.gov/MeasureReport/fcd3003c-a2c1-4af4-a358-f28239aa7c35",
    "resource": {
      "resourceType": "MeasureReport",
      "id": "fcd3003c-a2c1-4af4-a358-f28239aa7c35",
      "meta": {
        "profile": [ "http://hl7.org/fhir/us/cqfmeasures/StructureDefinition/test-case-cqfm" ]
      },
      "contained": [ {
        "resourceType": "Parameters",
        "id": "1be9839e-179a-4bdb-8be2-5704e85140e8-parameters",
        "parameter": [ {
          "name": "subject",
          "valueString": "a788d38f-a86a-4dc0-8f79-a22a31709495"
        } ]
      } ],
      "extension": [ {
        "url": "http://hl7.org/fhir/StructureDefinition/cqf-inputParameters",
        "valueReference": {
          "reference": "#1be9839e-179a-4bdb-8be2-5704e85140e8-parameters"
        }
      }, {
        "url": "http://hl7.org/fhir/us/cqfmeasures/StructureDefinition/cqfm-testCaseDescription",
        "valueMarkdown": "2 qualified VTE encounters which are exactly 6 months  apart during the same MP.  Only 1 should be included in the NUMER"
      } ],
      "modifierExtension": [ {
        "url": "http://hl7.org/fhir/us/cqfmeasures/StructureDefinition/cqfm-isTestCase",
        "valueBoolean": true
      } ],
      "status": "complete",
      "type": "individual",
      "measure": "https://madie.cms.gov/Measure/CMS1173FHIRDiagnosticDelayVTE",
      "period": {
        "start": "2026-01-01",
        "end": "2026-12-31"
      },
      "group": [ {
        "id": "Group_1",
        "population": [ {
          "id": "InitialPopulation_1",
          "code": {
            "coding": [ {
              "system": "http://terminology.hl7.org/CodeSystem/measure-population",
              "code": "initial-population",
              "display": "Initial Population"
            } ]
          },
          "count": 2
        }, {
          "id": "Denominator_1",
          "code": {
            "coding": [ {
              "system": "http://terminology.hl7.org/CodeSystem/measure-population",
              "code": "denominator",
              "display": "Denominator"
            } ]
          },
          "count": 2
        }, {
          "id": "DenominatorExclusion_1",
          "code": {
            "coding": [ {
              "system": "http://terminology.hl7.org/CodeSystem/measure-population",
              "code": "denominator-exclusion",
              "display": "Denominator Exclusion"
            } ]
          },
          "count": 1
        }, {
          "id": "Numerator_1",
          "code": {
            "coding": [ {
              "system": "http://terminology.hl7.org/CodeSystem/measure-population",
              "code": "numerator",
              "display": "Numerator"
            } ]
          },
          "count": 1
        } ],
        "measureScore": {
          "value": 0.0
        }
      } ],
      "evaluatedResource": [ {
        "reference": "Patient/a788d38f-a86a-4dc0-8f79-a22a31709495"
      }, {
        "reference": "Encounter/d8ae51d3-ea00-4f29-8933-82aa1b0657db"
      }, {
        "reference": "Encounter/56b7d6e0-b4d5-4d9d-8674-0b00dcb6ae26"
      }, {
        "reference": "Condition/165e5a42-ff8e-4c71-ac1a-60a2d65aa652"
      }, {
        "reference": "Condition/bf9f95d3-e57e-43ba-8849-af2253919577"
      }, {
        "reference": "Encounter/6925a3b1-28fc-4d93-95cd-1fe4c8852ddb"
      }, {
        "reference": "Encounter/ad7a4768-4841-4f9f-89ff-a1ea3de217d5"
      }, {
        "reference": "Condition/751d5c3e-a3d1-4da5-a40a-2952a344e250"
      }, {
        "reference": "Condition/f4d473c7-91db-46dd-933b-25f9df9798f3"
      }, {
        "reference": "DiagnosticReport/bee18a99-13fb-4cb3-8373-a16ba183cd59"
      }, {
        "reference": "DiagnosticReport/58259df7-57f4-4155-a910-7d474933e008"
      }, {
        "reference": "MedicationRequest/da697ed2-e2bc-48c5-b8f0-c102b1691dfc"
      }, {
        "reference": "MedicationRequest/0b903157-d8de-45ce-81c7-4f3ffe7459b7"
      }, {
        "reference": "Coverage/f635925e-5b0c-43ad-9734-31e380ca93ab"
      }, {
        "reference": "Claim/7ba1381b-b5fd-47ef-bf4a-21fcd523e0be"
      }, {
        "reference": "Organization/f662b0ae-39a2-4ec0-8208-20e775f35d9a"
      } ]
    }
  } ]
}