{
  "resourceType": "Bundle",
  "id": "NUMERPass-ModerateInjuryPOAandModInjNPOA",
  "type": "transaction",
  "entry": [ {
    "fullUrl": "https://madie.cms.gov/Encounter/5e618743-a00d-4bc9-a181-4c6663b77a56",
    "resource": {
      "resourceType": "Encounter",
      "id": "5e618743-a00d-4bc9-a181-4c6663b77a56",
      "meta": {
        "profile": [ "http://hl7.org/fhir/us/qicore/StructureDefinition/qicore-encounter" ]
      },
      "status": "finished",
      "class": {
        "system": "http://terminology.hl7.org/CodeSystem/v3-ActCode",
        "code": "IMP",
        "display": "inpatient encounter"
      },
      "type": [ {
        "coding": [ {
          "system": "http://snomed.info/sct",
          "code": "183452005"
        } ]
      } ],
      "subject": {
        "reference": "Patient/113d43da-4cad-4907-804e-63afb7652b27"
      },
      "period": {
        "start": "2026-11-09T11:00:00.000+00:00",
        "end": "2026-11-13T08:15:00.000+00:00"
      },
      "reasonReference": [ {
        "reference": "Condition/ed660b23-313a-43a6-8b19-d859a0b664a7"
      }, {
        "reference": "Condition/15ac3cdd-40d9-42dd-bab6-f86d9df4c36a"
      }, {
        "reference": "Condition/c11e2ed8-08ef-4d10-929e-d006145c7552"
      } ]
    },
    "request": {
      "method": "PUT",
      "url": "Encounter/5e618743-a00d-4bc9-a181-4c6663b77a56"
    }
  }, {
    "fullUrl": "https://madie.cms.gov/Encounter/c1cb66ab-41b3-4021-8ca6-7cc2f1726884",
    "resource": {
      "resourceType": "Encounter",
      "id": "c1cb66ab-41b3-4021-8ca6-7cc2f1726884",
      "meta": {
        "profile": [ "http://hl7.org/fhir/us/qicore/StructureDefinition/qicore-encounter" ]
      },
      "status": "finished",
      "class": {
        "system": "http://terminology.hl7.org/CodeSystem/v3-ActCode",
        "code": "IMP",
        "display": "inpatient encounter"
      },
      "type": [ {
        "coding": [ {
          "system": "http://snomed.info/sct",
          "code": "4525004"
        } ]
      } ],
      "subject": {
        "reference": "Patient/113d43da-4cad-4907-804e-63afb7652b27"
      },
      "period": {
        "start": "2026-11-09T08:00:00.000+00:00",
        "end": "2026-11-09T10:15:00.000+00:00"
      }
    },
    "request": {
      "method": "PUT",
      "url": "Encounter/c1cb66ab-41b3-4021-8ca6-7cc2f1726884"
    }
  }, {
    "fullUrl": "https://madie.cms.gov/Condition/c11e2ed8-08ef-4d10-929e-d006145c7552",
    "resource": {
      "resourceType": "Condition",
      "id": "c11e2ed8-08ef-4d10-929e-d006145c7552",
      "meta": {
        "profile": [ "http://hl7.org/fhir/us/qicore/StructureDefinition/qicore-condition-encounter-diagnosis" ]
      },
      "clinicalStatus": {
        "coding": [ {
          "system": "http://terminology.hl7.org/CodeSystem/condition-clinical",
          "code": "active"
        } ]
      },
      "verificationStatus": {
        "coding": [ {
          "system": "http://terminology.hl7.org/CodeSystem/condition-ver-status",
          "code": "confirmed"
        } ]
      },
      "category": [ {
        "coding": [ {
          "system": "http://terminology.hl7.org/CodeSystem/condition-category",
          "code": "encounter-diagnosis",
          "display": "Encounter Diagnosis"
        } ]
      } ],
      "code": {
        "coding": [ {
          "system": "http://hl7.org/fhir/sid/icd-10-cm",
          "code": "S01.00XA"
        } ]
      },
      "subject": {
        "reference": "Patient/113d43da-4cad-4907-804e-63afb7652b27"
      },
      "encounter": {
        "reference": "Encounter/5e618743-a00d-4bc9-a181-4c6663b77a56"
      }
    },
    "request": {
      "method": "PUT",
      "url": "Condition/c11e2ed8-08ef-4d10-929e-d006145c7552"
    }
  }, {
    "fullUrl": "https://madie.cms.gov/Condition/15ac3cdd-40d9-42dd-bab6-f86d9df4c36a",
    "resource": {
      "resourceType": "Condition",
      "id": "15ac3cdd-40d9-42dd-bab6-f86d9df4c36a",
      "meta": {
        "profile": [ "http://hl7.org/fhir/us/qicore/StructureDefinition/qicore-condition-encounter-diagnosis" ]
      },
      "clinicalStatus": {
        "coding": [ {
          "system": "http://terminology.hl7.org/CodeSystem/condition-clinical",
          "code": "active"
        } ]
      },
      "verificationStatus": {
        "coding": [ {
          "system": "http://terminology.hl7.org/CodeSystem/condition-ver-status",
          "code": "confirmed"
        } ]
      },
      "category": [ {
        "coding": [ {
          "system": "http://terminology.hl7.org/CodeSystem/condition-category",
          "code": "encounter-diagnosis",
          "display": "Encounter Diagnosis"
        } ]
      } ],
      "code": {
        "coding": [ {
          "system": "http://hl7.org/fhir/sid/icd-10-cm",
          "code": "S01.02XA"
        } ]
      },
      "subject": {
        "reference": "Patient/113d43da-4cad-4907-804e-63afb7652b27"
      },
      "encounter": {
        "reference": "Encounter/5e618743-a00d-4bc9-a181-4c6663b77a56"
      }
    },
    "request": {
      "method": "PUT",
      "url": "Condition/15ac3cdd-40d9-42dd-bab6-f86d9df4c36a"
    }
  }, {
    "fullUrl": "https://madie.cms.gov/Condition/ed660b23-313a-43a6-8b19-d859a0b664a7",
    "resource": {
      "resourceType": "Condition",
      "id": "ed660b23-313a-43a6-8b19-d859a0b664a7",
      "meta": {
        "profile": [ "http://hl7.org/fhir/us/qicore/StructureDefinition/qicore-condition-encounter-diagnosis" ]
      },
      "clinicalStatus": {
        "coding": [ {
          "system": "http://terminology.hl7.org/CodeSystem/condition-clinical",
          "code": "active"
        } ]
      },
      "verificationStatus": {
        "coding": [ {
          "system": "http://terminology.hl7.org/CodeSystem/condition-ver-status",
          "code": "confirmed"
        } ]
      },
      "category": [ {
        "coding": [ {
          "system": "http://terminology.hl7.org/CodeSystem/condition-category",
          "code": "encounter-diagnosis",
          "display": "Encounter Diagnosis"
        } ]
      } ],
      "code": {
        "coding": [ {
          "system": "http://hl7.org/fhir/sid/icd-10-cm",
          "code": "W01.0XXA"
        } ]
      },
      "subject": {
        "reference": "Patient/113d43da-4cad-4907-804e-63afb7652b27"
      },
      "encounter": {
        "reference": "Encounter/5e618743-a00d-4bc9-a181-4c6663b77a56"
      }
    },
    "request": {
      "method": "PUT",
      "url": "Condition/ed660b23-313a-43a6-8b19-d859a0b664a7"
    }
  }, {
    "fullUrl": "https://madie.cms.gov/Patient/113d43da-4cad-4907-804e-63afb7652b27",
    "resource": {
      "resourceType": "Patient",
      "id": "113d43da-4cad-4907-804e-63afb7652b27",
      "meta": {
        "profile": [ "http://hl7.org/fhir/us/qicore/StructureDefinition/qicore-patient" ]
      },
      "extension": [ {
        "url": "http://hl7.org/fhir/us/core/StructureDefinition/us-core-race",
        "extension": [ {
          "url": "ombCategory",
          "valueCoding": {
            "system": "urn:oid:2.16.840.1.113883.6.238",
            "code": "2028-9",
            "display": "Asian",
            "userSelected": true
          }
        }, {
          "url": "text",
          "valueString": "Asian"
        } ]
      }, {
        "url": "http://hl7.org/fhir/us/core/StructureDefinition/us-core-ethnicity",
        "extension": [ {
          "url": "ombCategory",
          "valueCoding": {
            "system": "urn:oid:2.16.840.1.113883.6.238",
            "code": "2186-5",
            "display": "Not Hispanic or Latino",
            "userSelected": true
          }
        }, {
          "url": "text",
          "valueString": "Not Hispanic or Latino"
        } ]
      } ],
      "identifier": [ {
        "type": {
          "coding": [ {
            "system": "http://terminology.hl7.org/CodeSystem/v2-0203",
            "code": "MR"
          } ]
        },
        "system": "https://bonnie-fhir.healthit.gov/",
        "value": "61152a3b98086b7a79cbd7c1"
      } ],
      "active": true,
      "name": [ {
        "use": "usual",
        "family": "NUMERPass",
        "given": [ "ModerateInjuryPOAandModInjNPOA" ]
      } ],
      "gender": "male",
      "birthDate": "2000-09-09"
    },
    "request": {
      "method": "PUT",
      "url": "Patient/113d43da-4cad-4907-804e-63afb7652b27"
    }
  }, {
    "fullUrl": "https://madie.cms.gov/Claim/6b70c7a1-a3f4-4d65-a6c8-9892b9bab3d6",
    "resource": {
      "resourceType": "Claim",
      "id": "6b70c7a1-a3f4-4d65-a6c8-9892b9bab3d6",
      "meta": {
        "profile": [ "http://hl7.org/fhir/us/qicore/StructureDefinition/qicore-claim" ]
      },
      "status": "active",
      "type": {
        "coding": [ {
          "system": "http://terminology.hl7.org/CodeSystem/claim-type",
          "code": "institutional"
        } ]
      },
      "use": "claim",
      "patient": {
        "reference": "Patient/113d43da-4cad-4907-804e-63afb7652b27"
      },
      "billablePeriod": {
        "start": "2026-11-09",
        "end": "2026-11-13"
      },
      "created": "2026-11-13",
      "provider": {
        "reference": "Practitioner/practitioner-1"
      },
      "priority": {
        "coding": [ {
          "code": "normal"
        } ]
      },
      "diagnosis": [ {
        "sequence": 1,
        "diagnosisCodeableConcept": {
          "coding": [ {
            "system": "http://hl7.org/fhir/sid/icd-10-cm",
            "code": "W01.0XXA"
          } ]
        },
        "onAdmission": {
          "coding": [ {
            "system": "https://www.cms.gov/Medicare/Medicare-Fee-for-Service-Payment/HospitalAcqCond/Coding",
            "code": "N"
          } ]
        }
      } ],
      "insurance": [ {
        "sequence": 1,
        "focal": true,
        "coverage": {
          "reference": "Coverage/coverage-1"
        }
      } ],
      "item": [ {
        "sequence": 1,
        "diagnosisSequence": [ 1, 2, 3 ],
        "productOrService": {
          "coding": [ {
            "system": "http://terminology.hl7.org/CodeSystem/ex-USCLS",
            "code": "1101"
          } ]
        },
        "encounter": [ {
          "reference": "Encounter/5e618743-a00d-4bc9-a181-4c6663b77a56"
        } ]
      } ]
    },
    "request": {
      "method": "PUT",
      "url": "Claim/6b70c7a1-a3f4-4d65-a6c8-9892b9bab3d6"
    }
  }, {
    "fullUrl": "https://madie.cms.gov/Claim/286c4f65-990a-4c22-9f7d-dddc36e4a7b4",
    "resource": {
      "resourceType": "Claim",
      "id": "286c4f65-990a-4c22-9f7d-dddc36e4a7b4",
      "meta": {
        "profile": [ "http://hl7.org/fhir/us/qicore/StructureDefinition/qicore-claim" ]
      },
      "status": "active",
      "type": {
        "coding": [ {
          "system": "http://terminology.hl7.org/CodeSystem/claim-type",
          "code": "institutional"
        } ]
      },
      "use": "claim",
      "patient": {
        "reference": "Patient/113d43da-4cad-4907-804e-63afb7652b27"
      },
      "billablePeriod": {
        "start": "2026-11-09",
        "end": "2026-11-13"
      },
      "created": "2026-11-13",
      "provider": {
        "reference": "Practitioner/practitioner-1"
      },
      "priority": {
        "coding": [ {
          "code": "normal"
        } ]
      },
      "diagnosis": [ {
        "sequence": 2,
        "diagnosisCodeableConcept": {
          "coding": [ {
            "system": "http://hl7.org/fhir/sid/icd-10-cm",
            "code": "S01.02XA"
          } ]
        },
        "onAdmission": {
          "coding": [ {
            "system": "https://www.cms.gov/Medicare/Medicare-Fee-for-Service-Payment/HospitalAcqCond/Coding",
            "code": "W"
          } ]
        }
      } ],
      "insurance": [ {
        "sequence": 1,
        "focal": true,
        "coverage": {
          "reference": "Coverage/coverage-1"
        }
      } ],
      "item": [ {
        "sequence": 1,
        "diagnosisSequence": [ 1, 2, 3 ],
        "productOrService": {
          "coding": [ {
            "system": "http://terminology.hl7.org/CodeSystem/ex-USCLS",
            "code": "1101"
          } ]
        },
        "encounter": [ {
          "reference": "Encounter/5e618743-a00d-4bc9-a181-4c6663b77a56"
        } ]
      } ]
    },
    "request": {
      "method": "PUT",
      "url": "Claim/286c4f65-990a-4c22-9f7d-dddc36e4a7b4"
    }
  }, {
    "fullUrl": "https://madie.cms.gov/Claim/8a338327-d818-4025-8a9b-7ff22347d384",
    "resource": {
      "resourceType": "Claim",
      "id": "8a338327-d818-4025-8a9b-7ff22347d384",
      "meta": {
        "profile": [ "http://hl7.org/fhir/us/qicore/StructureDefinition/qicore-claim" ]
      },
      "status": "active",
      "type": {
        "coding": [ {
          "system": "http://terminology.hl7.org/CodeSystem/claim-type",
          "code": "institutional"
        } ]
      },
      "use": "claim",
      "patient": {
        "reference": "Patient/113d43da-4cad-4907-804e-63afb7652b27"
      },
      "billablePeriod": {
        "start": "2026-11-09",
        "end": "2026-11-13"
      },
      "created": "2026-11-13",
      "provider": {
        "reference": "Practitioner/practitioner-1"
      },
      "priority": {
        "coding": [ {
          "code": "normal"
        } ]
      },
      "diagnosis": [ {
        "sequence": 3,
        "diagnosisCodeableConcept": {
          "coding": [ {
            "system": "http://hl7.org/fhir/sid/icd-10-cm",
            "code": "S01.00XA"
          } ]
        },
        "onAdmission": {
          "coding": [ {
            "system": "https://www.cms.gov/Medicare/Medicare-Fee-for-Service-Payment/HospitalAcqCond/Coding",
            "code": "N"
          } ]
        }
      } ],
      "insurance": [ {
        "sequence": 1,
        "focal": true,
        "coverage": {
          "reference": "Coverage/coverage-1"
        }
      } ],
      "item": [ {
        "sequence": 1,
        "diagnosisSequence": [ 1, 2, 3 ],
        "productOrService": {
          "coding": [ {
            "system": "http://terminology.hl7.org/CodeSystem/ex-USCLS",
            "code": "1101"
          } ]
        },
        "encounter": [ {
          "reference": "Encounter/5e618743-a00d-4bc9-a181-4c6663b77a56"
        } ]
      } ]
    },
    "request": {
      "method": "PUT",
      "url": "Claim/8a338327-d818-4025-8a9b-7ff22347d384"
    }
  }, {
    "fullUrl": "https://madie.cms.gov/Practitioner/3dc3fce9-0431-4103-a6fb-e1a51ec33e81",
    "resource": {
      "resourceType": "Practitioner",
      "id": "3dc3fce9-0431-4103-a6fb-e1a51ec33e81",
      "identifier": [ {
        "system": "http://www.cms.gov/identifiers/pracitioners",
        "value": "P12345"
      } ],
      "name": [ {
        "use": "official",
        "family": "Smith",
        "given": [ "John" ]
      } ],
      "qualification": [ {
        "identifier": [ {
          "system": "http://hl7.org/fhir/sid/us-npi",
          "value": "1234567890"
        } ],
        "code": {
          "coding": [ {
            "system": "http://terminology.hl7.org/CodeSystem/v2-0203",
            "code": "MD",
            "display": "Medical License number"
          } ]
        }
      } ]
    },
    "request": {
      "method": "PUT",
      "url": "Practitioner/3dc3fce9-0431-4103-a6fb-e1a51ec33e81"
    }
  }, {
    "fullUrl": "https://madie.cms.gov/Coverage/b65d5558-de7a-45c3-a1b3-8729e022d602",
    "resource": {
      "resourceType": "Coverage",
      "id": "b65d5558-de7a-45c3-a1b3-8729e022d602",
      "status": "active",
      "beneficiary": {
        "reference": "Patient/113d43da-4cad-4907-804e-63afb7652b27"
      },
      "payor": [ {
        "reference": "Organization/a450b9b2-f439-40d6-b6a2-f4dda03b8917"
      } ]
    },
    "request": {
      "method": "PUT",
      "url": "Coverage/b65d5558-de7a-45c3-a1b3-8729e022d602"
    }
  }, {
    "fullUrl": "https://madie.cms.gov/Organization/a450b9b2-f439-40d6-b6a2-f4dda03b8917",
    "resource": {
      "resourceType": "Organization",
      "id": "a450b9b2-f439-40d6-b6a2-f4dda03b8917",
      "identifier": [ {
        "system": "http://cms.gov/insurance-ids",
        "value": "AET12345"
      } ],
      "type": [ {
        "coding": [ {
          "system": "http://terminology.hl7.org/CodeSystem/organization-type",
          "code": "prov",
          "display": "Healthcare Provider"
        } ]
      } ],
      "name": "Aetna Insurance",
      "telecom": [ {
        "system": "phone",
        "value": "+1-800-123-4567"
      } ],
      "address": [ {
        "line": [ "123 Main Street" ],
        "city": "Cityville",
        "state": "CA",
        "postalCode": "12345",
        "country": "USA"
      } ]
    },
    "request": {
      "method": "PUT",
      "url": "Organization/a450b9b2-f439-40d6-b6a2-f4dda03b8917"
    }
  }, {
    "fullUrl": "https://madie.cms.gov/MeasureReport/bd009887-fb29-450b-9dfb-3cf01211624f",
    "resource": {
      "resourceType": "MeasureReport",
      "id": "bd009887-fb29-450b-9dfb-3cf01211624f",
      "meta": {
        "profile": [ "http://hl7.org/fhir/us/cqfmeasures/StructureDefinition/test-case-cqfm" ]
      },
      "contained": [ {
        "resourceType": "Parameters",
        "id": "2cdb3059-a7de-48aa-9aaf-c6c9b1f6f774-parameters",
        "parameter": [ {
          "name": "subject",
          "valueString": "113d43da-4cad-4907-804e-63afb7652b27"
        } ]
      } ],
      "extension": [ {
        "url": "http://hl7.org/fhir/StructureDefinition/cqf-inputParameters",
        "valueReference": {
          "reference": "#2cdb3059-a7de-48aa-9aaf-c6c9b1f6f774-parameters"
        }
      }, {
        "url": "http://hl7.org/fhir/us/cqfmeasures/StructureDefinition/cqfm-testCaseDescription",
        "valueMarkdown": "Enc diag includes a moderate injury POA and another mod injury NPOA. Also includes a fall NPOA. Meets Numerator because having an injury POA should not remove them from potential of another injury NPOA from a fall NPOA that occurs during the enc."
      } ],
      "modifierExtension": [ {
        "url": "http://hl7.org/fhir/us/cqfmeasures/StructureDefinition/cqfm-isTestCase",
        "valueBoolean": true
      } ],
      "status": "complete",
      "type": "individual",
      "measure": "https://madie.cms.gov/Measure/CMS1017FHIRHHFI",
      "period": {
        "start": "2026-01-01",
        "end": "2026-12-31"
      },
      "group": [ {
        "id": "Group_1",
        "population": [ {
          "id": "InitialPopulation_1",
          "code": {
            "coding": [ {
              "system": "http://terminology.hl7.org/CodeSystem/measure-population",
              "code": "initial-population",
              "display": "Initial Population"
            } ]
          },
          "count": 1
        }, {
          "id": "Denominator_1",
          "code": {
            "coding": [ {
              "system": "http://terminology.hl7.org/CodeSystem/measure-population",
              "code": "denominator",
              "display": "Denominator"
            } ]
          },
          "count": 1
        }, {
          "id": "DenominatorExclusion_1",
          "code": {
            "coding": [ {
              "system": "http://terminology.hl7.org/CodeSystem/measure-population",
              "code": "denominator-exclusion",
              "display": "Denominator Exclusion"
            } ]
          },
          "count": 0
        }, {
          "id": "Numerator_1",
          "code": {
            "coding": [ {
              "system": "http://terminology.hl7.org/CodeSystem/measure-population",
              "code": "numerator",
              "display": "Numerator"
            } ]
          },
          "count": 1
        }, {
          "id": "NumeratorExclusion_1",
          "code": {
            "coding": [ {
              "system": "http://terminology.hl7.org/CodeSystem/measure-population",
              "code": "numerator-exclusion",
              "display": "Numerator Exclusion"
            } ]
          },
          "count": 0
        }, {
          "id": "MeasureObservation_1_1_1",
          "code": {
            "coding": [ {
              "system": "http://terminology.hl7.org/CodeSystem/measure-population",
              "code": "measure-observation",
              "display": "Measure Observation"
            } ]
          },
          "count": 4
        }, {
          "id": "MeasureObservation_1_2_1",
          "code": {
            "coding": [ {
              "system": "http://terminology.hl7.org/CodeSystem/measure-population",
              "code": "measure-observation",
              "display": "Measure Observation"
            } ]
          },
          "count": 1
        } ],
        "measureScore": {
          "value": 0.0
        }
      } ],
      "evaluatedResource": [ {
        "reference": "Encounter/5e618743-a00d-4bc9-a181-4c6663b77a56"
      }, {
        "reference": "Encounter/c1cb66ab-41b3-4021-8ca6-7cc2f1726884"
      }, {
        "reference": "Condition/c11e2ed8-08ef-4d10-929e-d006145c7552"
      }, {
        "reference": "Condition/15ac3cdd-40d9-42dd-bab6-f86d9df4c36a"
      }, {
        "reference": "Condition/ed660b23-313a-43a6-8b19-d859a0b664a7"
      }, {
        "reference": "Patient/113d43da-4cad-4907-804e-63afb7652b27"
      }, {
        "reference": "Claim/6b70c7a1-a3f4-4d65-a6c8-9892b9bab3d6"
      }, {
        "reference": "Claim/286c4f65-990a-4c22-9f7d-dddc36e4a7b4"
      }, {
        "reference": "Claim/8a338327-d818-4025-8a9b-7ff22347d384"
      }, {
        "reference": "Practitioner/3dc3fce9-0431-4103-a6fb-e1a51ec33e81"
      }, {
        "reference": "Coverage/b65d5558-de7a-45c3-a1b3-8729e022d602"
      }, {
        "reference": "Organization/a450b9b2-f439-40d6-b6a2-f4dda03b8917"
      } ]
    },
    "request": {
      "method": "PUT",
      "url": "MeasureReport/bd009887-fb29-450b-9dfb-3cf01211624f"
    }
  } ]
}