{
  "resourceType": "Bundle",
  "id": "62d0897dab06d8c02b5741cd",
  "type": "collection",
  "entry": [ {
    "fullUrl": "https://madie.cms.gov/Patient/9ed1ecf5-2d93-4bde-a293-5d5fbf209475",
    "resource": {
      "resourceType": "Patient",
      "id": "9ed1ecf5-2d93-4bde-a293-5d5fbf209475",
      "meta": {
        "profile": [ "http://hl7.org/fhir/us/qicore/StructureDefinition/qicore-patient" ]
      },
      "extension": [ {
        "url": "http://hl7.org/fhir/us/core/StructureDefinition/us-core-race",
        "extension": [ {
          "url": "ombCategory",
          "valueCoding": {
            "system": "urn:oid:2.16.840.1.113883.6.238",
            "code": "2054-5",
            "display": "Black or African American",
            "userSelected": true
          }
        }, {
          "url": "text",
          "valueString": "Black or African American"
        } ]
      }, {
        "url": "http://hl7.org/fhir/us/core/StructureDefinition/us-core-ethnicity",
        "extension": [ {
          "url": "ombCategory",
          "valueCoding": {
            "system": "urn:oid:2.16.840.1.113883.6.238",
            "code": "2135-2",
            "display": "Hispanic or Latino",
            "userSelected": true
          }
        }, {
          "url": "text",
          "valueString": "Hispanic or Latino"
        } ]
      }, {
        "url": "http://hl7.org/fhir/us/core/StructureDefinition/us-core-sex",
        "valueCode": "248152002"
      } ],
      "identifier": [ {
        "type": {
          "coding": [ {
            "system": "http://terminology.hl7.org/CodeSystem/v2-0203",
            "code": "MR"
          } ]
        },
        "system": "https://bonnie-fhir.healthit.gov/",
        "value": "62d0897dab06d8c02b5741cd"
      } ],
      "name": [ {
        "family": "DENEXCEPPass",
        "given": [ "HTN140DeclinedNonPharm" ]
      } ],
      "gender": "female",
      "birthDate": "2006-01-31"
    }
  }, {
    "fullUrl": "https://madie.cms.gov/Encounter/bc8fb6f5-bc84-4a1c-8478-20b072c97945",
    "resource": {
      "resourceType": "Encounter",
      "id": "bc8fb6f5-bc84-4a1c-8478-20b072c97945",
      "meta": {
        "profile": [ "http://hl7.org/fhir/us/qicore/StructureDefinition/qicore-encounter" ]
      },
      "status": "finished",
      "class": {
        "system": "http://terminology.hl7.org/CodeSystem/v3-ActCode",
        "code": "AMB",
        "display": "ambulatory"
      },
      "type": [ {
        "coding": [ {
          "system": "http://snomed.info/sct",
          "version": "2022-03",
          "code": "103705002",
          "display": "Patient status observation (procedure)",
          "userSelected": true
        } ]
      } ],
      "subject": {
        "reference": "Patient/9ed1ecf5-2d93-4bde-a293-5d5fbf209475"
      },
      "period": {
        "start": "2026-01-01T08:00:00.000Z",
        "end": "2026-01-01T08:30:00.000Z"
      }
    }
  }, {
    "fullUrl": "https://madie.cms.gov/Observation/7a5e59db-4c23-4780-9b04-86c65643368f",
    "resource": {
      "resourceType": "Observation",
      "id": "7a5e59db-4c23-4780-9b04-86c65643368f",
      "meta": {
        "profile": [ "http://hl7.org/fhir/us/core/StructureDefinition/us-core-blood-pressure" ]
      },
      "status": "final",
      "category": [ {
        "coding": [ {
          "system": "http://terminology.hl7.org/CodeSystem/observation-category",
          "code": "vital-signs",
          "display": "Vital Signs"
        } ],
        "text": "Vital Signs"
      } ],
      "code": {
        "coding": [ {
          "system": "http://loinc.org",
          "code": "85354-9",
          "display": "Blood pressure panel with all children optional"
        } ]
      },
      "subject": {
        "reference": "Patient/9ed1ecf5-2d93-4bde-a293-5d5fbf209475"
      },
      "effectiveDateTime": "2026-01-01T08:05:00.000Z",
      "component": [ {
        "code": {
          "coding": [ {
            "system": "http://loinc.org",
            "code": "8480-6",
            "display": "Systolic blood pressure"
          } ]
        },
        "valueQuantity": {
          "value": 160,
          "unit": "mmHg",
          "system": "http://unitsofmeasure.org",
          "code": "mm[Hg]"
        }
      }, {
        "code": {
          "coding": [ {
            "system": "http://loinc.org",
            "code": "8462-4",
            "display": "Diastolic blood pressure"
          } ]
        },
        "valueQuantity": {
          "value": 80,
          "unit": "mmHg",
          "system": "http://unitsofmeasure.org",
          "code": "mm[Hg]"
        }
      } ]
    }
  }, {
    "fullUrl": "https://madie.cms.gov/ServiceRequest/1977437d-b99f-481e-85d3-82cfee9ba438",
    "resource": {
      "resourceType": "ServiceRequest",
      "id": "1977437d-b99f-481e-85d3-82cfee9ba438",
      "meta": {
        "profile": [ "http://hl7.org/fhir/us/qicore/StructureDefinition/qicore-servicenotrequested" ]
      },
      "extension": [ {
        "url": "http://hl7.org/fhir/us/qicore/StructureDefinition/qicore-doNotPerformReason",
        "valueCodeableConcept": {
          "coding": [ {
            "system": "http://snomed.info/sct",
            "code": "1296859006",
            "display": "Procedure declined (situation)",
            "userSelected": true
          } ]
        }
      } ],
      "status": "completed",
      "intent": "order",
      "doNotPerform": true,
      "code": {
        "coding": [ {
          "system": "http://snomed.info/sct",
          "version": "2022-03",
          "code": "11816003",
          "display": "Diet education (procedure)",
          "userSelected": true
        } ]
      },
      "subject": {
        "reference": "Patient/9ed1ecf5-2d93-4bde-a293-5d5fbf209475"
      },
      "authoredOn": "2026-01-01T08:05:00.000Z"
    }
  }, {
    "fullUrl": "https://madie.cms.gov/Coverage/9a13e0b4-6eb0-4621-8c40-e6735ca071f2",
    "resource": {
      "resourceType": "Coverage",
      "id": "9a13e0b4-6eb0-4621-8c40-e6735ca071f2",
      "meta": {
        "profile": [ "http://hl7.org/fhir/us/qicore/StructureDefinition/qicore-coverage" ]
      },
      "status": "active",
      "subscriberId": "1276587893",
      "beneficiary": {
        "reference": "Patient/9ed1ecf5-2d93-4bde-a293-5d5fbf209475"
      },
      "relationship": {
        "coding": [ {
          "system": "http://terminology.hl7.org/CodeSystem/subscriber-relationship",
          "code": "self",
          "display": "Self"
        } ]
      },
      "payor": [ {
        "reference": "Organization/a759411d-25c3-40bf-a6aa-d3f2eb7a6379"
      } ]
    }
  }, {
    "fullUrl": "https://madie.cms.gov/Organization/a759411d-25c3-40bf-a6aa-d3f2eb7a6379",
    "resource": {
      "resourceType": "Organization",
      "id": "a759411d-25c3-40bf-a6aa-d3f2eb7a6379",
      "meta": {
        "profile": [ "http://hl7.org/fhir/us/qicore/StructureDefinition/qicore-organization" ]
      },
      "identifier": [ {
        "use": "temp",
        "system": "urn:oid:2.16.840.1.113883.4.4",
        "value": "21-3259825"
      } ],
      "active": true,
      "type": [ {
        "coding": [ {
          "system": "http://terminology.hl7.org/CodeSystem/organization-type",
          "code": "pay",
          "display": "Payer"
        } ]
      } ],
      "name": "Blue Cross Blue Shield of Texas",
      "telecom": [ {
        "system": "phone",
        "value": "(+1) 972-766-6900"
      } ],
      "address": [ {
        "use": "billing",
        "type": "postal",
        "line": [ "P.O. Box 660044" ],
        "city": "Dallas",
        "state": "TX",
        "postalCode": "75266-0044",
        "country": "USA"
      } ]
    }
  }, {
    "fullUrl": "https://madie.cms.gov/Practitioner/ff11d8fe-571d-4753-8061-bc65d503c98b",
    "resource": {
      "resourceType": "Practitioner",
      "id": "ff11d8fe-571d-4753-8061-bc65d503c98b",
      "meta": {
        "profile": [ "http://hl7.org/fhir/us/qicore/StructureDefinition/qicore-practitioner" ]
      },
      "identifier": [ {
        "system": "http://hl7.org/fhir/sid/us-npi",
        "value": "1993999998"
      } ],
      "name": [ {
        "family": "Evil",
        "prefix": [ "Dr" ]
      } ]
    }
  }, {
    "fullUrl": "https://madie.cms.gov/MeasureReport/bd56dca9-e498-4ec5-bf78-c6322930e980",
    "resource": {
      "resourceType": "MeasureReport",
      "id": "bd56dca9-e498-4ec5-bf78-c6322930e980",
      "meta": {
        "profile": [ "http://hl7.org/fhir/us/cqfmeasures/StructureDefinition/test-case-cqfm" ]
      },
      "contained": [ {
        "resourceType": "Parameters",
        "id": "7ab40733-3e4b-4e10-adb4-b2fef09166c6-parameters",
        "parameter": [ {
          "name": "subject",
          "valueString": "9ed1ecf5-2d93-4bde-a293-5d5fbf209475"
        } ]
      } ],
      "extension": [ {
        "url": "http://hl7.org/fhir/StructureDefinition/cqf-inputParameters",
        "valueReference": {
          "reference": "#7ab40733-3e4b-4e10-adb4-b2fef09166c6-parameters"
        }
      }, {
        "url": "http://hl7.org/fhir/us/cqfmeasures/StructureDefinition/cqfm-testCaseDescription",
        "valueMarkdown": "Encounter first day of MP with systolic reading 160 and diastolic 80, f/u scheduled, and dietary recommendations not made as patient did not have time, expect to fail as no nonpharm interventions."
      } ],
      "modifierExtension": [ {
        "url": "http://hl7.org/fhir/us/cqfmeasures/StructureDefinition/cqfm-isTestCase",
        "valueBoolean": true
      } ],
      "status": "complete",
      "type": "individual",
      "measure": "https://madie.cms.gov/Measure/CMS22FHIRPCSBPScreeningFollowUp",
      "period": {
        "start": "2026-01-01",
        "end": "2026-12-31"
      },
      "group": [ {
        "id": "Group_1",
        "population": [ {
          "id": "InitialPopulation_1",
          "code": {
            "coding": [ {
              "system": "http://terminology.hl7.org/CodeSystem/measure-population",
              "code": "initial-population",
              "display": "Initial Population"
            } ]
          },
          "count": 1
        }, {
          "id": "Denominator_1",
          "code": {
            "coding": [ {
              "system": "http://terminology.hl7.org/CodeSystem/measure-population",
              "code": "denominator",
              "display": "Denominator"
            } ]
          },
          "count": 1
        }, {
          "id": "DenominatorExclusion_1",
          "code": {
            "coding": [ {
              "system": "http://terminology.hl7.org/CodeSystem/measure-population",
              "code": "denominator-exclusion",
              "display": "Denominator Exclusion"
            } ]
          },
          "count": 0
        }, {
          "id": "Numerator_1",
          "code": {
            "coding": [ {
              "system": "http://terminology.hl7.org/CodeSystem/measure-population",
              "code": "numerator",
              "display": "Numerator"
            } ]
          },
          "count": 0
        }, {
          "id": "DenominatorException_1",
          "code": {
            "coding": [ {
              "system": "http://terminology.hl7.org/CodeSystem/measure-population",
              "code": "denominator-exception",
              "display": "Denominator Exception"
            } ]
          },
          "count": 1
        } ],
        "measureScore": {
          "value": 0.0
        }
      } ],
      "evaluatedResource": [ {
        "reference": "Patient/9ed1ecf5-2d93-4bde-a293-5d5fbf209475"
      }, {
        "reference": "Encounter/bc8fb6f5-bc84-4a1c-8478-20b072c97945"
      }, {
        "reference": "Observation/7a5e59db-4c23-4780-9b04-86c65643368f"
      }, {
        "reference": "ServiceRequest/1977437d-b99f-481e-85d3-82cfee9ba438"
      }, {
        "reference": "Coverage/9a13e0b4-6eb0-4621-8c40-e6735ca071f2"
      }, {
        "reference": "Organization/a759411d-25c3-40bf-a6aa-d3f2eb7a6379"
      }, {
        "reference": "Practitioner/ff11d8fe-571d-4753-8061-bc65d503c98b"
      } ]
    }
  } ]
}