{
  "resourceType": "Bundle",
  "id": "tests-143372f5-cf0d-420f-a55c-63e0c74e8013-bundle",
  "type": "transaction",
  "entry": [ {
    "fullUrl": "https://madie.cms.gov/Coverage/22d84a41-90f8-4756-842d-5d82deba23ec",
    "resource": {
      "resourceType": "Coverage",
      "id": "22d84a41-90f8-4756-842d-5d82deba23ec",
      "meta": {
        "profile": [ "http://hl7.org/fhir/us/qicore/StructureDefinition/qicore-coverage" ]
      },
      "status": "active",
      "type": {
        "coding": [ {
          "system": "https://nahdo.org/sopt",
          "version": "9.2",
          "code": "512",
          "display": "Commercial Managed Care - PPO"
        } ]
      },
      "beneficiary": {
        "reference": "Patient/fcb1c94b-4276-4409-9449-87c469ffa7d6"
      },
      "period": {
        "start": "2024-12-01T00:00:00.000+00:00"
      },
      "payor": [ {
        "reference": "Organization/47fa943d-cb0e-4f38-b556-2f7e22f71da0"
      } ]
    },
    "request": {
      "method": "PUT",
      "url": "Coverage/22d84a41-90f8-4756-842d-5d82deba23ec"
    }
  }, {
    "fullUrl": "https://madie.cms.gov/Observation/3569f792-1b5f-4bb3-b616-14012a717379",
    "resource": {
      "resourceType": "Observation",
      "id": "3569f792-1b5f-4bb3-b616-14012a717379",
      "meta": {
        "profile": [ "http://hl7.org/fhir/us/qicore/StructureDefinition/qicore-observation-lab" ]
      },
      "status": "final",
      "category": [ {
        "coding": [ {
          "system": "http://terminology.hl7.org/CodeSystem/observation-category",
          "code": "laboratory",
          "display": "Laboratory"
        } ]
      } ],
      "code": {
        "coding": [ {
          "system": "http://loinc.org",
          "version": "2.72",
          "code": "2160-0",
          "display": "Creatinine [Mass/volume] in Serum or Plasma",
          "userSelected": true
        } ]
      },
      "subject": {
        "reference": "Patient/fcb1c94b-4276-4409-9449-87c469ffa7d6"
      },
      "effectiveDateTime": "2026-10-01T07:50:00.000+00:00",
      "issued": "2026-10-01T08:20:00.000+00:00",
      "valueQuantity": {
        "value": 0.6,
        "unit": "mg/dL",
        "system": "http://unitsofmeasure.org",
        "code": "mg/dL"
      }
    },
    "request": {
      "method": "PUT",
      "url": "Observation/3569f792-1b5f-4bb3-b616-14012a717379"
    }
  }, {
    "fullUrl": "https://madie.cms.gov/Patient/fcb1c94b-4276-4409-9449-87c469ffa7d6",
    "resource": {
      "resourceType": "Patient",
      "id": "fcb1c94b-4276-4409-9449-87c469ffa7d6",
      "meta": {
        "profile": [ "http://hl7.org/fhir/us/qicore/StructureDefinition/qicore-patient" ]
      },
      "text": {
        "status": "generated",
        "div": "<div xmlns=\"http://www.w3.org/1999/xhtml\"><div class=\"hapiHeaderText\">Age17InpatientHospStartTime <b>IPPFail </b></div><table class=\"hapiPropertyTable\"><tbody><tr><td>Identifier</td><td>f0eda1c9668fdacdcad3378589bf6e0a71e7dec1618f14fca4d442ec96e402b1</td></tr><tr><td>Date of birth</td><td><span>30 September 2006</span></td></tr></tbody></table></div>"
      },
      "extension": [ {
        "url": "http://hl7.org/fhir/us/core/StructureDefinition/us-core-race",
        "extension": [ {
          "url": "ombCategory",
          "valueCoding": {
            "system": "urn:oid:2.16.840.1.113883.6.238",
            "code": "1002-5",
            "display": "American Indian or Alaska Native",
            "userSelected": true
          }
        }, {
          "url": "text",
          "valueString": "American Indian or Alaska Native"
        } ]
      }, {
        "url": "http://hl7.org/fhir/us/core/StructureDefinition/us-core-ethnicity",
        "extension": [ {
          "url": "ombCategory",
          "valueCoding": {
            "system": "urn:oid:2.16.840.1.113883.6.238",
            "code": "2135-2",
            "display": "Hispanic or Latino",
            "userSelected": true
          }
        }, {
          "url": "text",
          "valueString": "Hispanic or Latino"
        } ]
      }, {
        "url": "http://hl7.org/fhir/us/core/StructureDefinition/us-core-sex",
        "valueCode": "248152002"
      } ],
      "identifier": [ {
        "type": {
          "coding": [ {
            "system": "http://terminology.hl7.org/CodeSystem/v2-0203",
            "code": "MR"
          } ]
        },
        "system": "http://bonnie-fhir.healthit.gov/",
        "value": "IPPFail-Age17InpatientHospStartTime"
      } ],
      "active": true,
      "name": [ {
        "use": "usual",
        "family": "IPPFail",
        "given": [ "Age17InpatientHospStartTime" ]
      } ],
      "gender": "female",
      "birthDate": "2000-09-30"
    },
    "request": {
      "method": "PUT",
      "url": "Patient/fcb1c94b-4276-4409-9449-87c469ffa7d6"
    }
  }, {
    "fullUrl": "https://madie.cms.gov/MedicationAdministration/baaa464f-b708-4a4f-814b-eac8dde28d52",
    "resource": {
      "resourceType": "MedicationAdministration",
      "id": "baaa464f-b708-4a4f-814b-eac8dde28d52",
      "meta": {
        "profile": [ "http://hl7.org/fhir/us/qicore/StructureDefinition/qicore-medicationadministration" ]
      },
      "status": "completed",
      "medicationCodeableConcept": {
        "coding": [ {
          "system": "http://www.nlm.nih.gov/research/umls/rxnorm",
          "code": "1010600"
        } ]
      },
      "subject": {
        "reference": "Patient/fcb1c94b-4276-4409-9449-87c469ffa7d6"
      },
      "effectivePeriod": {
        "start": "2026-09-29T08:00:00.000+00:00",
        "end": "2026-09-29T08:15:00.000+00:00"
      }
    },
    "request": {
      "method": "PUT",
      "url": "MedicationAdministration/baaa464f-b708-4a4f-814b-eac8dde28d52"
    }
  }, {
    "fullUrl": "https://madie.cms.gov/Encounter/06c20b00-684d-4e11-a093-d5c38de09089",
    "resource": {
      "resourceType": "Encounter",
      "id": "06c20b00-684d-4e11-a093-d5c38de09089",
      "meta": {
        "profile": [ "http://hl7.org/fhir/us/qicore/StructureDefinition/qicore-encounter" ]
      },
      "status": "finished",
      "class": {
        "system": "http://terminology.hl7.org/CodeSystem/v3-ActCode",
        "code": "EMER",
        "display": "emergency"
      },
      "type": [ {
        "coding": [ {
          "system": "http://snomed.info/sct",
          "code": "4525004"
        } ]
      } ],
      "subject": {
        "reference": "Patient/fcb1c94b-4276-4409-9449-87c469ffa7d6"
      },
      "period": {
        "start": "2026-09-29T06:00:00.000+00:00",
        "end": "2026-09-29T08:00:00.000+00:00"
      }
    },
    "request": {
      "method": "PUT",
      "url": "Encounter/06c20b00-684d-4e11-a093-d5c38de09089"
    }
  }, {
    "fullUrl": "https://madie.cms.gov/Observation/0c217a9c-0584-4fa2-ad1d-6651f2b5eeaf",
    "resource": {
      "resourceType": "Observation",
      "id": "0c217a9c-0584-4fa2-ad1d-6651f2b5eeaf",
      "meta": {
        "profile": [ "http://hl7.org/fhir/us/qicore/StructureDefinition/qicore-observation-lab" ]
      },
      "status": "final",
      "category": [ {
        "coding": [ {
          "system": "http://terminology.hl7.org/CodeSystem/observation-category",
          "code": "laboratory",
          "display": "Laboratory"
        } ]
      } ],
      "code": {
        "coding": [ {
          "system": "http://loinc.org",
          "code": "2160-0",
          "display": "Creatinine [Mass/volume] in Serum or Plasma"
        } ]
      },
      "subject": {
        "reference": "Patient/fcb1c94b-4276-4409-9449-87c469ffa7d6"
      },
      "effectiveDateTime": "2026-09-29T07:59:00.000+00:00",
      "issued": "2026-09-29T08:29:00.000+00:00",
      "valueQuantity": {
        "value": 0.8,
        "unit": "mg/dL",
        "system": "http://unitsofmeasure.org",
        "code": "mg/dL"
      }
    },
    "request": {
      "method": "PUT",
      "url": "Observation/0c217a9c-0584-4fa2-ad1d-6651f2b5eeaf"
    }
  }, {
    "fullUrl": "https://madie.cms.gov/Observation/d8f78ee3-340c-4647-a0a0-d26067052739",
    "resource": {
      "resourceType": "Observation",
      "id": "d8f78ee3-340c-4647-a0a0-d26067052739",
      "meta": {
        "profile": [ "http://hl7.org/fhir/us/qicore/StructureDefinition/qicore-observation-lab" ]
      },
      "status": "final",
      "category": [ {
        "coding": [ {
          "system": "http://terminology.hl7.org/CodeSystem/observation-category",
          "code": "laboratory",
          "display": "Laboratory"
        } ]
      } ],
      "code": {
        "coding": [ {
          "system": "http://loinc.org",
          "version": "2.72",
          "code": "2160-0",
          "display": "Creatinine [Mass/volume] in Serum or Plasma",
          "userSelected": true
        } ]
      },
      "subject": {
        "reference": "Patient/fcb1c94b-4276-4409-9449-87c469ffa7d6"
      },
      "effectiveDateTime": "2026-09-29T07:35:00.000+00:00",
      "issued": "2026-09-29T08:05:00.000+00:00",
      "valueQuantity": {
        "value": 1.6,
        "unit": "mg/dL",
        "system": "http://unitsofmeasure.org",
        "code": "mg/dL"
      }
    },
    "request": {
      "method": "PUT",
      "url": "Observation/d8f78ee3-340c-4647-a0a0-d26067052739"
    }
  }, {
    "fullUrl": "https://madie.cms.gov/Encounter/0ab2a138-a120-4f08-a39d-1929013af444",
    "resource": {
      "resourceType": "Encounter",
      "id": "0ab2a138-a120-4f08-a39d-1929013af444",
      "meta": {
        "profile": [ "http://hl7.org/fhir/us/qicore/StructureDefinition/qicore-encounter" ]
      },
      "status": "finished",
      "class": {
        "system": "http://terminology.hl7.org/CodeSystem/v3-ActCode",
        "code": "IMP",
        "display": "inpatient encounter"
      },
      "type": [ {
        "coding": [ {
          "system": "http://snomed.info/sct",
          "code": "183452005"
        } ]
      } ],
      "subject": {
        "reference": "Patient/fcb1c94b-4276-4409-9449-87c469ffa7d6"
      },
      "period": {
        "start": "2026-09-29T08:00:00.000+00:00",
        "end": "2026-10-03T20:00:00.000+00:00"
      },
      "reasonReference": [ {
        "reference": "Condition/7f93a6db-643a-4f5d-bb93-bf99602206cf"
      } ]
    },
    "request": {
      "method": "PUT",
      "url": "Encounter/0ab2a138-a120-4f08-a39d-1929013af444"
    }
  }, {
    "fullUrl": "https://madie.cms.gov/Observation/dae6b09a-04f3-4397-9183-ba87795e2adb",
    "resource": {
      "resourceType": "Observation",
      "id": "dae6b09a-04f3-4397-9183-ba87795e2adb",
      "meta": {
        "profile": [ "http://hl7.org/fhir/us/qicore/StructureDefinition/qicore-observation-lab" ]
      },
      "status": "final",
      "category": [ {
        "coding": [ {
          "system": "http://terminology.hl7.org/CodeSystem/observation-category",
          "code": "laboratory",
          "display": "Laboratory"
        } ]
      } ],
      "code": {
        "coding": [ {
          "system": "http://loinc.org",
          "version": "2.72",
          "code": "2160-0",
          "display": "Creatinine [Mass/volume] in Serum or Plasma",
          "userSelected": true
        } ]
      },
      "subject": {
        "reference": "Patient/fcb1c94b-4276-4409-9449-87c469ffa7d6"
      },
      "effectiveDateTime": "2026-09-29T08:01:00.000+00:00",
      "issued": "2026-09-29T08:31:00.000+00:00",
      "valueQuantity": {
        "value": 1.1,
        "unit": "mg/dL",
        "system": "http://unitsofmeasure.org",
        "code": "mg/dL"
      }
    },
    "request": {
      "method": "PUT",
      "url": "Observation/dae6b09a-04f3-4397-9183-ba87795e2adb"
    }
  }, {
    "fullUrl": "https://madie.cms.gov/Organization/47fa943d-cb0e-4f38-b556-2f7e22f71da0",
    "resource": {
      "resourceType": "Organization",
      "id": "47fa943d-cb0e-4f38-b556-2f7e22f71da0",
      "meta": {
        "profile": [ "http://hl7.org/fhir/us/qicore/StructureDefinition/qicore-organization" ]
      },
      "identifier": [ {
        "use": "temp",
        "system": "urn:oid:2.16.840.1.113883.4.4",
        "value": "21-3259825"
      } ],
      "active": true,
      "type": [ {
        "coding": [ {
          "system": "http://terminology.hl7.org/CodeSystem/organization-type",
          "code": "pay",
          "display": "Payer"
        } ]
      } ],
      "name": "Blue Cross Blue Shield of Texas",
      "telecom": [ {
        "system": "phone",
        "value": "(+1) 972-766-6900"
      } ],
      "address": [ {
        "use": "billing",
        "type": "postal",
        "line": [ "P.O. Box 660044" ],
        "city": "Dallas",
        "state": "TX",
        "postalCode": "75266-0044",
        "country": "USA"
      } ]
    },
    "request": {
      "method": "PUT",
      "url": "Organization/47fa943d-cb0e-4f38-b556-2f7e22f71da0"
    }
  }, {
    "fullUrl": "https://madie.cms.gov/Condition/7f93a6db-643a-4f5d-bb93-bf99602206cf",
    "resource": {
      "resourceType": "Condition",
      "id": "7f93a6db-643a-4f5d-bb93-bf99602206cf",
      "meta": {
        "profile": [ "http://hl7.org/fhir/us/qicore/StructureDefinition/qicore-condition" ]
      },
      "clinicalStatus": {
        "coding": [ {
          "system": "http://terminology.hl7.org/CodeSystem/condition-clinical",
          "code": "active",
          "display": "Active"
        } ]
      },
      "verificationStatus": {
        "coding": [ {
          "system": "http://terminology.hl7.org/CodeSystem/condition-ver-status",
          "code": "confirmed",
          "display": "Confirmed"
        } ]
      },
      "category": [ {
        "coding": [ {
          "system": "http://terminology.hl7.org/CodeSystem/condition-category",
          "code": "encounter-diagnosis",
          "display": "Encounter Diagnosis"
        } ]
      } ],
      "code": {
        "coding": [ {
          "system": "http://snomed.info/sct",
          "code": "100801000119107",
          "display": "Maternal tobacco use in pregnancy (finding)"
        } ]
      },
      "subject": {
        "reference": "Patient/fcb1c94b-4276-4409-9449-87c469ffa7d6"
      },
      "encounter": {
        "reference": "Encounter/0ab2a138-a120-4f08-a39d-1929013af444"
      },
      "onsetDateTime": "2026-09-29T08:00:00.000+00:00",
      "recordedDate": "2026-09-29T10:00:00.000+00:00"
    },
    "request": {
      "method": "PUT",
      "url": "Condition/7f93a6db-643a-4f5d-bb93-bf99602206cf"
    }
  }, {
    "fullUrl": "https://madie.cms.gov/Observation/e40c7de9-e220-4665-adc9-8b8262e5a0a6",
    "resource": {
      "resourceType": "Observation",
      "id": "e40c7de9-e220-4665-adc9-8b8262e5a0a6",
      "meta": {
        "profile": [ "http://hl7.org/fhir/us/qicore/StructureDefinition/qicore-observation-lab" ]
      },
      "status": "final",
      "category": [ {
        "coding": [ {
          "system": "http://terminology.hl7.org/CodeSystem/observation-category",
          "code": "laboratory",
          "display": "Laboratory"
        } ]
      } ],
      "code": {
        "coding": [ {
          "system": "http://loinc.org",
          "code": "2160-0",
          "display": "Creatinine [Mass/volume] in Serum or Plasma"
        } ]
      },
      "subject": {
        "reference": "Patient/fcb1c94b-4276-4409-9449-87c469ffa7d6"
      },
      "effectiveDateTime": "2026-09-29T07:00:00.000+00:00",
      "issued": "2026-09-29T07:30:00.000+00:00",
      "valueQuantity": {
        "value": 0.9,
        "unit": "mg/dL",
        "system": "http://unitsofmeasure.org",
        "code": "mg/dL"
      }
    },
    "request": {
      "method": "PUT",
      "url": "Observation/e40c7de9-e220-4665-adc9-8b8262e5a0a6"
    }
  }, {
    "fullUrl": "https://madie.cms.gov/MeasureReport/6ebf8377-23bd-4859-a692-0b900484082a",
    "resource": {
      "resourceType": "MeasureReport",
      "id": "6ebf8377-23bd-4859-a692-0b900484082a",
      "meta": {
        "profile": [ "http://hl7.org/fhir/us/cqfmeasures/StructureDefinition/test-case-cqfm" ]
      },
      "contained": [ {
        "resourceType": "Parameters",
        "id": "3c942e3d-7319-45f6-a1d2-5dbc857425c7-parameters",
        "parameter": [ {
          "name": "subject",
          "valueString": "fcb1c94b-4276-4409-9449-87c469ffa7d6"
        } ]
      } ],
      "extension": [ {
        "url": "http://hl7.org/fhir/StructureDefinition/cqf-inputParameters",
        "valueReference": {
          "reference": "#3c942e3d-7319-45f6-a1d2-5dbc857425c7-parameters"
        }
      }, {
        "url": "http://hl7.org/fhir/us/cqfmeasures/StructureDefinition/cqfm-testCaseDescription",
        "valueMarkdown": "26-year-old female patient with an inpatient hospitalization following an emergency visit:\nmultiple serum creatinine labs \nmedication was administered, \ndiagnosis of maternal tobacco use in pregnancy "
      } ],
      "modifierExtension": [ {
        "url": "http://hl7.org/fhir/us/cqfmeasures/StructureDefinition/cqfm-isTestCase",
        "valueBoolean": true
      } ],
      "status": "complete",
      "type": "individual",
      "measure": "https://madie.cms.gov/Measure/CMS832FHIRHHAKI",
      "period": {
        "start": "2026-01-01",
        "end": "2026-12-31"
      },
      "group": [ {
        "id": "Group_1",
        "population": [ {
          "id": "InitialPopulation_1",
          "code": {
            "coding": [ {
              "system": "http://terminology.hl7.org/CodeSystem/measure-population",
              "code": "initial-population",
              "display": "Initial Population"
            } ]
          },
          "count": 1
        }, {
          "id": "Denominator_1",
          "code": {
            "coding": [ {
              "system": "http://terminology.hl7.org/CodeSystem/measure-population",
              "code": "denominator",
              "display": "Denominator"
            } ]
          },
          "count": 1
        }, {
          "id": "DenominatorExclusion_1",
          "code": {
            "coding": [ {
              "system": "http://terminology.hl7.org/CodeSystem/measure-population",
              "code": "denominator-exclusion",
              "display": "Denominator Exclusion"
            } ]
          },
          "count": 1
        }, {
          "id": "Numerator_1",
          "code": {
            "coding": [ {
              "system": "http://terminology.hl7.org/CodeSystem/measure-population",
              "code": "numerator",
              "display": "Numerator"
            } ]
          },
          "count": 0
        } ],
        "measureScore": {
          "value": 0.0
        }
      } ],
      "evaluatedResource": [ {
        "reference": "Coverage/22d84a41-90f8-4756-842d-5d82deba23ec"
      }, {
        "reference": "Observation/3569f792-1b5f-4bb3-b616-14012a717379"
      }, {
        "reference": "Patient/fcb1c94b-4276-4409-9449-87c469ffa7d6"
      }, {
        "reference": "MedicationAdministration/baaa464f-b708-4a4f-814b-eac8dde28d52"
      }, {
        "reference": "Encounter/06c20b00-684d-4e11-a093-d5c38de09089"
      }, {
        "reference": "Observation/0c217a9c-0584-4fa2-ad1d-6651f2b5eeaf"
      }, {
        "reference": "Observation/d8f78ee3-340c-4647-a0a0-d26067052739"
      }, {
        "reference": "Encounter/0ab2a138-a120-4f08-a39d-1929013af444"
      }, {
        "reference": "Observation/dae6b09a-04f3-4397-9183-ba87795e2adb"
      }, {
        "reference": "Organization/47fa943d-cb0e-4f38-b556-2f7e22f71da0"
      }, {
        "reference": "Condition/7f93a6db-643a-4f5d-bb93-bf99602206cf"
      }, {
        "reference": "Observation/e40c7de9-e220-4665-adc9-8b8262e5a0a6"
      } ]
    },
    "request": {
      "method": "PUT",
      "url": "MeasureReport/6ebf8377-23bd-4859-a692-0b900484082a"
    }
  } ]
}