{
  "resourceType": "Bundle",
  "id": "DENEXPass-FrailtySymptomOverlapsMP",
  "type": "transaction",
  "entry": [ {
    "fullUrl": "https://madie.cms.gov/Patient/686e2c47-b08f-465c-ab31-1712dd72028b",
    "resource": {
      "resourceType": "Patient",
      "id": "686e2c47-b08f-465c-ab31-1712dd72028b",
      "meta": {
        "profile": [ "http://hl7.org/fhir/us/qicore/StructureDefinition/qicore-patient" ]
      },
      "extension": [ {
        "url": "http://hl7.org/fhir/us/core/StructureDefinition/us-core-race",
        "extension": [ {
          "url": "ombCategory",
          "valueCoding": {
            "system": "urn:oid:2.16.840.1.113883.6.238",
            "code": "2028-9",
            "display": "Asian"
          }
        }, {
          "url": "text",
          "valueString": "Asian"
        } ]
      }, {
        "url": "http://hl7.org/fhir/us/core/StructureDefinition/us-core-ethnicity",
        "extension": [ {
          "url": "ombCategory",
          "valueCoding": {
            "system": "urn:oid:2.16.840.1.113883.6.238",
            "code": "2135-2",
            "display": "Hispanic or Latino"
          }
        }, {
          "url": "text",
          "valueString": "Hispanic or Latino"
        } ]
      } ],
      "identifier": [ {
        "system": "http://hospital.smarthealthit.org",
        "value": "999999995"
      } ],
      "name": [ {
        "family": "DENEXPass",
        "given": [ "FrailtySymptomOverlapsMP" ]
      } ],
      "gender": "female",
      "birthDate": "1959-12-31"
    },
    "request": {
      "method": "PUT",
      "url": "Patient/686e2c47-b08f-465c-ab31-1712dd72028b"
    }
  }, {
    "fullUrl": "https://madie.cms.gov/Encounter/6133a898-c09e-4e89-99dd-b25e11335a6c",
    "resource": {
      "resourceType": "Encounter",
      "id": "6133a898-c09e-4e89-99dd-b25e11335a6c",
      "meta": {
        "profile": [ "http://hl7.org/fhir/us/qicore/StructureDefinition/qicore-encounter" ]
      },
      "status": "finished",
      "class": {
        "system": "http://terminology.hl7.org/CodeSystem/v3-ActCode",
        "code": "AMB",
        "display": "ambulatory"
      },
      "type": [ {
        "coding": [ {
          "system": "http://snomed.info/sct",
          "code": "3391000175108",
          "display": "Office visit for pediatric care and assessment (procedure)"
        } ]
      } ],
      "subject": {
        "reference": "Patient/686e2c47-b08f-465c-ab31-1712dd72028b"
      },
      "period": {
        "start": "2026-01-01T00:00:00.000+00:00",
        "end": "2026-01-01T01:00:00.000+00:00"
      }
    },
    "request": {
      "method": "PUT",
      "url": "Encounter/6133a898-c09e-4e89-99dd-b25e11335a6c"
    }
  }, {
    "fullUrl": "https://madie.cms.gov/Condition/dd050b41-6ac2-45ae-a925-3f327d20161e",
    "resource": {
      "resourceType": "Condition",
      "id": "dd050b41-6ac2-45ae-a925-3f327d20161e",
      "meta": {
        "profile": [ "http://hl7.org/fhir/us/qicore/StructureDefinition/qicore-condition-problems-health-concerns" ]
      },
      "clinicalStatus": {
        "coding": [ {
          "system": "http://terminology.hl7.org/CodeSystem/condition-clinical",
          "code": "active"
        } ]
      },
      "category": [ {
        "coding": [ {
          "system": "http://terminology.hl7.org/CodeSystem/condition-category",
          "code": "problem-list-item",
          "display": "Problem List Item"
        } ]
      } ],
      "code": {
        "coding": [ {
          "system": "http://snomed.info/sct",
          "code": "371125006",
          "display": "Labile essential hypertension (disorder)"
        } ]
      },
      "subject": {
        "reference": "Patient/686e2c47-b08f-465c-ab31-1712dd72028b"
      },
      "onsetDateTime": "2026-06-30T23:59:59.000+00:00"
    },
    "request": {
      "method": "PUT",
      "url": "Condition/dd050b41-6ac2-45ae-a925-3f327d20161e"
    }
  }, {
    "fullUrl": "https://madie.cms.gov/MedicationRequest/4f7dae0b-3591-4bb2-99b3-5530b0591afb",
    "resource": {
      "resourceType": "MedicationRequest",
      "id": "4f7dae0b-3591-4bb2-99b3-5530b0591afb",
      "meta": {
        "profile": [ "http://hl7.org/fhir/us/qicore/StructureDefinition/qicore-medicationrequest" ]
      },
      "status": "active",
      "intent": "order",
      "doNotPerform": false,
      "medicationCodeableConcept": {
        "coding": [ {
          "system": "http://www.nlm.nih.gov/research/umls/rxnorm",
          "code": "312836",
          "display": "rivastigmine 6 MG Oral Capsule"
        } ]
      },
      "subject": {
        "reference": "Patient/686e2c47-b08f-465c-ab31-1712dd72028b"
      },
      "authoredOn": "2026-01-01T00:00:00.000+00:00",
      "requester": {
        "reference": "Practitioner/example"
      },
      "dispenseRequest": {
        "expectedSupplyDuration": {
          "value": 90,
          "system": "http://unitsofmeasure.org",
          "code": "days"
        }
      }
    },
    "request": {
      "method": "PUT",
      "url": "MedicationRequest/4f7dae0b-3591-4bb2-99b3-5530b0591afb"
    }
  }, {
    "fullUrl": "https://madie.cms.gov/Observation/31944bb1-a5b9-49d9-bfba-4c228e230e76",
    "resource": {
      "resourceType": "Observation",
      "id": "31944bb1-a5b9-49d9-bfba-4c228e230e76",
      "meta": {
        "profile": [ "http://hl7.org/fhir/us/qicore/StructureDefinition/qicore-simple-observation" ]
      },
      "status": "final",
      "category": [ {
        "coding": [ {
          "system": "http://terminology.hl7.org/CodeSystem/observation-category",
          "code": "survey"
        } ]
      } ],
      "code": {
        "coding": [ {
          "system": "http://hl7.org/fhir/sid/icd-10-cm",
          "code": "R26.89",
          "display": "Other abnormalities of gait and mobility"
        } ]
      },
      "subject": {
        "reference": "Patient/686e2c47-b08f-465c-ab31-1712dd72028b"
      },
      "effectivePeriod": {
        "start": "2026-01-01T00:00:00.000+00:00",
        "end": "2026-01-02T00:00:00.000+00:00"
      }
    },
    "request": {
      "method": "PUT",
      "url": "Observation/31944bb1-a5b9-49d9-bfba-4c228e230e76"
    }
  }, {
    "fullUrl": "https://madie.cms.gov/MeasureReport/905d2cf9-d59c-4a68-bca9-b7c30e6548c8",
    "resource": {
      "resourceType": "MeasureReport",
      "id": "905d2cf9-d59c-4a68-bca9-b7c30e6548c8",
      "meta": {
        "profile": [ "http://hl7.org/fhir/us/cqfmeasures/StructureDefinition/test-case-cqfm" ]
      },
      "contained": [ {
        "resourceType": "Parameters",
        "id": "2af89cd3-7f10-41b6-b157-f57338e3c0ea-parameters",
        "parameter": [ {
          "name": "subject",
          "valueString": "686e2c47-b08f-465c-ab31-1712dd72028b"
        } ]
      } ],
      "extension": [ {
        "url": "http://hl7.org/fhir/StructureDefinition/cqf-inputParameters",
        "valueReference": {
          "reference": "#2af89cd3-7f10-41b6-b157-f57338e3c0ea-parameters"
        }
      }, {
        "url": "http://hl7.org/fhir/us/cqfmeasures/StructureDefinition/cqfm-testCaseDescription",
        "valueMarkdown": "Frailty symptom overlaps MP"
      } ],
      "modifierExtension": [ {
        "url": "http://hl7.org/fhir/us/cqfmeasures/StructureDefinition/cqfm-isTestCase",
        "valueBoolean": true
      } ],
      "status": "complete",
      "type": "individual",
      "measure": "https://madie.cms.gov/Measure/CMS165FHIRControllingHighBP",
      "period": {
        "start": "2026-01-01",
        "end": "2026-12-31"
      },
      "group": [ {
        "id": "Group_1",
        "population": [ {
          "id": "InitialPopulation_1",
          "code": {
            "coding": [ {
              "system": "http://terminology.hl7.org/CodeSystem/measure-population",
              "code": "initial-population",
              "display": "Initial Population"
            } ]
          },
          "count": 1
        }, {
          "id": "Denominator_1",
          "code": {
            "coding": [ {
              "system": "http://terminology.hl7.org/CodeSystem/measure-population",
              "code": "denominator",
              "display": "Denominator"
            } ]
          },
          "count": 1
        }, {
          "id": "DenominatorExclusion_1",
          "code": {
            "coding": [ {
              "system": "http://terminology.hl7.org/CodeSystem/measure-population",
              "code": "denominator-exclusion",
              "display": "Denominator Exclusion"
            } ]
          },
          "count": 1
        }, {
          "id": "Numerator_1",
          "code": {
            "coding": [ {
              "system": "http://terminology.hl7.org/CodeSystem/measure-population",
              "code": "numerator",
              "display": "Numerator"
            } ]
          },
          "count": 0
        } ],
        "measureScore": {
          "value": 1.0
        }
      } ],
      "evaluatedResource": [ {
        "reference": "Patient/686e2c47-b08f-465c-ab31-1712dd72028b"
      }, {
        "reference": "Encounter/6133a898-c09e-4e89-99dd-b25e11335a6c"
      }, {
        "reference": "Condition/dd050b41-6ac2-45ae-a925-3f327d20161e"
      }, {
        "reference": "MedicationRequest/4f7dae0b-3591-4bb2-99b3-5530b0591afb"
      }, {
        "reference": "Observation/31944bb1-a5b9-49d9-bfba-4c228e230e76"
      } ]
    },
    "request": {
      "method": "PUT",
      "url": "MeasureReport/905d2cf9-d59c-4a68-bca9-b7c30e6548c8"
    }
  } ]
}