{
  "resourceType": "Bundle",
  "id": "633b3f9e0968f80122503cbb",
  "type": "transaction",
  "entry": [ {
    "fullUrl": "https://madie.cms.gov/Patient/4edad2c2-dc5f-47dd-a4ba-353ce356fb08",
    "resource": {
      "resourceType": "Patient",
      "id": "4edad2c2-dc5f-47dd-a4ba-353ce356fb08",
      "meta": {
        "profile": [ "http://hl7.org/fhir/us/qicore/StructureDefinition/qicore-patient" ]
      },
      "text": {
        "status": "generated",
        "div": "<div xmlns=\"http://www.w3.org/1999/xhtml\"><div class=\"hapiHeaderText\">Age8OnDayOfEncStart <b>IPPASS </b></div><table class=\"hapiPropertyTable\"><tbody><tr><td>Date of birth</td><td><span>01 February 2004</span></td></tr></tbody></table></div>"
      },
      "extension": [ {
        "url": "http://hl7.org/fhir/us/core/StructureDefinition/us-core-race",
        "extension": [ {
          "url": "ombCategory",
          "valueCoding": {
            "system": "urn:oid:2.16.840.1.113883.6.238",
            "code": "1002-5",
            "display": "American Indian or Alaska Native",
            "userSelected": true
          }
        }, {
          "url": "text",
          "valueString": "American Indian or Alaska Native"
        } ]
      }, {
        "url": "http://hl7.org/fhir/us/core/StructureDefinition/us-core-ethnicity",
        "extension": [ {
          "url": "ombCategory",
          "valueCoding": {
            "system": "urn:oid:2.16.840.1.113883.6.238",
            "code": "2135-2",
            "display": "Hispanic or Latino",
            "userSelected": true
          }
        }, {
          "url": "text",
          "valueString": "Hispanic or Latino"
        } ]
      } ],
      "identifier": [ {
        "type": {
          "coding": [ {
            "system": "http://terminology.hl7.org/CodeSystem/v2-0203",
            "code": "MR"
          } ]
        },
        "system": "https://bonnie-fhir.healthit.gov/",
        "value": "633b3f9e0968f80122503cbb"
      } ],
      "active": true,
      "name": [ {
        "use": "usual",
        "family": "IPPass",
        "given": [ "Age8OnDayOfEncStart" ]
      } ],
      "gender": "female",
      "birthDate": "2017-02-01"
    },
    "request": {
      "method": "PUT",
      "url": "Patient/4edad2c2-dc5f-47dd-a4ba-353ce356fb08"
    }
  }, {
    "fullUrl": "https://madie.cms.gov/Encounter/4e1b24b2-c58d-43f4-8f52-e6d54826245b",
    "resource": {
      "resourceType": "Encounter",
      "id": "4e1b24b2-c58d-43f4-8f52-e6d54826245b",
      "meta": {
        "profile": [ "http://hl7.org/fhir/us/qicore/StructureDefinition/qicore-encounter" ]
      },
      "status": "finished",
      "class": {
        "system": "http://terminology.hl7.org/CodeSystem/v3-ActCode",
        "code": "IMP",
        "display": "inpatient encounter"
      },
      "type": [ {
        "coding": [ {
          "system": "http://snomed.info/sct",
          "code": "183452005"
        } ]
      } ],
      "subject": {
        "reference": "Patient/4edad2c2-dc5f-47dd-a4ba-353ce356fb08"
      },
      "period": {
        "start": "2026-02-01T08:00:00.000+00:00",
        "end": "2026-02-05T08:15:00.000+00:00"
      },
      "diagnosis": [ {
        "condition": {
          "reference": "Condition/Condition-2"
        },
        "use": {
          "coding": [ {
            "system": "http://snomed.info/sct",
            "code": "169826009",
            "display": "Delivery of Singleton"
          } ]
        }
      } ]
    },
    "request": {
      "method": "PUT",
      "url": "Encounter/4e1b24b2-c58d-43f4-8f52-e6d54826245b"
    }
  }, {
    "fullUrl": "https://madie.cms.gov/Procedure/b7210417-3702-42c2-b8bb-a694e83b529c",
    "resource": {
      "resourceType": "Procedure",
      "id": "b7210417-3702-42c2-b8bb-a694e83b529c",
      "meta": {
        "profile": [ "http://hl7.org/fhir/us/qicore/StructureDefinition/qicore-procedure" ]
      },
      "extension": [ {
        "url": "http://hl7.org/fhir/us/qicore/StructureDefinition/qicore-recorded",
        "valueDateTime": "2014-04-05T13:35:00.000+00:00"
      } ],
      "status": "completed",
      "code": {
        "coding": [ {
          "system": "http://snomed.info/sct",
          "version": "2022-09",
          "code": "10745001",
          "display": "Delivery of transverse presentation (procedure)",
          "userSelected": true
        } ]
      },
      "subject": {
        "reference": "Patient/4edad2c2-dc5f-47dd-a4ba-353ce356fb08"
      },
      "performedPeriod": {
        "start": "2026-02-01T08:00:00.000+00:00",
        "end": "2026-02-05T08:15:00.000+00:00"
      }
    },
    "request": {
      "method": "PUT",
      "url": "Procedure/b7210417-3702-42c2-b8bb-a694e83b529c"
    }
  }, {
    "fullUrl": "https://madie.cms.gov/Coverage/e394a5ff-2e7f-4e0a-b5b4-1aa562025b7d",
    "resource": {
      "resourceType": "Coverage",
      "id": "e394a5ff-2e7f-4e0a-b5b4-1aa562025b7d",
      "meta": {
        "profile": [ "http://hl7.org/fhir/us/qicore/StructureDefinition/qicore-coverage" ]
      },
      "status": "active",
      "beneficiary": {
        "reference": "Patient/4edad2c2-dc5f-47dd-a4ba-353ce356fb08"
      },
      "payor": [ {
        "reference": "Organization/f5b25fee-d285-4647-b7d3-7cf07ed478c8"
      } ]
    },
    "request": {
      "method": "PUT",
      "url": "Coverage/e394a5ff-2e7f-4e0a-b5b4-1aa562025b7d"
    }
  }, {
    "fullUrl": "https://madie.cms.gov/Organization/f5b25fee-d285-4647-b7d3-7cf07ed478c8",
    "resource": {
      "resourceType": "Organization",
      "id": "f5b25fee-d285-4647-b7d3-7cf07ed478c8",
      "meta": {
        "profile": [ "http://hl7.org/fhir/us/qicore/StructureDefinition/qicore-organization" ]
      },
      "identifier": [ {
        "use": "temp",
        "system": "urn:oid:2.16.840.1.113883.4.4",
        "value": "21-3259825"
      } ],
      "active": true,
      "type": [ {
        "coding": [ {
          "system": "http://terminology.hl7.org/CodeSystem/organization-type",
          "code": "pay",
          "display": "Payer"
        } ]
      } ],
      "name": "Blue Cross Blue Shield of Texas",
      "telecom": [ {
        "system": "phone",
        "value": "(+1) 972-766-6900"
      } ],
      "address": [ {
        "use": "billing",
        "type": "postal",
        "line": [ "P.O. Box 660044" ],
        "city": "Dallas",
        "state": "TX",
        "postalCode": "75266-0044",
        "country": "USA"
      } ]
    },
    "request": {
      "method": "PUT",
      "url": "Organization/f5b25fee-d285-4647-b7d3-7cf07ed478c8"
    }
  }, {
    "fullUrl": "https://madie.cms.gov/Practitioner/5416c89d-3797-4892-bb41-c2ec9c7c89d5",
    "resource": {
      "resourceType": "Practitioner",
      "id": "5416c89d-3797-4892-bb41-c2ec9c7c89d5",
      "identifier": [ {
        "system": "http://hl7.org/fhir/sid/us-npi",
        "value": "123456"
      } ],
      "name": [ {
        "family": "Evil",
        "prefix": [ "Dr" ]
      } ]
    },
    "request": {
      "method": "PUT",
      "url": "Practitioner/5416c89d-3797-4892-bb41-c2ec9c7c89d5"
    }
  }, {
    "fullUrl": "https://madie.cms.gov/MeasureReport/0825fb6f-8003-4daa-a0c7-9b9b99346e60",
    "resource": {
      "resourceType": "MeasureReport",
      "id": "0825fb6f-8003-4daa-a0c7-9b9b99346e60",
      "meta": {
        "profile": [ "http://hl7.org/fhir/us/cqfmeasures/StructureDefinition/test-case-cqfm" ]
      },
      "contained": [ {
        "resourceType": "Parameters",
        "id": "477473ce-cb82-457c-a6d4-c3ad5431376d-parameters",
        "parameter": [ {
          "name": "subject",
          "valueString": "4edad2c2-dc5f-47dd-a4ba-353ce356fb08"
        } ]
      } ],
      "extension": [ {
        "url": "http://hl7.org/fhir/StructureDefinition/cqf-inputParameters",
        "valueReference": {
          "reference": "#477473ce-cb82-457c-a6d4-c3ad5431376d-parameters"
        }
      }, {
        "url": "http://hl7.org/fhir/us/cqfmeasures/StructureDefinition/cqfm-testCaseDescription",
        "valueMarkdown": "Patient is 8 years of age on day of encounter start.\n"
      } ],
      "modifierExtension": [ {
        "url": "http://hl7.org/fhir/us/cqfmeasures/StructureDefinition/cqfm-isTestCase",
        "valueBoolean": true
      } ],
      "status": "complete",
      "type": "individual",
      "measure": "https://madie.cms.gov/Measure/CMS1028FHIRPCSevereOBComps",
      "period": {
        "start": "2026-01-01",
        "end": "2026-12-31"
      },
      "group": [ {
        "id": "Group_1",
        "population": [ {
          "id": "InitialPopulation_1",
          "code": {
            "coding": [ {
              "system": "http://terminology.hl7.org/CodeSystem/measure-population",
              "code": "initial-population",
              "display": "Initial Population"
            } ]
          },
          "count": 1
        }, {
          "id": "Denominator_1",
          "code": {
            "coding": [ {
              "system": "http://terminology.hl7.org/CodeSystem/measure-population",
              "code": "denominator",
              "display": "Denominator"
            } ]
          },
          "count": 0
        }, {
          "id": "Numerator_1",
          "code": {
            "coding": [ {
              "system": "http://terminology.hl7.org/CodeSystem/measure-population",
              "code": "numerator",
              "display": "Numerator"
            } ]
          },
          "count": 0
        }, {
          "id": "NumeratorExclusion_1",
          "code": {
            "coding": [ {
              "system": "http://terminology.hl7.org/CodeSystem/measure-population",
              "code": "numerator-exclusion",
              "display": "Numerator Exclusion"
            } ]
          },
          "count": 0
        } ],
        "measureScore": {
          "value": 0.0
        }
      }, {
        "id": "Group_2",
        "population": [ {
          "id": "InitialPopulation_2",
          "code": {
            "coding": [ {
              "system": "http://terminology.hl7.org/CodeSystem/measure-population",
              "code": "initial-population",
              "display": "Initial Population"
            } ]
          },
          "count": 1
        }, {
          "id": "Denominator_2",
          "code": {
            "coding": [ {
              "system": "http://terminology.hl7.org/CodeSystem/measure-population",
              "code": "denominator",
              "display": "Denominator"
            } ]
          },
          "count": 0
        }, {
          "id": "Numerator_2",
          "code": {
            "coding": [ {
              "system": "http://terminology.hl7.org/CodeSystem/measure-population",
              "code": "numerator",
              "display": "Numerator"
            } ]
          },
          "count": 0
        }, {
          "id": "NumeratorExclusion_2",
          "code": {
            "coding": [ {
              "system": "http://terminology.hl7.org/CodeSystem/measure-population",
              "code": "numerator-exclusion",
              "display": "Numerator Exclusion"
            } ]
          },
          "count": 0
        } ],
        "measureScore": {
          "value": 0.0
        }
      } ],
      "evaluatedResource": [ {
        "reference": "Patient/4edad2c2-dc5f-47dd-a4ba-353ce356fb08"
      }, {
        "reference": "Encounter/4e1b24b2-c58d-43f4-8f52-e6d54826245b"
      }, {
        "reference": "Procedure/b7210417-3702-42c2-b8bb-a694e83b529c"
      }, {
        "reference": "Coverage/e394a5ff-2e7f-4e0a-b5b4-1aa562025b7d"
      }, {
        "reference": "Organization/f5b25fee-d285-4647-b7d3-7cf07ed478c8"
      }, {
        "reference": "Practitioner/5416c89d-3797-4892-bb41-c2ec9c7c89d5"
      } ]
    },
    "request": {
      "method": "PUT",
      "url": "MeasureReport/0825fb6f-8003-4daa-a0c7-9b9b99346e60"
    }
  } ]
}