{
  "resourceType": "Bundle",
  "id": "612e6ef202c62a011f2f0202",
  "type": "transaction",
  "entry": [ {
    "fullUrl": "https://madie.cms.gov/Patient/723ff153-68bd-455e-a841-4632cfde7193",
    "resource": {
      "resourceType": "Patient",
      "id": "723ff153-68bd-455e-a841-4632cfde7193",
      "meta": {
        "profile": [ "http://hl7.org/fhir/us/qicore/StructureDefinition/qicore-patient" ]
      },
      "text": {
        "status": "generated",
        "div": "<div xmlns=\"http://www.w3.org/1999/xhtml\"><div class=\"hapiHeaderText\">INREQ3AfterICU <b>NUMERFAIL </b></div><table class=\"hapiPropertyTable\"><tbody><tr><td>Identifier</td><td>2a602c8f4a3fe9ea878f24c5526d40d3</td></tr><tr><td>Date of birth</td><td><span>03 March 1974</span></td></tr></tbody></table></div>"
      },
      "extension": [ {
        "url": "http://hl7.org/fhir/us/core/StructureDefinition/us-core-race",
        "extension": [ {
          "url": "ombCategory",
          "valueCoding": {
            "system": "urn:oid:2.16.840.1.113883.6.238",
            "code": "1002-5",
            "display": "American Indian or Alaska Native",
            "userSelected": true
          }
        }, {
          "url": "text",
          "valueString": "American Indian or Alaska Native"
        } ]
      }, {
        "url": "http://hl7.org/fhir/us/core/StructureDefinition/us-core-ethnicity",
        "extension": [ {
          "url": "ombCategory",
          "valueCoding": {
            "system": "urn:oid:2.16.840.1.113883.6.238",
            "code": "2135-2",
            "display": "Hispanic or Latino",
            "userSelected": true
          }
        }, {
          "url": "text",
          "valueString": "Hispanic or Latino"
        } ]
      } ],
      "identifier": [ {
        "type": {
          "coding": [ {
            "system": "http://terminology.hl7.org/CodeSystem/v2-0203",
            "code": "MR"
          } ]
        },
        "system": "https://bonnie-fhir.healthit.gov/",
        "value": "612e6ef202c62a011f2f0202"
      } ],
      "active": true,
      "name": [ {
        "use": "usual",
        "family": "NUMERFail",
        "given": [ "INREQ3AfterICU " ]
      } ],
      "gender": "female",
      "birthDate": "1975-03-03"
    },
    "request": {
      "method": "PUT",
      "url": "Patient/723ff153-68bd-455e-a841-4632cfde7193"
    }
  }, {
    "fullUrl": "https://madie.cms.gov/Encounter/466c7ae3-0cf0-404c-822f-207460b3bbdb",
    "resource": {
      "resourceType": "Encounter",
      "id": "466c7ae3-0cf0-404c-822f-207460b3bbdb",
      "meta": {
        "profile": [ "http://hl7.org/fhir/us/qicore/StructureDefinition/qicore-encounter" ]
      },
      "status": "finished",
      "class": {
        "system": "http://terminology.hl7.org/CodeSystem/v3-ActCode",
        "code": "IMP",
        "display": "inpatient encounter"
      },
      "type": [ {
        "coding": [ {
          "system": "http://snomed.info/sct",
          "code": "8715000"
        } ]
      } ],
      "subject": {
        "reference": "Patient/723ff153-68bd-455e-a841-4632cfde7193"
      },
      "period": {
        "start": "2026-12-04T08:00:00.000+00:00",
        "end": "2026-12-30T08:15:00.000+00:00"
      },
      "length": {
        "value": 26,
        "unit": "days"
      },
      "location": [ {
        "location": {
          "reference": "Location/8f336be7-997d-48de-ab89-9728fb5f35c9"
        },
        "period": {
          "start": "2026-12-06T09:00:00.000+00:00",
          "end": "2026-12-12T08:15:00.000+00:00"
        }
      } ]
    },
    "request": {
      "method": "PUT",
      "url": "Encounter/466c7ae3-0cf0-404c-822f-207460b3bbdb"
    }
  }, {
    "fullUrl": "https://madie.cms.gov/Coverage/a83c8e19-a67d-44f0-b398-43577aade0c2",
    "resource": {
      "resourceType": "Coverage",
      "id": "a83c8e19-a67d-44f0-b398-43577aade0c2",
      "status": "active",
      "beneficiary": {
        "reference": "Patient/723ff153-68bd-455e-a841-4632cfde7193"
      },
      "period": {
        "start": "1975-03-03T08:00:00.000+00:00"
      },
      "payor": [ {
        "reference": "Organization/5c883dfa-225d-4137-a107-f6beff752fb4"
      } ]
    },
    "request": {
      "method": "PUT",
      "url": "Coverage/a83c8e19-a67d-44f0-b398-43577aade0c2"
    }
  }, {
    "fullUrl": "https://madie.cms.gov/Observation/69cb1bc2-66fd-4422-96f7-0f50e1f1233c",
    "resource": {
      "resourceType": "Observation",
      "id": "69cb1bc2-66fd-4422-96f7-0f50e1f1233c",
      "meta": {
        "profile": [ "http://hl7.org/fhir/us/qicore/StructureDefinition/qicore-observation-lab" ]
      },
      "status": "amended",
      "category": [ {
        "coding": [ {
          "system": "http://terminology.hl7.org/CodeSystem/observation-category",
          "code": "laboratory",
          "display": "Laboratory"
        } ]
      } ],
      "code": {
        "coding": [ {
          "system": "http://loinc.org",
          "code": "34714-6"
        } ]
      },
      "subject": {
        "reference": "Patient/723ff153-68bd-455e-a841-4632cfde7193"
      },
      "effectivePeriod": {
        "start": "2026-12-06T11:30:00.000+00:00"
      },
      "valueInteger": 3
    },
    "request": {
      "method": "PUT",
      "url": "Observation/69cb1bc2-66fd-4422-96f7-0f50e1f1233c"
    }
  }, {
    "fullUrl": "https://madie.cms.gov/Location/8f336be7-997d-48de-ab89-9728fb5f35c9",
    "resource": {
      "resourceType": "Location",
      "id": "8f336be7-997d-48de-ab89-9728fb5f35c9",
      "meta": {
        "profile": [ "http://hl7.org/fhir/us/qicore/StructureDefinition/qicore-location" ]
      },
      "identifier": [ {
        "use": "usual",
        "system": "http://exampleoflocation.com",
        "value": "B1-S.F2"
      } ],
      "name": "Medical Surgical East, first floor",
      "type": [ {
        "coding": [ {
          "system": "https://www.cdc.gov/nhsn/cdaportal/terminology/codesystem/hsloc.html",
          "code": "1025-6",
          "display": "Trauma Critical Care",
          "userSelected": true
        } ]
      } ]
    },
    "request": {
      "method": "PUT",
      "url": "Location/8f336be7-997d-48de-ab89-9728fb5f35c9"
    }
  }, {
    "fullUrl": "https://madie.cms.gov/Organization/5c883dfa-225d-4137-a107-f6beff752fb4",
    "resource": {
      "resourceType": "Organization",
      "id": "5c883dfa-225d-4137-a107-f6beff752fb4",
      "meta": {
        "profile": [ "http://hl7.org/fhir/us/qicore/StructureDefinition/qicore-organization" ]
      },
      "identifier": [ {
        "use": "temp",
        "system": "urn:oid:2.16.840.1.113883.4.4",
        "value": "21-3259825"
      } ],
      "active": true,
      "type": [ {
        "coding": [ {
          "system": "http://terminology.hl7.org/CodeSystem/organization-type",
          "code": "pay",
          "display": "Payer"
        } ]
      } ],
      "name": "Blue Cross Blue Shield of Texas",
      "telecom": [ {
        "system": "phone",
        "value": "(+1) 972-766-6900"
      } ],
      "address": [ {
        "use": "billing",
        "type": "postal",
        "line": [ "P.O. Box 660044" ],
        "city": "Dallas",
        "state": "TX",
        "postalCode": "75266-0044",
        "country": "USA"
      } ]
    },
    "request": {
      "method": "PUT",
      "url": "Organization/5c883dfa-225d-4137-a107-f6beff752fb4"
    }
  }, {
    "fullUrl": "https://madie.cms.gov/Practitioner/0fc457e4-e5bb-4913-9877-a24834e669e0",
    "resource": {
      "resourceType": "Practitioner",
      "id": "0fc457e4-e5bb-4913-9877-a24834e669e0",
      "identifier": [ {
        "system": "http://hl7.org/fhir/sid/us-npi",
        "value": "123456"
      } ],
      "name": [ {
        "family": "Evil",
        "prefix": [ "Dr" ]
      } ]
    },
    "request": {
      "method": "PUT",
      "url": "Practitioner/0fc457e4-e5bb-4913-9877-a24834e669e0"
    }
  }, {
    "fullUrl": "https://madie.cms.gov/MeasureReport/cb31339a-8bf8-40f0-bd88-7789627e4661",
    "resource": {
      "resourceType": "MeasureReport",
      "id": "cb31339a-8bf8-40f0-bd88-7789627e4661",
      "meta": {
        "profile": [ "http://hl7.org/fhir/us/cqfmeasures/StructureDefinition/test-case-cqfm" ]
      },
      "contained": [ {
        "resourceType": "Parameters",
        "id": "1b580225-7652-4dcb-80a0-d0449abbe3cb-parameters",
        "parameter": [ {
          "name": "subject",
          "valueString": "723ff153-68bd-455e-a841-4632cfde7193"
        } ]
      } ],
      "extension": [ {
        "url": "http://hl7.org/fhir/StructureDefinition/cqf-inputParameters",
        "valueReference": {
          "reference": "#1b580225-7652-4dcb-80a0-d0449abbe3cb-parameters"
        }
      }, {
        "url": "http://hl7.org/fhir/us/cqfmeasures/StructureDefinition/cqfm-testCaseDescription",
        "valueMarkdown": "FAIL - meets IPP, meets Denominator, INR=3 starts after start ICU\n"
      } ],
      "modifierExtension": [ {
        "url": "http://hl7.org/fhir/us/cqfmeasures/StructureDefinition/cqfm-isTestCase",
        "valueBoolean": true
      } ],
      "status": "complete",
      "type": "individual",
      "measure": "https://madie.cms.gov/Measure/CMS190FHIRVTEProphylaxisICU",
      "period": {
        "start": "2026-01-01",
        "end": "2026-12-31"
      },
      "group": [ {
        "id": "Group_1",
        "population": [ {
          "id": "InitialPopulation_1",
          "code": {
            "coding": [ {
              "system": "http://terminology.hl7.org/CodeSystem/measure-population",
              "code": "initial-population",
              "display": "Initial Population"
            } ]
          },
          "count": 1
        }, {
          "id": "Denominator_1",
          "code": {
            "coding": [ {
              "system": "http://terminology.hl7.org/CodeSystem/measure-population",
              "code": "denominator",
              "display": "Denominator"
            } ]
          },
          "count": 1
        }, {
          "id": "DenominatorExclusion_1",
          "code": {
            "coding": [ {
              "system": "http://terminology.hl7.org/CodeSystem/measure-population",
              "code": "denominator-exclusion",
              "display": "Denominator Exclusion"
            } ]
          },
          "count": 0
        }, {
          "id": "Numerator_1",
          "code": {
            "coding": [ {
              "system": "http://terminology.hl7.org/CodeSystem/measure-population",
              "code": "numerator",
              "display": "Numerator"
            } ]
          },
          "count": 0
        }, {
          "id": "DenominatorException_1",
          "code": {
            "coding": [ {
              "system": "http://terminology.hl7.org/CodeSystem/measure-population",
              "code": "denominator-exception",
              "display": "Denominator Exception"
            } ]
          },
          "count": 0
        } ],
        "measureScore": {
          "value": 0.0
        }
      } ],
      "evaluatedResource": [ {
        "reference": "Patient/723ff153-68bd-455e-a841-4632cfde7193"
      }, {
        "reference": "Encounter/466c7ae3-0cf0-404c-822f-207460b3bbdb"
      }, {
        "reference": "Coverage/a83c8e19-a67d-44f0-b398-43577aade0c2"
      }, {
        "reference": "Observation/69cb1bc2-66fd-4422-96f7-0f50e1f1233c"
      }, {
        "reference": "Location/8f336be7-997d-48de-ab89-9728fb5f35c9"
      }, {
        "reference": "Organization/5c883dfa-225d-4137-a107-f6beff752fb4"
      }, {
        "reference": "Practitioner/0fc457e4-e5bb-4913-9877-a24834e669e0"
      } ]
    },
    "request": {
      "method": "PUT",
      "url": "MeasureReport/cb31339a-8bf8-40f0-bd88-7789627e4661"
    }
  } ]
}