{
  "resourceType": "Bundle",
  "id": "62d96413f0347d1abcae6c0b",
  "type": "collection",
  "entry": [ {
    "fullUrl": "https://madie.cms.gov/Patient/42d7a924-fba7-4820-9ca9-f12a588b4ad3",
    "resource": {
      "resourceType": "Patient",
      "id": "42d7a924-fba7-4820-9ca9-f12a588b4ad3",
      "meta": {
        "profile": [ "http://hl7.org/fhir/us/qicore/StructureDefinition/qicore-patient" ]
      },
      "extension": [ {
        "url": "http://hl7.org/fhir/us/core/StructureDefinition/us-core-race",
        "extension": [ {
          "url": "ombCategory",
          "valueCoding": {
            "system": "urn:oid:2.16.840.1.113883.6.238",
            "code": "1002-5",
            "display": "American Indian or Alaska Native",
            "userSelected": true
          }
        }, {
          "url": "text",
          "valueString": "American Indian or Alaska Native"
        } ]
      }, {
        "url": "http://hl7.org/fhir/us/core/StructureDefinition/us-core-ethnicity",
        "extension": [ {
          "url": "ombCategory",
          "valueCoding": {
            "system": "urn:oid:2.16.840.1.113883.6.238",
            "code": "2135-2",
            "display": "Hispanic or Latino",
            "userSelected": true
          }
        }, {
          "url": "text",
          "valueString": "Hispanic or Latino"
        } ]
      } ],
      "identifier": [ {
        "type": {
          "coding": [ {
            "system": "http://terminology.hl7.org/CodeSystem/v2-0203",
            "code": "MR"
          } ]
        },
        "system": "https://bonnie-fhir.healthit.gov/",
        "value": "62d96413f0347d1abcae6c0b"
      } ],
      "name": [ {
        "family": "NUMERPassX2",
        "given": [ "2EncsSecondReferredPCP" ]
      } ],
      "gender": "male",
      "birthDate": "1976-12-31"
    }
  }, {
    "fullUrl": "https://madie.cms.gov/Encounter/7706da79-4e5c-4fc7-beed-cf348ebb3713",
    "resource": {
      "resourceType": "Encounter",
      "id": "7706da79-4e5c-4fc7-beed-cf348ebb3713",
      "meta": {
        "profile": [ "http://hl7.org/fhir/us/qicore/StructureDefinition/qicore-encounter" ]
      },
      "status": "finished",
      "class": {
        "system": "http://terminology.hl7.org/CodeSystem/v3-ActCode",
        "code": "AMB",
        "display": "ambulatory"
      },
      "type": [ {
        "coding": [ {
          "system": "http://snomed.info/sct",
          "version": "2022-03",
          "code": "103705002",
          "display": "Patient status observation (procedure)",
          "userSelected": true
        } ]
      } ],
      "subject": {
        "reference": "Patient/42d7a924-fba7-4820-9ca9-f12a588b4ad3"
      },
      "period": {
        "start": "2026-01-01T08:00:00.000Z",
        "end": "2026-01-01T08:45:00.000Z"
      }
    }
  }, {
    "fullUrl": "https://madie.cms.gov/ServiceRequest/8ebc56f8-289d-4e31-90e9-c528edbdc9a5",
    "resource": {
      "resourceType": "ServiceRequest",
      "id": "8ebc56f8-289d-4e31-90e9-c528edbdc9a5",
      "meta": {
        "profile": [ "http://hl7.org/fhir/us/qicore/StructureDefinition/qicore-servicerequest" ]
      },
      "status": "active",
      "intent": "order",
      "code": {
        "coding": [ {
          "system": "http://snomed.info/sct",
          "version": "2022-03",
          "code": "183617005",
          "display": "Follow-up 1 day (finding)",
          "userSelected": true
        } ]
      },
      "subject": {
        "reference": "Patient/42d7a924-fba7-4820-9ca9-f12a588b4ad3"
      },
      "authoredOn": "2026-01-01T08:40:00.000Z"
    }
  }, {
    "fullUrl": "https://madie.cms.gov/Encounter/1a92925f-db9a-411d-bd92-93b3d860c3fd",
    "resource": {
      "resourceType": "Encounter",
      "id": "1a92925f-db9a-411d-bd92-93b3d860c3fd",
      "meta": {
        "profile": [ "http://hl7.org/fhir/us/qicore/StructureDefinition/qicore-encounter" ]
      },
      "status": "finished",
      "class": {
        "system": "http://terminology.hl7.org/CodeSystem/v3-ActCode",
        "code": "AMB",
        "display": "ambulatory"
      },
      "type": [ {
        "coding": [ {
          "system": "http://snomed.info/sct",
          "version": "2022-03",
          "code": "103705002",
          "display": "Patient status observation (procedure)",
          "userSelected": true
        } ]
      } ],
      "subject": {
        "reference": "Patient/42d7a924-fba7-4820-9ca9-f12a588b4ad3"
      },
      "period": {
        "start": "2026-12-31T10:00:00.000Z",
        "end": "2026-12-31T10:45:00.000Z"
      }
    }
  }, {
    "fullUrl": "https://madie.cms.gov/ServiceRequest/1afe63c6-bc15-4d2e-9c1e-8c1795495fe1",
    "resource": {
      "resourceType": "ServiceRequest",
      "id": "1afe63c6-bc15-4d2e-9c1e-8c1795495fe1",
      "meta": {
        "profile": [ "http://hl7.org/fhir/us/qicore/StructureDefinition/qicore-servicerequest" ]
      },
      "status": "active",
      "intent": "order",
      "code": {
        "coding": [ {
          "system": "http://snomed.info/sct",
          "version": "2022-03",
          "code": "20093000",
          "display": "Alcohol rehabilitation and detoxification (regime/therapy)",
          "userSelected": true
        } ]
      },
      "subject": {
        "reference": "Patient/42d7a924-fba7-4820-9ca9-f12a588b4ad3"
      },
      "authoredOn": "2026-01-01T08:30:00.000Z"
    }
  }, {
    "fullUrl": "https://madie.cms.gov/ServiceRequest/cd11219c-eab4-434a-ab66-b3d635ba8c73",
    "resource": {
      "resourceType": "ServiceRequest",
      "id": "cd11219c-eab4-434a-ab66-b3d635ba8c73",
      "meta": {
        "profile": [ "http://hl7.org/fhir/us/qicore/StructureDefinition/qicore-servicerequest" ]
      },
      "status": "completed",
      "intent": "order",
      "code": {
        "coding": [ {
          "system": "http://snomed.info/sct",
          "version": "2022-03",
          "code": "134403003",
          "display": "Urgent referral (procedure)",
          "userSelected": true
        } ]
      },
      "subject": {
        "reference": "Patient/42d7a924-fba7-4820-9ca9-f12a588b4ad3"
      },
      "authoredOn": "2026-12-31T10:20:00.000Z",
      "reasonCode": [ {
        "coding": [ {
          "system": "http://hl7.org/fhir/sid/icd-10-cm",
          "code": "R03.0",
          "display": "Elevated blood-pressure reading, without diagnosis of hypertension",
          "userSelected": true
        } ]
      } ]
    }
  }, {
    "fullUrl": "https://madie.cms.gov/Observation/3e25d303-5477-4273-a69a-db2d2bc519e8",
    "resource": {
      "resourceType": "Observation",
      "id": "3e25d303-5477-4273-a69a-db2d2bc519e8",
      "meta": {
        "profile": [ "http://hl7.org/fhir/us/core/StructureDefinition/us-core-blood-pressure" ]
      },
      "status": "final",
      "category": [ {
        "coding": [ {
          "system": "http://terminology.hl7.org/CodeSystem/observation-category",
          "code": "vital-signs",
          "display": "Vital Signs"
        } ],
        "text": "Vital Signs"
      } ],
      "code": {
        "coding": [ {
          "system": "http://loinc.org",
          "code": "85354-9",
          "display": "Blood pressure panel with all children optional"
        } ]
      },
      "subject": {
        "reference": "Patient/42d7a924-fba7-4820-9ca9-f12a588b4ad3"
      },
      "effectiveDateTime": "2026-01-01T08:01:00.000Z",
      "component": [ {
        "code": {
          "coding": [ {
            "system": "http://loinc.org",
            "code": "8480-6",
            "display": "Systolic blood pressure"
          } ]
        },
        "valueQuantity": {
          "value": 130,
          "unit": "mmHg",
          "system": "http://unitsofmeasure.org",
          "code": "mm[Hg]"
        }
      }, {
        "code": {
          "coding": [ {
            "system": "http://loinc.org",
            "code": "8462-4",
            "display": "Diastolic blood pressure"
          } ]
        },
        "valueQuantity": {
          "value": 80,
          "unit": "mmHg",
          "system": "http://unitsofmeasure.org",
          "code": "mm[Hg]"
        }
      } ]
    }
  }, {
    "fullUrl": "https://madie.cms.gov/Observation/6a213895-247f-4de6-a6c9-1c20791638f9",
    "resource": {
      "resourceType": "Observation",
      "id": "6a213895-247f-4de6-a6c9-1c20791638f9",
      "meta": {
        "profile": [ "http://hl7.org/fhir/us/core/StructureDefinition/us-core-blood-pressure" ]
      },
      "status": "final",
      "category": [ {
        "coding": [ {
          "system": "http://terminology.hl7.org/CodeSystem/observation-category",
          "code": "vital-signs",
          "display": "Vital Signs"
        } ],
        "text": "Vital Signs"
      } ],
      "code": {
        "coding": [ {
          "system": "http://loinc.org",
          "code": "85354-9",
          "display": "Blood pressure panel with all children optional"
        } ]
      },
      "subject": {
        "reference": "Patient/42d7a924-fba7-4820-9ca9-f12a588b4ad3"
      },
      "effectiveDateTime": "2026-12-31T10:01:00.000Z",
      "component": [ {
        "code": {
          "coding": [ {
            "system": "http://loinc.org",
            "code": "8480-6",
            "display": "Systolic blood pressure"
          } ]
        },
        "valueQuantity": {
          "value": 139,
          "unit": "mmHg",
          "system": "http://unitsofmeasure.org",
          "code": "mm[Hg]"
        }
      }, {
        "code": {
          "coding": [ {
            "system": "http://loinc.org",
            "code": "8462-4",
            "display": "Diastolic blood pressure"
          } ]
        },
        "valueQuantity": {
          "value": 79,
          "unit": "mmHg",
          "system": "http://unitsofmeasure.org",
          "code": "mm[Hg]"
        }
      } ]
    }
  }, {
    "fullUrl": "https://madie.cms.gov/Coverage/f227a855-04f3-4898-9eab-a7c61fea850c",
    "resource": {
      "resourceType": "Coverage",
      "id": "f227a855-04f3-4898-9eab-a7c61fea850c",
      "meta": {
        "profile": [ "http://hl7.org/fhir/us/qicore/StructureDefinition/qicore-coverage" ]
      },
      "status": "active",
      "subscriberId": "84632156",
      "beneficiary": {
        "reference": "Patient/42d7a924-fba7-4820-9ca9-f12a588b4ad3"
      },
      "relationship": {
        "coding": [ {
          "system": "http://terminology.hl7.org/CodeSystem/subscriber-relationship",
          "code": "self",
          "display": "Self"
        } ]
      },
      "payor": [ {
        "reference": "Organization/ed780a73-a338-4bfe-bb15-cfdaad916d73"
      } ]
    }
  }, {
    "fullUrl": "https://madie.cms.gov/Organization/ed780a73-a338-4bfe-bb15-cfdaad916d73",
    "resource": {
      "resourceType": "Organization",
      "id": "ed780a73-a338-4bfe-bb15-cfdaad916d73",
      "meta": {
        "profile": [ "http://hl7.org/fhir/us/qicore/StructureDefinition/qicore-organization" ]
      },
      "identifier": [ {
        "use": "temp",
        "system": "urn:oid:2.16.840.1.113883.4.4",
        "value": "21-3259825"
      } ],
      "active": true,
      "type": [ {
        "coding": [ {
          "system": "http://terminology.hl7.org/CodeSystem/organization-type",
          "code": "pay",
          "display": "Payer"
        } ]
      } ],
      "name": "Blue Cross Blue Shield of Texas",
      "telecom": [ {
        "system": "phone",
        "value": "(+1) 972-766-6900"
      } ],
      "address": [ {
        "use": "billing",
        "type": "postal",
        "line": [ "P.O. Box 660044" ],
        "city": "Dallas",
        "state": "TX",
        "postalCode": "75266-0044",
        "country": "USA"
      } ]
    }
  }, {
    "fullUrl": "https://madie.cms.gov/MeasureReport/d712c105-0c51-49b0-90f8-b7252247e7b7",
    "resource": {
      "resourceType": "MeasureReport",
      "id": "d712c105-0c51-49b0-90f8-b7252247e7b7",
      "meta": {
        "profile": [ "http://hl7.org/fhir/us/cqfmeasures/StructureDefinition/test-case-cqfm" ]
      },
      "contained": [ {
        "resourceType": "Parameters",
        "id": "ea6ed239-3c6a-44f7-ac25-303265288100-parameters",
        "parameter": [ {
          "name": "subject",
          "valueString": "42d7a924-fba7-4820-9ca9-f12a588b4ad3"
        } ]
      } ],
      "extension": [ {
        "url": "http://hl7.org/fhir/StructureDefinition/cqf-inputParameters",
        "valueReference": {
          "reference": "#ea6ed239-3c6a-44f7-ac25-303265288100-parameters"
        }
      }, {
        "url": "http://hl7.org/fhir/us/cqfmeasures/StructureDefinition/cqfm-testCaseDescription",
        "valueMarkdown": "Age 18+, 1st enc 01/01 0800-0845 during MP,  BP 130/80, alcohol detox, \n2nd enc 12/31 1000-1045 during MP, BP139/79,  urgent referral"
      } ],
      "modifierExtension": [ {
        "url": "http://hl7.org/fhir/us/cqfmeasures/StructureDefinition/cqfm-isTestCase",
        "valueBoolean": true
      } ],
      "status": "complete",
      "type": "individual",
      "measure": "https://madie.cms.gov/Measure/CMS22FHIRPCSBPScreeningFollowUp",
      "period": {
        "start": "2026-01-01",
        "end": "2026-12-31"
      },
      "group": [ {
        "id": "Group_1",
        "population": [ {
          "id": "InitialPopulation_1",
          "code": {
            "coding": [ {
              "system": "http://terminology.hl7.org/CodeSystem/measure-population",
              "code": "initial-population",
              "display": "Initial Population"
            } ]
          },
          "count": 2
        }, {
          "id": "Denominator_1",
          "code": {
            "coding": [ {
              "system": "http://terminology.hl7.org/CodeSystem/measure-population",
              "code": "denominator",
              "display": "Denominator"
            } ]
          },
          "count": 2
        }, {
          "id": "DenominatorExclusion_1",
          "code": {
            "coding": [ {
              "system": "http://terminology.hl7.org/CodeSystem/measure-population",
              "code": "denominator-exclusion",
              "display": "Denominator Exclusion"
            } ]
          },
          "count": 0
        }, {
          "id": "Numerator_1",
          "code": {
            "coding": [ {
              "system": "http://terminology.hl7.org/CodeSystem/measure-population",
              "code": "numerator",
              "display": "Numerator"
            } ]
          },
          "count": 2
        }, {
          "id": "DenominatorException_1",
          "code": {
            "coding": [ {
              "system": "http://terminology.hl7.org/CodeSystem/measure-population",
              "code": "denominator-exception",
              "display": "Denominator Exception"
            } ]
          },
          "count": 0
        } ],
        "measureScore": {
          "value": 0.0
        }
      } ],
      "evaluatedResource": [ {
        "reference": "Patient/42d7a924-fba7-4820-9ca9-f12a588b4ad3"
      }, {
        "reference": "Encounter/7706da79-4e5c-4fc7-beed-cf348ebb3713"
      }, {
        "reference": "ServiceRequest/8ebc56f8-289d-4e31-90e9-c528edbdc9a5"
      }, {
        "reference": "Encounter/1a92925f-db9a-411d-bd92-93b3d860c3fd"
      }, {
        "reference": "ServiceRequest/1afe63c6-bc15-4d2e-9c1e-8c1795495fe1"
      }, {
        "reference": "ServiceRequest/cd11219c-eab4-434a-ab66-b3d635ba8c73"
      }, {
        "reference": "Observation/3e25d303-5477-4273-a69a-db2d2bc519e8"
      }, {
        "reference": "Observation/6a213895-247f-4de6-a6c9-1c20791638f9"
      }, {
        "reference": "Coverage/f227a855-04f3-4898-9eab-a7c61fea850c"
      }, {
        "reference": "Organization/ed780a73-a338-4bfe-bb15-cfdaad916d73"
      } ]
    }
  } ]
}