{
  "resourceType": "Bundle",
  "id": "555332cf414ba67d4e11vv2d",
  "type": "transaction",
  "entry": [ {
    "fullUrl": "https://madie.cms.gov/Patient/e7306701-863a-4d27-82e2-e0191ce995a5",
    "resource": {
      "resourceType": "Patient",
      "id": "e7306701-863a-4d27-82e2-e0191ce995a5",
      "meta": {
        "profile": [ "http://hl7.org/fhir/us/qicore/StructureDefinition/qicore-patient" ]
      },
      "extension": [ {
        "url": "http://hl7.org/fhir/us/core/StructureDefinition/us-core-race",
        "extension": [ {
          "url": "ombCategory",
          "valueCoding": {
            "system": "urn:oid:2.16.840.1.113883.6.238",
            "code": "1002-5",
            "display": "American Indian or Alaska Native",
            "userSelected": true
          }
        }, {
          "url": "text",
          "valueString": "American Indian or Alaska Native"
        } ]
      }, {
        "url": "http://hl7.org/fhir/us/core/StructureDefinition/us-core-ethnicity",
        "extension": [ {
          "url": "ombCategory",
          "valueCoding": {
            "system": "urn:oid:2.16.840.1.113883.6.238",
            "code": "2135-2",
            "display": "Hispanic or Latino",
            "userSelected": true
          }
        }, {
          "url": "text",
          "valueString": "Hispanic or Latino"
        } ]
      } ],
      "identifier": [ {
        "system": "http://hospital.smarthealthit.org",
        "value": "999999999"
      } ],
      "name": [ {
        "family": "DENEXFail",
        "given": [ "OrderForPalliativeCareMinAfterEnc" ]
      } ],
      "gender": "female",
      "birthDate": "2002-01-31"
    },
    "request": {
      "method": "PUT",
      "url": "Patient/e7306701-863a-4d27-82e2-e0191ce995a5"
    }
  }, {
    "fullUrl": "https://madie.cms.gov/Encounter/a89cb00f-eba3-4bb4-a947-fd887961ffe9",
    "resource": {
      "resourceType": "Encounter",
      "id": "a89cb00f-eba3-4bb4-a947-fd887961ffe9",
      "meta": {
        "profile": [ "http://hl7.org/fhir/us/qicore/StructureDefinition/qicore-encounter" ]
      },
      "status": "finished",
      "class": {
        "system": "http://terminology.hl7.org/CodeSystem/v3-ActCode",
        "code": "IMP",
        "display": "inpatient encounter"
      },
      "type": [ {
        "coding": [ {
          "system": "http://snomed.info/sct",
          "code": "183452005",
          "display": "Emergency hospital admission (procedure)",
          "userSelected": true
        } ]
      } ],
      "subject": {
        "reference": "Patient/e7306701-863a-4d27-82e2-e0191ce995a5"
      },
      "period": {
        "start": "2026-10-01T08:00:00.000+00:00",
        "end": "2026-10-04T08:15:00.000+00:00"
      }
    },
    "request": {
      "method": "PUT",
      "url": "Encounter/a89cb00f-eba3-4bb4-a947-fd887961ffe9"
    }
  }, {
    "fullUrl": "https://madie.cms.gov/MedicationRequest/334a7532-45bc-49db-af85-2c4e42a52ec7",
    "resource": {
      "resourceType": "MedicationRequest",
      "id": "334a7532-45bc-49db-af85-2c4e42a52ec7",
      "meta": {
        "profile": [ "http://hl7.org/fhir/us/qicore/StructureDefinition/qicore-medicationrequest" ]
      },
      "status": "active",
      "intent": "order",
      "category": [ {
        "coding": [ {
          "system": "http://terminology.hl7.org/CodeSystem/medicationrequest-category",
          "code": "discharge",
          "display": "Discharge",
          "userSelected": true
        } ]
      } ],
      "doNotPerform": false,
      "medicationCodeableConcept": {
        "coding": [ {
          "system": "http://www.nlm.nih.gov/research/umls/rxnorm",
          "code": "1298088",
          "display": "flurazepam hydrochloride 15 MG Oral Capsule",
          "userSelected": true
        } ]
      },
      "subject": {
        "reference": "Patient/e7306701-863a-4d27-82e2-e0191ce995a5"
      },
      "authoredOn": "2026-10-04T08:15:00.000+00:00",
      "requester": {
        "reference": "Practitioner/d7119e99-36f1-453f-b83f-446bfd849e16"
      }
    },
    "request": {
      "method": "PUT",
      "url": "MedicationRequest/334a7532-45bc-49db-af85-2c4e42a52ec7"
    }
  }, {
    "fullUrl": "https://madie.cms.gov/Practitioner/d7119e99-36f1-453f-b83f-446bfd849e16",
    "resource": {
      "resourceType": "Practitioner",
      "id": "d7119e99-36f1-453f-b83f-446bfd849e16",
      "meta": {
        "profile": [ "http://hl7.org/fhir/us/qicore/StructureDefinition/qicore-practitioner" ]
      },
      "identifier": [ {
        "system": "http://hl7.org/fhir/sid/us-npi",
        "value": "9999999896"
      } ],
      "active": true,
      "name": [ {
        "family": "Ramires",
        "given": [ "Alma" ],
        "prefix": [ "Dr" ]
      } ],
      "address": [ {
        "use": "home",
        "line": [ "534 Erewhon St" ],
        "city": "Netherville",
        "state": "IN",
        "postalCode": "46131"
      } ],
      "qualification": [ {
        "identifier": [ {
          "system": "http://goodhealth.org/prIdentifier",
          "value": "12345"
        } ],
        "code": {
          "coding": [ {
            "system": "http://terminology.hl7.org/CodeSystem/v2-0360|2.7",
            "code": "BS",
            "display": "Bachelor of Science"
          } ],
          "text": "Bachelor of Science"
        },
        "period": {
          "start": "1995"
        },
        "issuer": {
          "display": "Example University"
        }
      } ]
    },
    "request": {
      "method": "PUT",
      "url": "Practitioner/d7119e99-36f1-453f-b83f-446bfd849e16"
    }
  }, {
    "fullUrl": "https://madie.cms.gov/ServiceRequest/48877870-9330-4f54-a052-dceb7dd32ff1",
    "resource": {
      "resourceType": "ServiceRequest",
      "id": "48877870-9330-4f54-a052-dceb7dd32ff1",
      "meta": {
        "profile": [ "http://hl7.org/fhir/us/qicore/StructureDefinition/qicore-servicerequest" ]
      },
      "status": "active",
      "intent": "order",
      "code": {
        "coding": [ {
          "system": "http://snomed.info/sct",
          "code": "103735009",
          "display": "Palliative care (regime/therapy)",
          "userSelected": true
        } ]
      },
      "subject": {
        "reference": "Patient/e7306701-863a-4d27-82e2-e0191ce995a5"
      },
      "authoredOn": "2026-10-04T08:16:00.000+00:00"
    },
    "request": {
      "method": "PUT",
      "url": "ServiceRequest/48877870-9330-4f54-a052-dceb7dd32ff1"
    }
  }, {
    "fullUrl": "https://madie.cms.gov/Coverage/7680ed7e-ca22-4a73-9e12-e6c7d44345b3",
    "resource": {
      "resourceType": "Coverage",
      "id": "7680ed7e-ca22-4a73-9e12-e6c7d44345b3",
      "meta": {
        "profile": [ "http://hl7.org/fhir/us/qicore/StructureDefinition/qicore-coverage" ]
      },
      "status": "active",
      "subscriberId": "523435",
      "beneficiary": {
        "reference": "Patient/e7306701-863a-4d27-82e2-e0191ce995a5"
      },
      "relationship": {
        "coding": [ {
          "system": "http://terminology.hl7.org/CodeSystem/subscriber-relationship",
          "code": "self"
        } ]
      },
      "payor": [ {
        "reference": "Organization/9667253b-2563-4471-9454-8689ba75b2eb"
      } ]
    },
    "request": {
      "method": "PUT",
      "url": "Coverage/7680ed7e-ca22-4a73-9e12-e6c7d44345b3"
    }
  }, {
    "fullUrl": "https://madie.cms.gov/Organization/9667253b-2563-4471-9454-8689ba75b2eb",
    "resource": {
      "resourceType": "Organization",
      "id": "9667253b-2563-4471-9454-8689ba75b2eb",
      "meta": {
        "profile": [ "http://hl7.org/fhir/us/qicore/StructureDefinition/qicore-organization" ]
      },
      "identifier": [ {
        "use": "temp",
        "system": "urn:oid:2.16.840.1.113883.4.4",
        "value": "21-3259825"
      } ],
      "active": true,
      "type": [ {
        "coding": [ {
          "system": "http://terminology.hl7.org/CodeSystem/organization-type",
          "code": "pay",
          "display": "Payer"
        } ]
      } ],
      "name": "Blue Cross Blue Shield of Texas",
      "telecom": [ {
        "system": "phone",
        "value": "(+1) 972-766-6900"
      } ],
      "address": [ {
        "use": "billing",
        "type": "postal",
        "line": [ "P.O. Box 660044" ],
        "city": "Dallas",
        "state": "TX",
        "postalCode": "75266-0044",
        "country": "USA"
      } ]
    },
    "request": {
      "method": "PUT",
      "url": "Organization/9667253b-2563-4471-9454-8689ba75b2eb"
    }
  }, {
    "fullUrl": "https://madie.cms.gov/MeasureReport/b8004217-3dff-46aa-b018-ee78102ca2a4",
    "resource": {
      "resourceType": "MeasureReport",
      "id": "b8004217-3dff-46aa-b018-ee78102ca2a4",
      "meta": {
        "profile": [ "http://hl7.org/fhir/us/cqfmeasures/StructureDefinition/test-case-cqfm" ]
      },
      "contained": [ {
        "resourceType": "Parameters",
        "id": "72859aa1-66e9-4b55-bd87-eebbcbf75944-parameters",
        "parameter": [ {
          "name": "subject",
          "valueString": "e7306701-863a-4d27-82e2-e0191ce995a5"
        } ]
      } ],
      "extension": [ {
        "url": "http://hl7.org/fhir/StructureDefinition/cqf-inputParameters",
        "valueReference": {
          "reference": "#72859aa1-66e9-4b55-bd87-eebbcbf75944-parameters"
        }
      }, {
        "url": "http://hl7.org/fhir/us/cqfmeasures/StructureDefinition/cqfm-testCaseDescription",
        "valueMarkdown": "Encounter 10/1 - 10/4 0815 during MP, 1 opioid ordered at discharge, has order for palliative care one minute (0816) after enc end"
      } ],
      "modifierExtension": [ {
        "url": "http://hl7.org/fhir/us/cqfmeasures/StructureDefinition/cqfm-isTestCase",
        "valueBoolean": true
      } ],
      "status": "complete",
      "type": "individual",
      "measure": "https://madie.cms.gov/Measure/CMS506FHIRSafeUseofOpioids",
      "period": {
        "start": "2026-01-01",
        "end": "2026-12-31"
      },
      "group": [ {
        "id": "Group_1",
        "population": [ {
          "id": "InitialPopulation_1",
          "code": {
            "coding": [ {
              "system": "http://terminology.hl7.org/CodeSystem/measure-population",
              "code": "initial-population",
              "display": "Initial Population"
            } ]
          },
          "count": 1
        }, {
          "id": "Denominator_1",
          "code": {
            "coding": [ {
              "system": "http://terminology.hl7.org/CodeSystem/measure-population",
              "code": "denominator",
              "display": "Denominator"
            } ]
          },
          "count": 1
        }, {
          "id": "DenominatorExclusion_1",
          "code": {
            "coding": [ {
              "system": "http://terminology.hl7.org/CodeSystem/measure-population",
              "code": "denominator-exclusion",
              "display": "Denominator Exclusion"
            } ]
          },
          "count": 0
        }, {
          "id": "Numerator_1",
          "code": {
            "coding": [ {
              "system": "http://terminology.hl7.org/CodeSystem/measure-population",
              "code": "numerator",
              "display": "Numerator"
            } ]
          },
          "count": 0
        } ],
        "measureScore": {
          "value": 0.0
        }
      } ],
      "evaluatedResource": [ {
        "reference": "Patient/e7306701-863a-4d27-82e2-e0191ce995a5"
      }, {
        "reference": "Encounter/a89cb00f-eba3-4bb4-a947-fd887961ffe9"
      }, {
        "reference": "MedicationRequest/334a7532-45bc-49db-af85-2c4e42a52ec7"
      }, {
        "reference": "Practitioner/d7119e99-36f1-453f-b83f-446bfd849e16"
      }, {
        "reference": "ServiceRequest/48877870-9330-4f54-a052-dceb7dd32ff1"
      }, {
        "reference": "Coverage/7680ed7e-ca22-4a73-9e12-e6c7d44345b3"
      }, {
        "reference": "Organization/9667253b-2563-4471-9454-8689ba75b2eb"
      } ]
    },
    "request": {
      "method": "PUT",
      "url": "MeasureReport/b8004217-3dff-46aa-b018-ee78102ca2a4"
    }
  } ]
}