{
  "resourceType": "Bundle",
  "id": "62c880ec0111a60120dc2203",
  "type": "transaction",
  "entry": [ {
    "fullUrl": "https://madie.cms.gov/Patient/a521979b-9bae-48cf-893d-26b6abef5ce6",
    "resource": {
      "resourceType": "Patient",
      "id": "a521979b-9bae-48cf-893d-26b6abef5ce6",
      "meta": {
        "profile": [ "http://hl7.org/fhir/us/qicore/StructureDefinition/qicore-patient" ]
      },
      "text": {
        "status": "generated",
        "div": "<div xmlns=\"http://www.w3.org/1999/xhtml\"><div class=\"hapiHeaderText\">Chemo31DaysPriorEnc<b>IPPFailPop1</b></div><table class=\"hapiPropertyTable\"><tbody><tr><td>Identifier</td><td>ff3925b673f4a036a257dd80aff86021</td></tr><tr><td>Date of birth</td><td><span>18 September 1931</span></td></tr></tbody></table></div>"
      },
      "extension": [ {
        "url": "http://hl7.org/fhir/us/core/StructureDefinition/us-core-race",
        "extension": [ {
          "url": "ombCategory",
          "valueCoding": {
            "system": "urn:oid:2.16.840.1.113883.6.238",
            "code": "1002-5",
            "display": "American Indian or Alaska Native",
            "userSelected": true
          }
        }, {
          "url": "text",
          "valueString": "American Indian or Alaska Native"
        } ]
      }, {
        "url": "http://hl7.org/fhir/us/core/StructureDefinition/us-core-ethnicity",
        "extension": [ {
          "url": "ombCategory",
          "valueCoding": {
            "system": "urn:oid:2.16.840.1.113883.6.238",
            "code": "2135-2",
            "display": "Hispanic or Latino",
            "userSelected": true
          }
        }, {
          "url": "text",
          "valueString": "Hispanic or Latino"
        } ]
      } ],
      "identifier": [ {
        "type": {
          "coding": [ {
            "system": "http://terminology.hl7.org/CodeSystem/v2-0203",
            "code": "MR"
          } ]
        },
        "system": "https://bonnie-fhir.healthit.gov/",
        "value": "62c880ec0111a60120dc2203"
      } ],
      "active": true,
      "name": [ {
        "use": "usual",
        "family": "IPPFailPop1",
        "given": [ "ChemoOver30DaysPriorEnc" ]
      } ],
      "gender": "male",
      "birthDate": "1932-09-18"
    },
    "request": {
      "method": "PUT",
      "url": "Patient/a521979b-9bae-48cf-893d-26b6abef5ce6"
    }
  }, {
    "fullUrl": "https://madie.cms.gov/Condition/0a04dcd3-0c17-43d5-8e12-047ed0e7ec1c",
    "resource": {
      "resourceType": "Condition",
      "id": "0a04dcd3-0c17-43d5-8e12-047ed0e7ec1c",
      "meta": {
        "profile": [ "http://hl7.org/fhir/us/qicore/StructureDefinition/qicore-condition" ]
      },
      "clinicalStatus": {
        "coding": [ {
          "system": "http://terminology.hl7.org/CodeSystem/condition-clinical",
          "code": "active",
          "display": "Active"
        } ]
      },
      "verificationStatus": {
        "coding": [ {
          "system": "http://terminology.hl7.org/CodeSystem/condition-ver-status",
          "code": "confirmed",
          "display": "Confirmed"
        } ]
      },
      "category": [ {
        "coding": [ {
          "system": "http://terminology.hl7.org/CodeSystem/condition-category",
          "code": "problem-list-item",
          "display": "Problem List Item"
        } ]
      } ],
      "code": {
        "coding": [ {
          "system": "http://snomed.info/sct",
          "code": "423746001"
        } ]
      },
      "subject": {
        "reference": "Patient/a521979b-9bae-48cf-893d-26b6abef5ce6"
      },
      "onsetDateTime": "2010-10-05T13:00:00.000+00:00"
    },
    "request": {
      "method": "PUT",
      "url": "Condition/0a04dcd3-0c17-43d5-8e12-047ed0e7ec1c"
    }
  }, {
    "fullUrl": "https://madie.cms.gov/Encounter/6f52e7fa-b44f-41ec-814f-4cf41abe3ed7",
    "resource": {
      "resourceType": "Encounter",
      "id": "6f52e7fa-b44f-41ec-814f-4cf41abe3ed7",
      "meta": {
        "profile": [ "http://hl7.org/fhir/us/qicore/StructureDefinition/qicore-encounter" ]
      },
      "status": "finished",
      "class": {
        "system": "http://terminology.hl7.org/CodeSystem/v3-ActCode",
        "code": "AMB",
        "display": "ambulatory",
        "userSelected": true
      },
      "type": [ {
        "coding": [ {
          "system": "http://snomed.info/sct",
          "code": "185463005"
        } ]
      } ],
      "subject": {
        "reference": "Patient/a521979b-9bae-48cf-893d-26b6abef5ce6"
      },
      "period": {
        "start": "2026-04-01T13:30:00.000+00:00",
        "end": "2026-04-01T13:30:00.000+00:00"
      }
    },
    "request": {
      "method": "PUT",
      "url": "Encounter/6f52e7fa-b44f-41ec-814f-4cf41abe3ed7"
    }
  }, {
    "fullUrl": "https://madie.cms.gov/Coverage/213251dc-a3e4-4064-9317-290e2d15fd31",
    "resource": {
      "resourceType": "Coverage",
      "id": "213251dc-a3e4-4064-9317-290e2d15fd31",
      "meta": {
        "profile": [ "http://hl7.org/fhir/us/qicore/StructureDefinition/qicore-coverage" ]
      },
      "status": "active",
      "beneficiary": {
        "reference": "Patient/a521979b-9bae-48cf-893d-26b6abef5ce6"
      },
      "period": {
        "start": "1932-09-18T08:00:00.000+00:00"
      },
      "payor": [ {
        "reference": "Organization/bc31e3da-22fb-481e-a28e-3ed1943d56ba"
      } ]
    },
    "request": {
      "method": "PUT",
      "url": "Coverage/213251dc-a3e4-4064-9317-290e2d15fd31"
    }
  }, {
    "fullUrl": "https://madie.cms.gov/Procedure/2fd7c992-1dbc-4bdb-8d41-4119a2b337d2",
    "resource": {
      "resourceType": "Procedure",
      "id": "2fd7c992-1dbc-4bdb-8d41-4119a2b337d2",
      "meta": {
        "profile": [ "http://hl7.org/fhir/us/qicore/StructureDefinition/qicore-procedure" ]
      },
      "extension": [ {
        "url": "http://hl7.org/fhir/us/qicore/StructureDefinition/qicore-recorded",
        "valueDateTime": "2026-03-01T14:35:00.000+00:00"
      } ],
      "status": "completed",
      "code": {
        "coding": [ {
          "system": "http://snomed.info/sct",
          "code": "169396008"
        } ]
      },
      "subject": {
        "reference": "Patient/a521979b-9bae-48cf-893d-26b6abef5ce6"
      },
      "performedPeriod": {
        "start": "2026-03-01T14:00:00.000+00:00",
        "end": "2026-03-01T14:00:00.000+00:00"
      }
    },
    "request": {
      "method": "PUT",
      "url": "Procedure/2fd7c992-1dbc-4bdb-8d41-4119a2b337d2"
    }
  }, {
    "fullUrl": "https://madie.cms.gov/Procedure/eebc6866-9171-4066-a0f4-c4bc80ddb177",
    "resource": {
      "resourceType": "Procedure",
      "id": "eebc6866-9171-4066-a0f4-c4bc80ddb177",
      "meta": {
        "profile": [ "http://hl7.org/fhir/us/qicore/StructureDefinition/qicore-procedure" ]
      },
      "extension": [ {
        "url": "http://hl7.org/fhir/us/qicore/StructureDefinition/qicore-recorded",
        "valueDateTime": "2026-04-22T14:35:00.000+00:00"
      } ],
      "status": "completed",
      "code": {
        "coding": [ {
          "system": "http://snomed.info/sct",
          "code": "169396008"
        } ]
      },
      "subject": {
        "reference": "Patient/a521979b-9bae-48cf-893d-26b6abef5ce6"
      },
      "performedPeriod": {
        "start": "2026-04-22T14:30:00.000+00:00",
        "end": "2026-04-22T14:30:00.000+00:00"
      }
    },
    "request": {
      "method": "PUT",
      "url": "Procedure/eebc6866-9171-4066-a0f4-c4bc80ddb177"
    }
  }, {
    "fullUrl": "https://madie.cms.gov/Organization/bc31e3da-22fb-481e-a28e-3ed1943d56ba",
    "resource": {
      "resourceType": "Organization",
      "id": "bc31e3da-22fb-481e-a28e-3ed1943d56ba",
      "meta": {
        "profile": [ "http://hl7.org/fhir/us/qicore/StructureDefinition/qicore-organization" ]
      },
      "identifier": [ {
        "use": "temp",
        "system": "urn:oid:2.16.840.1.113883.4.4",
        "value": "21-3259825"
      } ],
      "active": true,
      "type": [ {
        "coding": [ {
          "system": "http://terminology.hl7.org/CodeSystem/organization-type",
          "code": "pay",
          "display": "Payer"
        } ]
      } ],
      "name": "Blue Cross Blue Shield of Texas",
      "telecom": [ {
        "system": "phone",
        "value": "(+1) 972-766-6900"
      } ],
      "address": [ {
        "use": "billing",
        "type": "postal",
        "line": [ "P.O. Box 660044" ],
        "city": "Dallas",
        "state": "TX",
        "postalCode": "75266-0044",
        "country": "USA"
      } ]
    },
    "request": {
      "method": "PUT",
      "url": "Organization/bc31e3da-22fb-481e-a28e-3ed1943d56ba"
    }
  }, {
    "fullUrl": "https://madie.cms.gov/Practitioner/a5e7eb89-1753-4367-b102-4c78058e3163",
    "resource": {
      "resourceType": "Practitioner",
      "id": "a5e7eb89-1753-4367-b102-4c78058e3163",
      "meta": {
        "profile": [ "http://hl7.org/fhir/us/qicore/StructureDefinition/qicore-practitioner" ]
      },
      "identifier": [ {
        "system": "http://hl7.org/fhir/sid/us-npi",
        "value": "123456"
      } ],
      "name": [ {
        "family": "Evil",
        "prefix": [ "Dr" ]
      } ]
    },
    "request": {
      "method": "PUT",
      "url": "Practitioner/a5e7eb89-1753-4367-b102-4c78058e3163"
    }
  }, {
    "fullUrl": "https://madie.cms.gov/MeasureReport/8d1ba906-1d7c-4a9f-9901-8b93a8612323",
    "resource": {
      "resourceType": "MeasureReport",
      "id": "8d1ba906-1d7c-4a9f-9901-8b93a8612323",
      "meta": {
        "profile": [ "http://hl7.org/fhir/us/cqfmeasures/StructureDefinition/test-case-cqfm" ]
      },
      "contained": [ {
        "resourceType": "Parameters",
        "id": "ebe04fe2-b04b-46d6-91c5-f4a21ddcb7dd-parameters",
        "parameter": [ {
          "name": "subject",
          "valueString": "a521979b-9bae-48cf-893d-26b6abef5ce6"
        } ]
      } ],
      "extension": [ {
        "url": "http://hl7.org/fhir/StructureDefinition/cqf-inputParameters",
        "valueReference": {
          "reference": "#ebe04fe2-b04b-46d6-91c5-f4a21ddcb7dd-parameters"
        }
      }, {
        "url": "http://hl7.org/fhir/us/cqfmeasures/StructureDefinition/cqfm-testCaseDescription",
        "valueMarkdown": "Patient with cancer diagnosis that overlaps the office visit during measurement period, but first chemo was administered 31 days before office visit. \n"
      } ],
      "modifierExtension": [ {
        "url": "http://hl7.org/fhir/us/cqfmeasures/StructureDefinition/cqfm-isTestCase",
        "valueBoolean": true
      } ],
      "status": "complete",
      "type": "individual",
      "measure": "https://madie.cms.gov/Measure/CMS157FHIRPainIntensityQuantified",
      "period": {
        "start": "2026-01-01",
        "end": "2026-12-31"
      },
      "group": [ {
        "id": "Group_1",
        "population": [ {
          "id": "InitialPopulation_1",
          "code": {
            "coding": [ {
              "system": "http://terminology.hl7.org/CodeSystem/measure-population",
              "code": "initial-population",
              "display": "Initial Population"
            } ]
          },
          "count": 0
        }, {
          "id": "Denominator_1",
          "code": {
            "coding": [ {
              "system": "http://terminology.hl7.org/CodeSystem/measure-population",
              "code": "denominator",
              "display": "Denominator"
            } ]
          },
          "count": 0
        }, {
          "id": "Numerator_1",
          "code": {
            "coding": [ {
              "system": "http://terminology.hl7.org/CodeSystem/measure-population",
              "code": "numerator",
              "display": "Numerator"
            } ]
          },
          "count": 0
        } ],
        "measureScore": {
          "value": 0.0
        }
      }, {
        "id": "Group_2",
        "population": [ {
          "id": "InitialPopulation_2",
          "code": {
            "coding": [ {
              "system": "http://terminology.hl7.org/CodeSystem/measure-population",
              "code": "initial-population",
              "display": "Initial Population"
            } ]
          },
          "count": 0
        }, {
          "id": "Denominator_2",
          "code": {
            "coding": [ {
              "system": "http://terminology.hl7.org/CodeSystem/measure-population",
              "code": "denominator",
              "display": "Denominator"
            } ]
          },
          "count": 0
        }, {
          "id": "Numerator_2",
          "code": {
            "coding": [ {
              "system": "http://terminology.hl7.org/CodeSystem/measure-population",
              "code": "numerator",
              "display": "Numerator"
            } ]
          },
          "count": 0
        } ],
        "measureScore": {
          "value": 0.0
        }
      } ],
      "evaluatedResource": [ {
        "reference": "Patient/a521979b-9bae-48cf-893d-26b6abef5ce6"
      }, {
        "reference": "Condition/0a04dcd3-0c17-43d5-8e12-047ed0e7ec1c"
      }, {
        "reference": "Encounter/6f52e7fa-b44f-41ec-814f-4cf41abe3ed7"
      }, {
        "reference": "Coverage/213251dc-a3e4-4064-9317-290e2d15fd31"
      }, {
        "reference": "Procedure/2fd7c992-1dbc-4bdb-8d41-4119a2b337d2"
      }, {
        "reference": "Procedure/eebc6866-9171-4066-a0f4-c4bc80ddb177"
      }, {
        "reference": "Organization/bc31e3da-22fb-481e-a28e-3ed1943d56ba"
      }, {
        "reference": "Practitioner/a5e7eb89-1753-4367-b102-4c78058e3163"
      } ]
    },
    "request": {
      "method": "PUT",
      "url": "MeasureReport/8d1ba906-1d7c-4a9f-9901-8b93a8612323"
    }
  } ]
}