{
  "resourceType": "Bundle",
  "id": "60f82c2e98086b570510e28e",
  "type": "transaction",
  "entry": [ {
    "fullUrl": "https://madie.cms.gov/Patient/a938e0ff-51b3-4001-b33e-5fd2c00a9147",
    "resource": {
      "resourceType": "Patient",
      "id": "a938e0ff-51b3-4001-b33e-5fd2c00a9147",
      "meta": {
        "profile": [ "http://hl7.org/fhir/us/qicore/StructureDefinition/qicore-patient" ]
      },
      "text": {
        "status": "generated",
        "div": "<div xmlns=\"http://www.w3.org/1999/xhtml\"><div class=\"hapiHeaderText\">MedAntithromboticStart_eq0dayAtEdStart <b>NUMERPASS </b></div><table class=\"hapiPropertyTable\"><tbody><tr><td>Identifier</td><td>168b1b1f52f949d3490002df317e49f8</td></tr><tr><td>Date of birth</td><td><span>26 September 1975</span></td></tr></tbody></table></div>"
      },
      "extension": [ {
        "url": "http://hl7.org/fhir/us/core/StructureDefinition/us-core-race",
        "extension": [ {
          "url": "ombCategory",
          "valueCoding": {
            "system": "urn:oid:2.16.840.1.113883.6.238",
            "code": "2054-5",
            "display": "Black or African American",
            "userSelected": true
          }
        }, {
          "url": "text",
          "valueString": "Black or African American"
        } ]
      }, {
        "url": "http://hl7.org/fhir/us/core/StructureDefinition/us-core-ethnicity",
        "extension": [ {
          "url": "ombCategory",
          "valueCoding": {
            "system": "urn:oid:2.16.840.1.113883.6.238",
            "code": "2186-5",
            "display": "Not Hispanic or Latino",
            "userSelected": true
          }
        }, {
          "url": "text",
          "valueString": "Not Hispanic or Latino"
        } ]
      } ],
      "identifier": [ {
        "type": {
          "coding": [ {
            "system": "http://terminology.hl7.org/CodeSystem/v2-0203",
            "code": "MR"
          } ]
        },
        "system": "https://bonnie-fhir.healthit.gov/",
        "value": "60f82c2e98086b570510e28e"
      } ],
      "active": true,
      "name": [ {
        "use": "usual",
        "family": "NUMERPass",
        "given": [ "MedAntithromboticStarteq0dayAtEdStart" ]
      } ],
      "gender": "female",
      "birthDate": "1976-09-26"
    },
    "request": {
      "method": "PUT",
      "url": "Patient/a938e0ff-51b3-4001-b33e-5fd2c00a9147"
    }
  }, {
    "fullUrl": "https://madie.cms.gov/Encounter/c9cee63b-1e2c-428f-b027-addf814ac2f6",
    "resource": {
      "resourceType": "Encounter",
      "id": "c9cee63b-1e2c-428f-b027-addf814ac2f6",
      "meta": {
        "profile": [ "http://hl7.org/fhir/us/qicore/StructureDefinition/qicore-encounter" ]
      },
      "status": "finished",
      "class": {
        "system": "http://terminology.hl7.org/CodeSystem/v3-ActCode",
        "code": "EMER",
        "display": "emergency"
      },
      "type": [ {
        "coding": [ {
          "system": "http://snomed.info/sct",
          "code": "4525004"
        } ]
      } ],
      "subject": {
        "reference": "Patient/a938e0ff-51b3-4001-b33e-5fd2c00a9147"
      },
      "period": {
        "start": "2026-10-10T06:00:00.000+00:00",
        "end": "2026-10-10T08:30:00.000+00:00"
      },
      "length": {
        "value": 0,
        "unit": "days"
      }
    },
    "request": {
      "method": "PUT",
      "url": "Encounter/c9cee63b-1e2c-428f-b027-addf814ac2f6"
    }
  }, {
    "fullUrl": "https://madie.cms.gov/Encounter/e2304c8b-ac56-4543-9aa0-98458e10cc78",
    "resource": {
      "resourceType": "Encounter",
      "id": "e2304c8b-ac56-4543-9aa0-98458e10cc78",
      "meta": {
        "profile": [ "http://hl7.org/fhir/us/qicore/StructureDefinition/qicore-encounter" ]
      },
      "status": "finished",
      "class": {
        "system": "http://terminology.hl7.org/CodeSystem/v3-ActCode",
        "code": "IMP",
        "display": "inpatient encounter"
      },
      "type": [ {
        "coding": [ {
          "system": "http://snomed.info/sct",
          "code": "32485007"
        } ]
      } ],
      "subject": {
        "reference": "Patient/a938e0ff-51b3-4001-b33e-5fd2c00a9147"
      },
      "period": {
        "start": "2026-10-10T09:00:00.000+00:00",
        "end": "2026-10-12T11:30:00.000+00:00"
      },
      "length": {
        "value": 2,
        "unit": "days"
      },
      "reasonReference": [ {
        "reference": "Condition/ad11bd9a-2297-4a59-a7d5-f22188278fa7"
      } ]
    },
    "request": {
      "method": "PUT",
      "url": "Encounter/e2304c8b-ac56-4543-9aa0-98458e10cc78"
    }
  }, {
    "fullUrl": "https://madie.cms.gov/claim/5ca62962b8484628b8de1ec5",
    "resource": {
      "resourceType": "Claim",
      "id": "5ca62962b8484628b8de1ec5",
      "meta": {
        "profile": [ "http://hl7.org/fhir/us/qicore/StructureDefinition/qicore-claim" ]
      },
      "status": "active",
      "type": {
        "coding": [ {
          "system": "http://terminology.hl7.org/CodeSystem/claim-type",
          "code": "institutional"
        } ]
      },
      "use": "claim",
      "patient": {
        "reference": "Patient/d170a0a8-b5ad-4303-b6df-e304dd5f92ad"
      },
      "created": "2026-12-01",
      "provider": {
        "reference": "Practitioner/2c3f6065-027b-4268-acfd-97a1f38d2ab1"
      },
      "priority": {
        "coding": [ {
          "system": "http://terminology.hl7.org/CodeSystem/processpriority",
          "code": "normal"
        } ]
      },
      "diagnosis": [ {
        "sequence": 1,
        "diagnosisCodeableConcept": {
          "coding": [ {
            "system": "http://hl7.org/fhir/sid/icd-10-cm",
            "code": "I63.00"
          } ]
        },
        "type": [ {
          "coding": [ {
            "system": "http://terminology.hl7.org/CodeSystem/ex-diagnosistype",
            "code": "principal"
          } ]
        } ]
      } ],
      "insurance": [ {
        "sequence": 1,
        "focal": true,
        "coverage": {
          "reference": "Coverage/5fa041661c76ba66d9959367"
        }
      } ],
      "item": [ {
        "sequence": 1,
        "diagnosisSequence": [ 1 ],
        "productOrService": {
          "coding": [ {
            "system": "http://terminology.hl7.org/CodeSystem/ex-USCLS",
            "code": "99555"
          } ]
        },
        "encounter": [ {
          "reference": "Encounter/e2304c8b-ac56-4543-9aa0-98458e10cc78"
        } ]
      } ]
    },
    "request": {
      "method": "PUT",
      "url": "Claim/5ca62962b8484628b8de1ec5"
    }
  }, {
    "fullUrl": "https://madie.cms.gov/MedicationAdministration/e39aa8d1-a60a-40bd-ac41-f9b1c81f9661",
    "resource": {
      "resourceType": "MedicationAdministration",
      "id": "e39aa8d1-a60a-40bd-ac41-f9b1c81f9661",
      "meta": {
        "profile": [ "http://hl7.org/fhir/us/qicore/StructureDefinition/qicore-medicationadministration" ]
      },
      "status": "completed",
      "medicationCodeableConcept": {
        "coding": [ {
          "system": "http://www.nlm.nih.gov/research/umls/rxnorm",
          "code": "1037045"
        } ]
      },
      "subject": {
        "reference": "Patient/a938e0ff-51b3-4001-b33e-5fd2c00a9147"
      },
      "effectivePeriod": {
        "start": "2026-10-10T06:00:00.000+00:00",
        "end": "2026-10-10T07:20:00.000+00:00"
      }
    },
    "request": {
      "method": "PUT",
      "url": "MedicationAdministration/e39aa8d1-a60a-40bd-ac41-f9b1c81f9661"
    }
  }, {
    "fullUrl": "https://madie.cms.gov/Coverage/25ca3b59-d4a4-4765-9bdb-fb1bccac74da",
    "resource": {
      "resourceType": "Coverage",
      "id": "25ca3b59-d4a4-4765-9bdb-fb1bccac74da",
      "status": "active",
      "subscriberId": "523435",
      "beneficiary": {
        "reference": "Patient/a938e0ff-51b3-4001-b33e-5fd2c00a9147"
      },
      "relationship": {
        "coding": [ {
          "system": "http://terminology.hl7.org/CodeSystem/subscriber-relationship",
          "code": "self"
        } ]
      },
      "period": {
        "start": "1976-09-26T08:00:00.000+00:00"
      },
      "payor": [ {
        "reference": "Organization/0f64a03f-c362-4a17-8c1b-864442bd238b"
      } ]
    },
    "request": {
      "method": "PUT",
      "url": "Coverage/25ca3b59-d4a4-4765-9bdb-fb1bccac74da"
    }
  }, {
    "fullUrl": "https://madie.cms.gov/Condition/ad11bd9a-2297-4a59-a7d5-f22188278fa7",
    "resource": {
      "resourceType": "Condition",
      "id": "ad11bd9a-2297-4a59-a7d5-f22188278fa7",
      "meta": {
        "profile": [ "http://hl7.org/fhir/us/qicore/StructureDefinition/qicore-condition-problems-health-concerns" ]
      },
      "clinicalStatus": {
        "coding": [ {
          "system": "http://terminology.hl7.org/CodeSystem/condition-clinical",
          "code": "active"
        } ]
      },
      "verificationStatus": {
        "coding": [ {
          "system": "http://terminology.hl7.org/CodeSystem/condition-ver-status",
          "code": "confirmed"
        } ]
      },
      "category": [ {
        "coding": [ {
          "system": "http://terminology.hl7.org/CodeSystem/condition-category",
          "code": "encounter-diagnosis",
          "display": "Encounter Diagnosis"
        } ]
      } ],
      "code": {
        "coding": [ {
          "system": "http://snomed.info/sct",
          "version": "2020-09",
          "code": "111297002",
          "display": "Nonparalytic stroke (disorder)",
          "userSelected": true
        } ]
      },
      "subject": {
        "reference": "Patient/a938e0ff-51b3-4001-b33e-5fd2c00a9147"
      },
      "recordedDate": "2026-08-16T08:00:00.000+00:00"
    },
    "request": {
      "method": "PUT",
      "url": "Condition/ad11bd9a-2297-4a59-a7d5-f22188278fa7"
    }
  }, {
    "fullUrl": "https://madie.cms.gov/Organization/0f64a03f-c362-4a17-8c1b-864442bd238b",
    "resource": {
      "resourceType": "Organization",
      "id": "0f64a03f-c362-4a17-8c1b-864442bd238b",
      "meta": {
        "profile": [ "http://hl7.org/fhir/us/qicore/StructureDefinition/qicore-organization" ]
      },
      "identifier": [ {
        "use": "temp",
        "system": "urn:oid:2.16.840.1.113883.4.4",
        "value": "21-3259825"
      } ],
      "active": true,
      "type": [ {
        "coding": [ {
          "system": "http://terminology.hl7.org/CodeSystem/organization-type",
          "code": "pay",
          "display": "Payer"
        } ]
      } ],
      "name": "Blue Cross Blue Shield of Texas",
      "telecom": [ {
        "system": "phone",
        "value": "(+1) 972-766-6900"
      } ],
      "address": [ {
        "use": "billing",
        "type": "postal",
        "line": [ "P.O. Box 660044" ],
        "city": "Dallas",
        "state": "TX",
        "postalCode": "75266-0044",
        "country": "USA"
      } ]
    },
    "request": {
      "method": "PUT",
      "url": "Organization/0f64a03f-c362-4a17-8c1b-864442bd238b"
    }
  }, {
    "fullUrl": "https://madie.cms.gov/Practitioner/2c3f6065-027b-4268-acfd-97a1f38d2ab1",
    "resource": {
      "resourceType": "Practitioner",
      "id": "2c3f6065-027b-4268-acfd-97a1f38d2ab1",
      "meta": {
        "profile": [ "http://hl7.org/fhir/us/qicore/StructureDefinition/qicore-practitioner" ]
      },
      "identifier": [ {
        "system": "http://hl7.org/fhir/sid/us-npi",
        "value": "9999999896"
      } ],
      "name": [ {
        "family": "Evil",
        "prefix": [ "Dr" ]
      } ]
    },
    "request": {
      "method": "PUT",
      "url": "Practitioner/2c3f6065-027b-4268-acfd-97a1f38d2ab1"
    }
  }, {
    "fullUrl": "https://madie.cms.gov/MeasureReport/ba8b88ab-20f6-4dfc-852f-23f1b4a32a0e",
    "resource": {
      "resourceType": "MeasureReport",
      "id": "ba8b88ab-20f6-4dfc-852f-23f1b4a32a0e",
      "meta": {
        "profile": [ "http://hl7.org/fhir/us/cqfmeasures/StructureDefinition/test-case-cqfm" ]
      },
      "contained": [ {
        "resourceType": "Parameters",
        "id": "c5cdfadf-4bd5-4294-bb3e-fd0740d20517-parameters",
        "parameter": [ {
          "name": "subject",
          "valueString": "a938e0ff-51b3-4001-b33e-5fd2c00a9147"
        } ]
      } ],
      "extension": [ {
        "url": "http://hl7.org/fhir/StructureDefinition/cqf-inputParameters",
        "valueReference": {
          "reference": "#c5cdfadf-4bd5-4294-bb3e-fd0740d20517-parameters"
        }
      }, {
        "url": "http://hl7.org/fhir/us/cqfmeasures/StructureDefinition/cqfm-testCaseDescription",
        "valueMarkdown": "\"Patient receives antithrombotic in the ED.MedAntithromboticStart EQ 0day at ED start\nglobal.\"\"Hospitalization\"\" =(Ed+IP)\"\n"
      } ],
      "modifierExtension": [ {
        "url": "http://hl7.org/fhir/us/cqfmeasures/StructureDefinition/cqfm-isTestCase",
        "valueBoolean": true
      } ],
      "status": "complete",
      "type": "individual",
      "measure": "https://madie.cms.gov/Measure/CMS72FHIRSTKAntithromboticDay2",
      "period": {
        "start": "2026-01-01",
        "end": "2026-12-31"
      },
      "group": [ {
        "id": "Group_1",
        "population": [ {
          "id": "InitialPopulation_1",
          "code": {
            "coding": [ {
              "system": "http://terminology.hl7.org/CodeSystem/measure-population",
              "code": "initial-population",
              "display": "Initial Population"
            } ]
          },
          "count": 1
        }, {
          "id": "Denominator_1",
          "code": {
            "coding": [ {
              "system": "http://terminology.hl7.org/CodeSystem/measure-population",
              "code": "denominator",
              "display": "Denominator"
            } ]
          },
          "count": 1
        }, {
          "id": "DenominatorExclusion_1",
          "code": {
            "coding": [ {
              "system": "http://terminology.hl7.org/CodeSystem/measure-population",
              "code": "denominator-exclusion",
              "display": "Denominator Exclusion"
            } ]
          },
          "count": 0
        }, {
          "id": "Numerator_1",
          "code": {
            "coding": [ {
              "system": "http://terminology.hl7.org/CodeSystem/measure-population",
              "code": "numerator",
              "display": "Numerator"
            } ]
          },
          "count": 1
        }, {
          "id": "DenominatorException_1",
          "code": {
            "coding": [ {
              "system": "http://terminology.hl7.org/CodeSystem/measure-population",
              "code": "denominator-exception",
              "display": "Denominator Exception"
            } ]
          },
          "count": 0
        } ],
        "measureScore": {
          "value": 0.0
        }
      } ],
      "evaluatedResource": [ {
        "reference": "Patient/a938e0ff-51b3-4001-b33e-5fd2c00a9147"
      }, {
        "reference": "Encounter/c9cee63b-1e2c-428f-b027-addf814ac2f6"
      }, {
        "reference": "Encounter/e2304c8b-ac56-4543-9aa0-98458e10cc78"
      }, {
        "reference": "Claim/5ca62962b8484628b8de1ec5"
      }, {
        "reference": "MedicationAdministration/e39aa8d1-a60a-40bd-ac41-f9b1c81f9661"
      }, {
        "reference": "Coverage/25ca3b59-d4a4-4765-9bdb-fb1bccac74da"
      }, {
        "reference": "Condition/ad11bd9a-2297-4a59-a7d5-f22188278fa7"
      }, {
        "reference": "Organization/0f64a03f-c362-4a17-8c1b-864442bd238b"
      }, {
        "reference": "Practitioner/2c3f6065-027b-4268-acfd-97a1f38d2ab1"
      } ]
    },
    "request": {
      "method": "PUT",
      "url": "MeasureReport/ba8b88ab-20f6-4dfc-852f-23f1b4a32a0e"
    }
  } ]
}