{
  "resourceType": "Bundle",
  "id": "612e6a8b02c62a011f2ea4e5",
  "type": "transaction",
  "entry": [ {
    "fullUrl": "https://madie.cms.gov/Patient/91c8a4a4-2789-4459-bf83-7720f660e89b",
    "resource": {
      "resourceType": "Patient",
      "id": "91c8a4a4-2789-4459-bf83-7720f660e89b",
      "meta": {
        "profile": [ "http://hl7.org/fhir/us/qicore/StructureDefinition/qicore-patient" ]
      },
      "text": {
        "status": "generated",
        "div": "<div xmlns=\"http://www.w3.org/1999/xhtml\"><div class=\"hapiHeaderText\">MA_LDUHep_DayOfAdm <b>NUMERPASS </b></div><table class=\"hapiPropertyTable\"><tbody><tr><td>Identifier</td><td>8a33d2769a6bdab7ccc20de0552fc909</td></tr><tr><td>Date of birth</td><td><span>02 January 1974</span></td></tr></tbody></table></div>"
      },
      "extension": [ {
        "url": "http://hl7.org/fhir/us/core/StructureDefinition/us-core-race",
        "extension": [ {
          "url": "ombCategory",
          "valueCoding": {
            "system": "urn:oid:2.16.840.1.113883.6.238",
            "code": "1002-5",
            "display": "American Indian or Alaska Native",
            "userSelected": true
          }
        }, {
          "url": "text",
          "valueString": "American Indian or Alaska Native"
        } ]
      }, {
        "url": "http://hl7.org/fhir/us/core/StructureDefinition/us-core-ethnicity",
        "extension": [ {
          "url": "ombCategory",
          "valueCoding": {
            "system": "urn:oid:2.16.840.1.113883.6.238",
            "code": "2135-2",
            "display": "Hispanic or Latino",
            "userSelected": true
          }
        }, {
          "url": "text",
          "valueString": "Hispanic or Latino"
        } ]
      } ],
      "identifier": [ {
        "type": {
          "coding": [ {
            "system": "http://terminology.hl7.org/CodeSystem/v2-0203",
            "code": "MR"
          } ]
        },
        "system": "https://bonnie-fhir.healthit.gov/",
        "value": "612e6a8b02c62a011f2ea4e5"
      } ],
      "active": true,
      "name": [ {
        "use": "usual",
        "family": "NUMERPass",
        "given": [ "MALDUHepDayOfAdm" ]
      } ],
      "gender": "male",
      "birthDate": "1975-01-02"
    },
    "request": {
      "method": "PUT",
      "url": "Patient/91c8a4a4-2789-4459-bf83-7720f660e89b"
    }
  }, {
    "fullUrl": "https://madie.cms.gov/Encounter/a9a0fb4d-9829-4bae-bbed-8813b999d54d",
    "resource": {
      "resourceType": "Encounter",
      "id": "a9a0fb4d-9829-4bae-bbed-8813b999d54d",
      "meta": {
        "profile": [ "http://hl7.org/fhir/us/qicore/StructureDefinition/qicore-encounter" ]
      },
      "status": "finished",
      "class": {
        "system": "http://terminology.hl7.org/CodeSystem/v3-ActCode",
        "code": "IMP",
        "display": "inpatient encounter"
      },
      "type": [ {
        "coding": [ {
          "system": "http://snomed.info/sct",
          "code": "8715000"
        } ]
      } ],
      "subject": {
        "reference": "Patient/91c8a4a4-2789-4459-bf83-7720f660e89b"
      },
      "period": {
        "start": "2026-11-01T08:00:00.000+00:00",
        "end": "2026-11-26T08:15:00.000+00:00"
      },
      "length": {
        "value": 25,
        "unit": "days"
      }
    },
    "request": {
      "method": "PUT",
      "url": "Encounter/a9a0fb4d-9829-4bae-bbed-8813b999d54d"
    }
  }, {
    "fullUrl": "https://madie.cms.gov/Coverage/1ee621d5-f265-4503-b725-fcfc545b2202",
    "resource": {
      "resourceType": "Coverage",
      "id": "1ee621d5-f265-4503-b725-fcfc545b2202",
      "status": "active",
      "beneficiary": {
        "reference": "Patient/91c8a4a4-2789-4459-bf83-7720f660e89b"
      },
      "period": {
        "start": "1975-01-02T08:00:00.000+00:00"
      },
      "payor": [ {
        "reference": "Organization/13e67e08-97cc-499d-8363-c7b76bf7f054"
      } ]
    },
    "request": {
      "method": "PUT",
      "url": "Coverage/1ee621d5-f265-4503-b725-fcfc545b2202"
    }
  }, {
    "fullUrl": "https://madie.cms.gov/MedicationAdministration/5e1965a1-8c25-4416-b525-7defbad4f54a",
    "resource": {
      "resourceType": "MedicationAdministration",
      "id": "5e1965a1-8c25-4416-b525-7defbad4f54a",
      "meta": {
        "profile": [ "http://hl7.org/fhir/us/qicore/StructureDefinition/qicore-medicationadministration" ]
      },
      "status": "completed",
      "medicationCodeableConcept": {
        "coding": [ {
          "system": "http://www.nlm.nih.gov/research/umls/rxnorm",
          "code": "1361574"
        } ]
      },
      "subject": {
        "reference": "Patient/91c8a4a4-2789-4459-bf83-7720f660e89b"
      },
      "effectivePeriod": {
        "start": "2026-11-01T10:00:00.000+00:00",
        "end": "2026-11-01T10:15:00.000+00:00"
      },
      "dosage": {
        "route": {
          "coding": [ {
            "system": "http://snomed.info/sct",
            "code": "34206005",
            "display": "Subcutaneous route"
          } ]
        },
        "dose": {
          "value": 20000,
          "unit": "UNT/ML",
          "system": "http://unitsofmeasure.org",
          "code": "ML"
        }
      }
    },
    "request": {
      "method": "PUT",
      "url": "MedicationAdministration/5e1965a1-8c25-4416-b525-7defbad4f54a"
    }
  }, {
    "fullUrl": "https://madie.cms.gov/Procedure/77f9f90f-4f57-4084-8325-2ead994909fa",
    "resource": {
      "resourceType": "Procedure",
      "id": "77f9f90f-4f57-4084-8325-2ead994909fa",
      "meta": {
        "profile": [ "http://hl7.org/fhir/us/qicore/StructureDefinition/qicore-procedure" ]
      },
      "extension": [ {
        "url": "http://hl7.org/fhir/us/qicore/StructureDefinition/qicore-recorded",
        "valueDateTime": "2013-11-02T13:35:00.000+00:00"
      } ],
      "status": "completed",
      "code": {
        "coding": [ {
          "system": "http://www.icd10data.com/icd10pcs",
          "code": "3E030FZ"
        }, {
          "system": "http://snomed.info/sct",
          "code": "18946005"
        } ]
      },
      "subject": {
        "reference": "Patient/91c8a4a4-2789-4459-bf83-7720f660e89b"
      },
      "performedPeriod": {
        "start": "2026-11-02T09:00:00.000+00:00",
        "end": "2026-11-02T09:15:00.000+00:00"
      }
    },
    "request": {
      "method": "PUT",
      "url": "Procedure/77f9f90f-4f57-4084-8325-2ead994909fa"
    }
  }, {
    "fullUrl": "https://madie.cms.gov/Organization/13e67e08-97cc-499d-8363-c7b76bf7f054",
    "resource": {
      "resourceType": "Organization",
      "id": "13e67e08-97cc-499d-8363-c7b76bf7f054",
      "meta": {
        "profile": [ "http://hl7.org/fhir/us/qicore/StructureDefinition/qicore-organization" ]
      },
      "identifier": [ {
        "use": "temp",
        "system": "urn:oid:2.16.840.1.113883.4.4",
        "value": "21-3259825"
      } ],
      "active": true,
      "type": [ {
        "coding": [ {
          "system": "http://terminology.hl7.org/CodeSystem/organization-type",
          "code": "pay",
          "display": "Payer"
        } ]
      } ],
      "name": "Blue Cross Blue Shield of Texas",
      "telecom": [ {
        "system": "phone",
        "value": "(+1) 972-766-6900"
      } ],
      "address": [ {
        "use": "billing",
        "type": "postal",
        "line": [ "P.O. Box 660044" ],
        "city": "Dallas",
        "state": "TX",
        "postalCode": "75266-0044",
        "country": "USA"
      } ]
    },
    "request": {
      "method": "PUT",
      "url": "Organization/13e67e08-97cc-499d-8363-c7b76bf7f054"
    }
  }, {
    "fullUrl": "https://madie.cms.gov/Practitioner/c4de8113-5b7f-4c22-8aac-3a415919b334",
    "resource": {
      "resourceType": "Practitioner",
      "id": "c4de8113-5b7f-4c22-8aac-3a415919b334",
      "identifier": [ {
        "system": "http://hl7.org/fhir/sid/us-npi",
        "value": "123456"
      } ],
      "name": [ {
        "family": "Evil",
        "prefix": [ "Dr" ]
      } ]
    },
    "request": {
      "method": "PUT",
      "url": "Practitioner/c4de8113-5b7f-4c22-8aac-3a415919b334"
    }
  }, {
    "fullUrl": "https://madie.cms.gov/MeasureReport/476131df-2642-47af-8edb-a52c4f7260c2",
    "resource": {
      "resourceType": "MeasureReport",
      "id": "476131df-2642-47af-8edb-a52c4f7260c2",
      "meta": {
        "profile": [ "http://hl7.org/fhir/us/cqfmeasures/StructureDefinition/test-case-cqfm" ]
      },
      "contained": [ {
        "resourceType": "Parameters",
        "id": "da07d0be-3bd7-48dd-89aa-008341313734-parameters",
        "parameter": [ {
          "name": "subject",
          "valueString": "91c8a4a4-2789-4459-bf83-7720f660e89b"
        } ]
      } ],
      "extension": [ {
        "url": "http://hl7.org/fhir/StructureDefinition/cqf-inputParameters",
        "valueReference": {
          "reference": "#da07d0be-3bd7-48dd-89aa-008341313734-parameters"
        }
      }, {
        "url": "http://hl7.org/fhir/us/cqfmeasures/StructureDefinition/cqfm-testCaseDescription",
        "valueMarkdown": "low dose unfractionated heparin administered on the day of adm\n"
      } ],
      "modifierExtension": [ {
        "url": "http://hl7.org/fhir/us/cqfmeasures/StructureDefinition/cqfm-isTestCase",
        "valueBoolean": true
      } ],
      "status": "complete",
      "type": "individual",
      "measure": "https://madie.cms.gov/Measure/CMS108FHIRVTEProphylaxis",
      "period": {
        "start": "2026-01-01",
        "end": "2026-12-31"
      },
      "group": [ {
        "id": "Group_1",
        "population": [ {
          "id": "InitialPopulation_1",
          "code": {
            "coding": [ {
              "system": "http://terminology.hl7.org/CodeSystem/measure-population",
              "code": "initial-population",
              "display": "Initial Population"
            } ]
          },
          "count": 1
        }, {
          "id": "Denominator_1",
          "code": {
            "coding": [ {
              "system": "http://terminology.hl7.org/CodeSystem/measure-population",
              "code": "denominator",
              "display": "Denominator"
            } ]
          },
          "count": 1
        }, {
          "id": "DenominatorExclusion_1",
          "code": {
            "coding": [ {
              "system": "http://terminology.hl7.org/CodeSystem/measure-population",
              "code": "denominator-exclusion",
              "display": "Denominator Exclusion"
            } ]
          },
          "count": 0
        }, {
          "id": "Numerator_1",
          "code": {
            "coding": [ {
              "system": "http://terminology.hl7.org/CodeSystem/measure-population",
              "code": "numerator",
              "display": "Numerator"
            } ]
          },
          "count": 1
        } ],
        "measureScore": {
          "value": 0.0
        }
      } ],
      "evaluatedResource": [ {
        "reference": "Patient/91c8a4a4-2789-4459-bf83-7720f660e89b"
      }, {
        "reference": "Encounter/a9a0fb4d-9829-4bae-bbed-8813b999d54d"
      }, {
        "reference": "Coverage/1ee621d5-f265-4503-b725-fcfc545b2202"
      }, {
        "reference": "MedicationAdministration/5e1965a1-8c25-4416-b525-7defbad4f54a"
      }, {
        "reference": "Procedure/77f9f90f-4f57-4084-8325-2ead994909fa"
      }, {
        "reference": "Organization/13e67e08-97cc-499d-8363-c7b76bf7f054"
      }, {
        "reference": "Practitioner/c4de8113-5b7f-4c22-8aac-3a415919b334"
      } ]
    },
    "request": {
      "method": "PUT",
      "url": "MeasureReport/476131df-2642-47af-8edb-a52c4f7260c2"
    }
  } ]
}