{
  "resourceType": "Bundle",
  "id": "649333494d994e7239aa25e7",
  "type": "collection",
  "entry": [ {
    "fullUrl": "https://madie.cms.gov/Patient/14605ae3-a67b-423b-942e-06a54531bc70",
    "resource": {
      "resourceType": "Patient",
      "id": "14605ae3-a67b-423b-942e-06a54531bc70",
      "meta": {
        "profile": [ "http://hl7.org/fhir/us/qicore/StructureDefinition/qicore-patient" ]
      },
      "extension": [ {
        "url": "http://hl7.org/fhir/us/core/StructureDefinition/us-core-race",
        "extension": [ {
          "url": "ombCategory",
          "valueCoding": {
            "system": "urn:oid:2.16.840.1.113883.6.238",
            "code": "2106-3",
            "display": "White"
          }
        }, {
          "url": "text",
          "valueString": "White"
        } ]
      }, {
        "url": "http://hl7.org/fhir/us/core/StructureDefinition/us-core-ethnicity",
        "extension": [ {
          "url": "ombCategory",
          "valueCoding": {
            "system": "urn:oid:2.16.840.1.113883.6.238",
            "code": "2186-5",
            "display": "Not Hispanic or Latino",
            "userSelected": true
          }
        }, {
          "url": "text",
          "valueString": "Not Hispanic or Latino"
        } ]
      } ],
      "identifier": [ {
        "type": {
          "coding": [ {
            "system": "http://terminology.hl7.org/CodeSystem/v2-0203",
            "code": "MR"
          } ]
        },
        "system": "https://bonnie-fhir.healthit.gov/",
        "value": "649333494d994e7239aa25e7"
      } ],
      "name": [ {
        "family": "IPFail",
        "given": [ "DxwithNoEnc" ]
      } ],
      "gender": "female",
      "birthDate": "1989-08-08"
    }
  }, {
    "fullUrl": "https://madie.cms.gov/Condition/8f2275cd-2352-4313-9c28-ec9b3a3ad1e6",
    "resource": {
      "resourceType": "Condition",
      "id": "8f2275cd-2352-4313-9c28-ec9b3a3ad1e6",
      "meta": {
        "profile": [ "http://hl7.org/fhir/us/qicore/StructureDefinition/qicore-condition-problems-health-concerns" ]
      },
      "clinicalStatus": {
        "coding": [ {
          "system": "http://terminology.hl7.org/CodeSystem/condition-clinical",
          "code": "active",
          "display": "active",
          "userSelected": true
        } ]
      },
      "category": [ {
        "coding": [ {
          "system": "http://terminology.hl7.org/CodeSystem/condition-category",
          "code": "problem-list-item",
          "display": "Problem List Item"
        } ]
      } ],
      "code": {
        "coding": [ {
          "system": "http://snomed.info/sct",
          "version": "http://snomed.info/sct/731000124108/version/20250301",
          "code": "111880001",
          "userSelected": true
        } ]
      },
      "subject": {
        "reference": "Patient/14605ae3-a67b-423b-942e-06a54531bc70"
      },
      "onsetDateTime": "2001-03-07T08:00:00.000+00:00",
      "recordedDate": "2001-03-07T08:00:00.000+00:00"
    }
  }, {
    "fullUrl": "https://madie.cms.gov/Coverage/6775c834-1735-4bf8-8468-29ae9f9731fd",
    "resource": {
      "resourceType": "Coverage",
      "id": "6775c834-1735-4bf8-8468-29ae9f9731fd",
      "meta": {
        "profile": [ "http://hl7.org/fhir/us/qicore/StructureDefinition/qicore-coverage" ]
      },
      "status": "active",
      "subscriberId": "123456",
      "beneficiary": {
        "reference": "Patient/14605ae3-a67b-423b-942e-06a54531bc70"
      },
      "relationship": {
        "coding": [ {
          "system": "http://terminology.hl7.org/CodeSystem/subscriber-relationship",
          "code": "self",
          "display": "Self"
        } ]
      },
      "payor": [ {
        "reference": "Organization/8ee6bf4f-cc85-4f73-82f2-1e96411460de"
      } ]
    }
  }, {
    "fullUrl": "https://madie.cms.gov/Organization/8ee6bf4f-cc85-4f73-82f2-1e96411460de",
    "resource": {
      "resourceType": "Organization",
      "id": "8ee6bf4f-cc85-4f73-82f2-1e96411460de",
      "meta": {
        "profile": [ "http://hl7.org/fhir/us/qicore/StructureDefinition/qicore-organization" ]
      },
      "identifier": [ {
        "use": "temp",
        "system": "urn:oid:2.16.840.1.113883.4.4",
        "value": "21-3259825"
      } ],
      "active": true,
      "type": [ {
        "coding": [ {
          "system": "http://terminology.hl7.org/CodeSystem/organization-type",
          "code": "pay",
          "display": "Payer"
        } ]
      } ],
      "name": "Blue Cross Blue Shield of Texas",
      "telecom": [ {
        "system": "phone",
        "value": "(+1) 972-766-6900"
      } ],
      "address": [ {
        "use": "billing",
        "type": "postal",
        "line": [ "P.O. Box 660044" ],
        "city": "Dallas",
        "state": "TX",
        "postalCode": "75266-0044",
        "country": "USA"
      } ]
    }
  }, {
    "fullUrl": "https://madie.cms.gov/Practitioner/8749fc7c-ca2e-4436-b512-dbff92ba8685",
    "resource": {
      "resourceType": "Practitioner",
      "id": "8749fc7c-ca2e-4436-b512-dbff92ba8685",
      "meta": {
        "profile": [ "http://hl7.org/fhir/us/qicore/StructureDefinition/qicore-practitioner" ]
      },
      "identifier": [ {
        "system": "http://hl7.org/fhir/sid/us-npi",
        "value": "1689411712"
      } ],
      "name": [ {
        "family": "Evil",
        "prefix": [ "Dr" ]
      } ]
    }
  }, {
    "fullUrl": "https://madie.cms.gov/MeasureReport/3e52a27d-382e-4f93-b9bc-b270a4ea2ab4",
    "resource": {
      "resourceType": "MeasureReport",
      "id": "3e52a27d-382e-4f93-b9bc-b270a4ea2ab4",
      "meta": {
        "profile": [ "http://hl7.org/fhir/us/cqfmeasures/StructureDefinition/test-case-cqfm" ]
      },
      "contained": [ {
        "resourceType": "Parameters",
        "id": "3b75bc80-7ea7-4b40-8d35-aa6c40e5dabb-parameters",
        "parameter": [ {
          "name": "subject",
          "valueString": "14605ae3-a67b-423b-942e-06a54531bc70"
        } ]
      } ],
      "extension": [ {
        "url": "http://hl7.org/fhir/StructureDefinition/cqf-inputParameters",
        "valueReference": {
          "reference": "#3b75bc80-7ea7-4b40-8d35-aa6c40e5dabb-parameters"
        }
      }, {
        "url": "http://hl7.org/fhir/us/cqfmeasures/StructureDefinition/cqfm-testCaseDescription",
        "valueMarkdown": "Patient with HIV diagnosis before MP with no encounter"
      } ],
      "modifierExtension": [ {
        "url": "http://hl7.org/fhir/us/cqfmeasures/StructureDefinition/cqfm-isTestCase",
        "valueBoolean": true
      } ],
      "status": "complete",
      "type": "individual",
      "measure": "https://madie.cms.gov/Measure/CMS314FHIRHIVViralSuppression",
      "period": {
        "start": "2026-01-01",
        "end": "2026-12-31"
      },
      "group": [ {
        "id": "Group_1",
        "population": [ {
          "id": "InitialPopulation_1",
          "code": {
            "coding": [ {
              "system": "http://terminology.hl7.org/CodeSystem/measure-population",
              "code": "initial-population",
              "display": "Initial Population"
            } ]
          },
          "count": 0
        }, {
          "id": "Denominator_1",
          "code": {
            "coding": [ {
              "system": "http://terminology.hl7.org/CodeSystem/measure-population",
              "code": "denominator",
              "display": "Denominator"
            } ]
          },
          "count": 0
        }, {
          "id": "Numerator_1",
          "code": {
            "coding": [ {
              "system": "http://terminology.hl7.org/CodeSystem/measure-population",
              "code": "numerator",
              "display": "Numerator"
            } ]
          },
          "count": 0
        } ],
        "measureScore": {
          "value": 1.0
        }
      } ],
      "evaluatedResource": [ {
        "reference": "Patient/14605ae3-a67b-423b-942e-06a54531bc70"
      }, {
        "reference": "Condition/8f2275cd-2352-4313-9c28-ec9b3a3ad1e6"
      }, {
        "reference": "Coverage/6775c834-1735-4bf8-8468-29ae9f9731fd"
      }, {
        "reference": "Organization/8ee6bf4f-cc85-4f73-82f2-1e96411460de"
      }, {
        "reference": "Practitioner/8749fc7c-ca2e-4436-b512-dbff92ba8685"
      } ]
    }
  } ]
}