{
  "resourceType": "Bundle",
  "id": "612e6afb02c62a011f2ebfd5",
  "type": "transaction",
  "entry": [ {
    "fullUrl": "https://madie.cms.gov/Patient/e2e5ba36-0d4d-425e-9e9a-6c8a64155fc7",
    "resource": {
      "resourceType": "Patient",
      "id": "e2e5ba36-0d4d-425e-9e9a-6c8a64155fc7",
      "meta": {
        "profile": [ "http://hl7.org/fhir/us/qicore/StructureDefinition/qicore-patient" ]
      },
      "text": {
        "status": "generated",
        "div": "<div xmlns=\"http://www.w3.org/1999/xhtml\"><div class=\"hapiHeaderText\">MA_OralXaKneeEncStartTime <b>NUMERPASS </b></div><table class=\"hapiPropertyTable\"><tbody><tr><td>Date of birth</td><td><span>02 January 1974</span></td></tr></tbody></table></div>"
      },
      "extension": [ {
        "url": "http://hl7.org/fhir/us/core/StructureDefinition/us-core-race",
        "extension": [ {
          "url": "ombCategory",
          "valueCoding": {
            "system": "urn:oid:2.16.840.1.113883.6.238",
            "code": "1002-5",
            "display": "American Indian or Alaska Native",
            "userSelected": true
          }
        }, {
          "url": "text",
          "valueString": "American Indian or Alaska Native"
        } ]
      }, {
        "url": "http://hl7.org/fhir/us/core/StructureDefinition/us-core-ethnicity",
        "extension": [ {
          "url": "ombCategory",
          "valueCoding": {
            "system": "urn:oid:2.16.840.1.113883.6.238",
            "code": "2135-2",
            "display": "Hispanic or Latino",
            "userSelected": true
          }
        }, {
          "url": "text",
          "valueString": "Hispanic or Latino"
        } ]
      } ],
      "identifier": [ {
        "type": {
          "coding": [ {
            "system": "http://terminology.hl7.org/CodeSystem/v2-0203",
            "code": "MR"
          } ]
        },
        "system": "https://bonnie-fhir.healthit.gov/",
        "value": "612e6afb02c62a011f2ebfd5"
      } ],
      "active": true,
      "name": [ {
        "use": "usual",
        "family": "NUMERPass",
        "given": [ "MAOralXaKneeOnEncStartTime" ]
      } ],
      "gender": "female",
      "birthDate": "1975-01-02"
    },
    "request": {
      "method": "PUT",
      "url": "Patient/e2e5ba36-0d4d-425e-9e9a-6c8a64155fc7"
    }
  }, {
    "fullUrl": "https://madie.cms.gov/Encounter/7713944d-20f8-4035-82e5-68464430f4a4",
    "resource": {
      "resourceType": "Encounter",
      "id": "7713944d-20f8-4035-82e5-68464430f4a4",
      "meta": {
        "profile": [ "http://hl7.org/fhir/us/qicore/StructureDefinition/qicore-encounter" ]
      },
      "status": "finished",
      "class": {
        "system": "http://terminology.hl7.org/CodeSystem/v3-ActCode",
        "code": "IMP",
        "display": "inpatient encounter"
      },
      "type": [ {
        "coding": [ {
          "system": "http://snomed.info/sct",
          "code": "183452005"
        } ]
      } ],
      "subject": {
        "reference": "Patient/e2e5ba36-0d4d-425e-9e9a-6c8a64155fc7"
      },
      "period": {
        "start": "2026-11-01T08:00:00.000+00:00",
        "end": "2026-11-26T08:15:00.000+00:00"
      },
      "length": {
        "value": 25,
        "unit": "day"
      }
    },
    "request": {
      "method": "PUT",
      "url": "Encounter/7713944d-20f8-4035-82e5-68464430f4a4"
    }
  }, {
    "fullUrl": "https://madie.cms.gov/Coverage/f3806236-446b-4276-86e7-8bfdb91d9f77",
    "resource": {
      "resourceType": "Coverage",
      "id": "f3806236-446b-4276-86e7-8bfdb91d9f77",
      "status": "active",
      "beneficiary": {
        "reference": "Patient/e2e5ba36-0d4d-425e-9e9a-6c8a64155fc7"
      },
      "period": {
        "start": "1975-01-02T08:00:00.000+00:00"
      },
      "payor": [ {
        "reference": "Organization/16a06876-89e2-4029-81a3-fb72a9327640"
      } ]
    },
    "request": {
      "method": "PUT",
      "url": "Coverage/f3806236-446b-4276-86e7-8bfdb91d9f77"
    }
  }, {
    "fullUrl": "https://madie.cms.gov/MedicationAdministration/e0a6f4b4-acd7-4670-b47e-491c97c87b6c",
    "resource": {
      "resourceType": "MedicationAdministration",
      "id": "e0a6f4b4-acd7-4670-b47e-491c97c87b6c",
      "meta": {
        "profile": [ "http://hl7.org/fhir/us/qicore/StructureDefinition/qicore-medicationadministration" ]
      },
      "status": "completed",
      "medicationCodeableConcept": {
        "coding": [ {
          "system": "http://www.nlm.nih.gov/research/umls/rxnorm",
          "code": "1599555"
        } ]
      },
      "subject": {
        "reference": "Patient/e2e5ba36-0d4d-425e-9e9a-6c8a64155fc7"
      },
      "effectivePeriod": {
        "start": "2026-11-01T08:00:00.000+00:00",
        "end": "2026-11-01T08:00:00.000+00:00"
      }
    },
    "request": {
      "method": "PUT",
      "url": "MedicationAdministration/e0a6f4b4-acd7-4670-b47e-491c97c87b6c"
    }
  }, {
    "fullUrl": "https://madie.cms.gov/Procedure/e0ea2b84-05fa-4842-b906-65b83452799b",
    "resource": {
      "resourceType": "Procedure",
      "id": "e0ea2b84-05fa-4842-b906-65b83452799b",
      "meta": {
        "profile": [ "http://hl7.org/fhir/us/qicore/StructureDefinition/qicore-procedure" ]
      },
      "extension": [ {
        "url": "http://hl7.org/fhir/us/qicore/StructureDefinition/qicore-recorded",
        "valueDateTime": "2013-11-01T13:35:00.000+00:00"
      } ],
      "status": "completed",
      "code": {
        "coding": [ {
          "system": "http://snomed.info/sct",
          "code": "179411001"
        } ]
      },
      "subject": {
        "reference": "Patient/e2e5ba36-0d4d-425e-9e9a-6c8a64155fc7"
      },
      "performedPeriod": {
        "start": "2026-11-01T08:00:00.000+00:00",
        "end": "2026-11-01T10:15:00.000+00:00"
      }
    },
    "request": {
      "method": "PUT",
      "url": "Procedure/e0ea2b84-05fa-4842-b906-65b83452799b"
    }
  }, {
    "fullUrl": "https://madie.cms.gov/Organization/16a06876-89e2-4029-81a3-fb72a9327640",
    "resource": {
      "resourceType": "Organization",
      "id": "16a06876-89e2-4029-81a3-fb72a9327640",
      "meta": {
        "profile": [ "http://hl7.org/fhir/us/qicore/StructureDefinition/qicore-organization" ]
      },
      "identifier": [ {
        "use": "temp",
        "system": "urn:oid:2.16.840.1.113883.4.4",
        "value": "21-3259825"
      } ],
      "active": true,
      "type": [ {
        "coding": [ {
          "system": "http://terminology.hl7.org/CodeSystem/organization-type",
          "code": "pay",
          "display": "Payer"
        } ]
      } ],
      "name": "Blue Cross Blue Shield of Texas",
      "telecom": [ {
        "system": "phone",
        "value": "(+1) 972-766-6900"
      } ],
      "address": [ {
        "use": "billing",
        "type": "postal",
        "line": [ "P.O. Box 660044" ],
        "city": "Dallas",
        "state": "TX",
        "postalCode": "75266-0044",
        "country": "USA"
      } ]
    },
    "request": {
      "method": "PUT",
      "url": "Organization/16a06876-89e2-4029-81a3-fb72a9327640"
    }
  }, {
    "fullUrl": "https://madie.cms.gov/Practitioner/21830fc9-5a04-4cdf-b3ec-4b9325885446",
    "resource": {
      "resourceType": "Practitioner",
      "id": "21830fc9-5a04-4cdf-b3ec-4b9325885446",
      "identifier": [ {
        "system": "http://hl7.org/fhir/sid/us-npi",
        "value": "123456"
      } ],
      "name": [ {
        "family": "Evil",
        "prefix": [ "Dr" ]
      } ]
    },
    "request": {
      "method": "PUT",
      "url": "Practitioner/21830fc9-5a04-4cdf-b3ec-4b9325885446"
    }
  }, {
    "fullUrl": "https://madie.cms.gov/MeasureReport/69717648-2572-483b-9f0c-3460042998c7",
    "resource": {
      "resourceType": "MeasureReport",
      "id": "69717648-2572-483b-9f0c-3460042998c7",
      "meta": {
        "profile": [ "http://hl7.org/fhir/us/cqfmeasures/StructureDefinition/test-case-cqfm" ]
      },
      "contained": [ {
        "resourceType": "Parameters",
        "id": "4260e022-d516-47fa-9d64-49a0bcfb5e2d-parameters",
        "parameter": [ {
          "name": "subject",
          "valueString": "e2e5ba36-0d4d-425e-9e9a-6c8a64155fc7"
        } ]
      } ],
      "extension": [ {
        "url": "http://hl7.org/fhir/StructureDefinition/cqf-inputParameters",
        "valueReference": {
          "reference": "#4260e022-d516-47fa-9d64-49a0bcfb5e2d-parameters"
        }
      }, {
        "url": "http://hl7.org/fhir/us/cqfmeasures/StructureDefinition/cqfm-testCaseDescription",
        "valueMarkdown": "oral factor Xa administered concurrent with start of IP encounter, Hip replacement concurrent with Start of IP encounter\n"
      } ],
      "modifierExtension": [ {
        "url": "http://hl7.org/fhir/us/cqfmeasures/StructureDefinition/cqfm-isTestCase",
        "valueBoolean": true
      } ],
      "status": "complete",
      "type": "individual",
      "measure": "https://madie.cms.gov/Measure/CMS108FHIRVTEProphylaxis",
      "period": {
        "start": "2026-01-01",
        "end": "2026-12-31"
      },
      "group": [ {
        "id": "Group_1",
        "population": [ {
          "id": "InitialPopulation_1",
          "code": {
            "coding": [ {
              "system": "http://terminology.hl7.org/CodeSystem/measure-population",
              "code": "initial-population",
              "display": "Initial Population"
            } ]
          },
          "count": 1
        }, {
          "id": "Denominator_1",
          "code": {
            "coding": [ {
              "system": "http://terminology.hl7.org/CodeSystem/measure-population",
              "code": "denominator",
              "display": "Denominator"
            } ]
          },
          "count": 1
        }, {
          "id": "DenominatorExclusion_1",
          "code": {
            "coding": [ {
              "system": "http://terminology.hl7.org/CodeSystem/measure-population",
              "code": "denominator-exclusion",
              "display": "Denominator Exclusion"
            } ]
          },
          "count": 0
        }, {
          "id": "Numerator_1",
          "code": {
            "coding": [ {
              "system": "http://terminology.hl7.org/CodeSystem/measure-population",
              "code": "numerator",
              "display": "Numerator"
            } ]
          },
          "count": 1
        } ],
        "measureScore": {
          "value": 0.0
        }
      } ],
      "evaluatedResource": [ {
        "reference": "Patient/e2e5ba36-0d4d-425e-9e9a-6c8a64155fc7"
      }, {
        "reference": "Encounter/7713944d-20f8-4035-82e5-68464430f4a4"
      }, {
        "reference": "Coverage/f3806236-446b-4276-86e7-8bfdb91d9f77"
      }, {
        "reference": "MedicationAdministration/e0a6f4b4-acd7-4670-b47e-491c97c87b6c"
      }, {
        "reference": "Procedure/e0ea2b84-05fa-4842-b906-65b83452799b"
      }, {
        "reference": "Organization/16a06876-89e2-4029-81a3-fb72a9327640"
      }, {
        "reference": "Practitioner/21830fc9-5a04-4cdf-b3ec-4b9325885446"
      } ]
    },
    "request": {
      "method": "PUT",
      "url": "MeasureReport/69717648-2572-483b-9f0c-3460042998c7"
    }
  } ]
}