{
  "resourceType": "Bundle",
  "id": "852g7ae12a56ae35eg7i53i9",
  "type": "transaction",
  "entry": [ {
    "fullUrl": "https://madie.cms.gov/Patient/6bf88e99-23a4-4c64-82f9-78947836d64a",
    "resource": {
      "resourceType": "Patient",
      "id": "6bf88e99-23a4-4c64-82f9-78947836d64a",
      "meta": {
        "profile": [ "http://hl7.org/fhir/us/qicore/StructureDefinition/qicore-patient" ]
      },
      "extension": [ {
        "url": "http://hl7.org/fhir/us/core/StructureDefinition/us-core-ethnicity",
        "extension": [ {
          "url": "ombCategory",
          "valueCoding": {
            "system": "urn:oid:2.16.840.1.113883.6.238",
            "code": "2135-2",
            "display": "Hispanic or Latino",
            "userSelected": true
          }
        }, {
          "url": "text",
          "valueString": "Hispanic or Latino"
        } ]
      } ],
      "identifier": [ {
        "system": "http://hospital.smarthealthit.org",
        "value": "999999999"
      } ],
      "name": [ {
        "family": "NUMERFail",
        "given": [ "DischargeSingleOpioidX2Enc" ]
      } ],
      "gender": "male",
      "birthDate": "2004-04-12"
    },
    "request": {
      "method": "PUT",
      "url": "Patient/6bf88e99-23a4-4c64-82f9-78947836d64a"
    }
  }, {
    "fullUrl": "https://madie.cms.gov/Encounter/2313b4e5-b557-4477-befd-6db24d43a5b1",
    "resource": {
      "resourceType": "Encounter",
      "id": "2313b4e5-b557-4477-befd-6db24d43a5b1",
      "meta": {
        "profile": [ "http://hl7.org/fhir/us/qicore/StructureDefinition/qicore-encounter" ]
      },
      "status": "finished",
      "class": {
        "system": "http://terminology.hl7.org/CodeSystem/v3-ActCode",
        "code": "IMP",
        "display": "inpatient encounter"
      },
      "type": [ {
        "coding": [ {
          "system": "http://snomed.info/sct",
          "code": "183452005",
          "display": "Emergency hospital admission (procedure)",
          "userSelected": true
        } ]
      } ],
      "subject": {
        "reference": "Patient/6bf88e99-23a4-4c64-82f9-78947836d64a"
      },
      "period": {
        "start": "2026-01-29T05:00:00.000+00:00",
        "end": "2026-02-02T18:00:00.000+00:00"
      }
    },
    "request": {
      "method": "PUT",
      "url": "Encounter/2313b4e5-b557-4477-befd-6db24d43a5b1"
    }
  }, {
    "fullUrl": "https://madie.cms.gov/Encounter/0436a5d7-5e9b-4943-8ecb-694dbbff6b24",
    "resource": {
      "resourceType": "Encounter",
      "id": "0436a5d7-5e9b-4943-8ecb-694dbbff6b24",
      "meta": {
        "profile": [ "http://hl7.org/fhir/us/qicore/StructureDefinition/qicore-encounter" ]
      },
      "status": "finished",
      "class": {
        "system": "http://terminology.hl7.org/CodeSystem/v3-ActCode",
        "code": "IMP",
        "display": "inpatient encounter"
      },
      "type": [ {
        "coding": [ {
          "system": "http://snomed.info/sct",
          "code": "32485007",
          "display": "Hospital admission (procedure)",
          "userSelected": true
        } ]
      } ],
      "subject": {
        "reference": "Patient/6bf88e99-23a4-4c64-82f9-78947836d64a"
      },
      "period": {
        "start": "2026-03-06T02:00:00.000+00:00",
        "end": "2026-03-08T08:15:00.000+00:00"
      }
    },
    "request": {
      "method": "PUT",
      "url": "Encounter/0436a5d7-5e9b-4943-8ecb-694dbbff6b24"
    }
  }, {
    "fullUrl": "https://madie.cms.gov/MedicationRequest/39030bb3-7779-4780-a971-45abec8f443e",
    "resource": {
      "resourceType": "MedicationRequest",
      "id": "39030bb3-7779-4780-a971-45abec8f443e",
      "meta": {
        "profile": [ "http://hl7.org/fhir/us/qicore/StructureDefinition/qicore-medicationrequest" ]
      },
      "status": "completed",
      "intent": "order",
      "category": [ {
        "coding": [ {
          "system": "http://terminology.hl7.org/CodeSystem/medicationrequest-category",
          "code": "community",
          "display": "Community",
          "userSelected": true
        } ]
      } ],
      "doNotPerform": false,
      "medicationCodeableConcept": {
        "coding": [ {
          "system": "http://www.nlm.nih.gov/research/umls/rxnorm",
          "code": "1014599",
          "display": "acetaminophen 300 MG / oxycodone hydrochloride 10 MG Oral Tablet",
          "userSelected": true
        } ]
      },
      "subject": {
        "reference": "Patient/6bf88e99-23a4-4c64-82f9-78947836d64a"
      },
      "authoredOn": "2026-02-02T05:30:00.000+00:00",
      "requester": {
        "reference": "Practitioner/c2098501-d055-4aca-b400-9a1bdf553626"
      }
    },
    "request": {
      "method": "PUT",
      "url": "MedicationRequest/39030bb3-7779-4780-a971-45abec8f443e"
    }
  }, {
    "fullUrl": "https://madie.cms.gov/MedicationRequest/636115e5-979a-4c21-b147-64bbef3c47dd",
    "resource": {
      "resourceType": "MedicationRequest",
      "id": "636115e5-979a-4c21-b147-64bbef3c47dd",
      "meta": {
        "profile": [ "http://hl7.org/fhir/us/qicore/StructureDefinition/qicore-medicationrequest" ]
      },
      "status": "active",
      "intent": "reflex-order",
      "category": [ {
        "coding": [ {
          "system": "http://terminology.hl7.org/CodeSystem/medicationrequest-category",
          "code": "discharge",
          "display": "Discharge",
          "userSelected": true
        } ]
      } ],
      "doNotPerform": false,
      "medicationCodeableConcept": {
        "coding": [ {
          "system": "http://www.nlm.nih.gov/research/umls/rxnorm",
          "code": "1014599",
          "display": "acetaminophen 300 MG / oxycodone hydrochloride 10 MG Oral Tablet",
          "userSelected": true
        } ]
      },
      "subject": {
        "reference": "Patient/6bf88e99-23a4-4c64-82f9-78947836d64a"
      },
      "authoredOn": "2026-03-08T08:00:00.000+00:00",
      "requester": {
        "reference": "Practitioner/c2098501-d055-4aca-b400-9a1bdf553626"
      }
    },
    "request": {
      "method": "PUT",
      "url": "MedicationRequest/636115e5-979a-4c21-b147-64bbef3c47dd"
    }
  }, {
    "fullUrl": "https://madie.cms.gov/Practitioner/c2098501-d055-4aca-b400-9a1bdf553626",
    "resource": {
      "resourceType": "Practitioner",
      "id": "c2098501-d055-4aca-b400-9a1bdf553626",
      "meta": {
        "profile": [ "http://hl7.org/fhir/us/qicore/StructureDefinition/qicore-practitioner" ]
      },
      "identifier": [ {
        "system": "http://hl7.org/fhir/sid/us-npi",
        "value": "9999999896"
      } ],
      "active": true,
      "name": [ {
        "family": "Ramires",
        "given": [ "Alma" ],
        "prefix": [ "Dr" ]
      } ],
      "address": [ {
        "use": "home",
        "line": [ "534 Erewhon St" ],
        "city": "Netherville",
        "state": "IN",
        "postalCode": "46131"
      } ],
      "qualification": [ {
        "identifier": [ {
          "system": "http://goodhealth.org/prIdentifier",
          "value": "12345"
        } ],
        "code": {
          "coding": [ {
            "system": "http://terminology.hl7.org/CodeSystem/v2-0360|2.7",
            "code": "BS",
            "display": "Bachelor of Science"
          } ],
          "text": "Bachelor of Science"
        },
        "period": {
          "start": "1995"
        },
        "issuer": {
          "display": "Example University"
        }
      } ]
    },
    "request": {
      "method": "PUT",
      "url": "Practitioner/c2098501-d055-4aca-b400-9a1bdf553626"
    }
  }, {
    "fullUrl": "https://madie.cms.gov/Coverage/d7a52b85-9905-4b07-83ac-7417433fe169",
    "resource": {
      "resourceType": "Coverage",
      "id": "d7a52b85-9905-4b07-83ac-7417433fe169",
      "meta": {
        "profile": [ "http://hl7.org/fhir/us/qicore/StructureDefinition/qicore-coverage" ]
      },
      "status": "active",
      "subscriberId": "523435",
      "beneficiary": {
        "reference": "Patient/6bf88e99-23a4-4c64-82f9-78947836d64a"
      },
      "relationship": {
        "coding": [ {
          "system": "http://terminology.hl7.org/CodeSystem/subscriber-relationship",
          "code": "self"
        } ]
      },
      "payor": [ {
        "reference": "Organization/cafa00bf-8486-4529-bf7a-6091f9296337"
      } ]
    },
    "request": {
      "method": "PUT",
      "url": "Coverage/d7a52b85-9905-4b07-83ac-7417433fe169"
    }
  }, {
    "fullUrl": "https://madie.cms.gov/Organization/cafa00bf-8486-4529-bf7a-6091f9296337",
    "resource": {
      "resourceType": "Organization",
      "id": "cafa00bf-8486-4529-bf7a-6091f9296337",
      "meta": {
        "profile": [ "http://hl7.org/fhir/us/qicore/StructureDefinition/qicore-organization" ]
      },
      "identifier": [ {
        "use": "temp",
        "system": "urn:oid:2.16.840.1.113883.4.4",
        "value": "21-3259825"
      } ],
      "active": true,
      "type": [ {
        "coding": [ {
          "system": "http://terminology.hl7.org/CodeSystem/organization-type",
          "code": "pay",
          "display": "Payer"
        } ]
      } ],
      "name": "Blue Cross Blue Shield of Texas",
      "telecom": [ {
        "system": "phone",
        "value": "(+1) 972-766-6900"
      } ],
      "address": [ {
        "use": "billing",
        "type": "postal",
        "line": [ "P.O. Box 660044" ],
        "city": "Dallas",
        "state": "TX",
        "postalCode": "75266-0044",
        "country": "USA"
      } ]
    },
    "request": {
      "method": "PUT",
      "url": "Organization/cafa00bf-8486-4529-bf7a-6091f9296337"
    }
  }, {
    "fullUrl": "https://madie.cms.gov/MeasureReport/c3e29d04-2413-4036-9f55-6c146655a733",
    "resource": {
      "resourceType": "MeasureReport",
      "id": "c3e29d04-2413-4036-9f55-6c146655a733",
      "meta": {
        "profile": [ "http://hl7.org/fhir/us/cqfmeasures/StructureDefinition/test-case-cqfm" ]
      },
      "contained": [ {
        "resourceType": "Parameters",
        "id": "c3effaea-8198-4ab1-b73e-67e8e3109ee1-parameters",
        "parameter": [ {
          "name": "subject",
          "valueString": "6bf88e99-23a4-4c64-82f9-78947836d64a"
        } ]
      } ],
      "extension": [ {
        "url": "http://hl7.org/fhir/StructureDefinition/cqf-inputParameters",
        "valueReference": {
          "reference": "#c3effaea-8198-4ab1-b73e-67e8e3109ee1-parameters"
        }
      }, {
        "url": "http://hl7.org/fhir/us/cqfmeasures/StructureDefinition/cqfm-testCaseDescription",
        "valueMarkdown": "Correct age, Encounter-1 1/29-2/2 and Encounter-2 3/6-3/8 during MP, both have only 1 opioid at discharge"
      } ],
      "modifierExtension": [ {
        "url": "http://hl7.org/fhir/us/cqfmeasures/StructureDefinition/cqfm-isTestCase",
        "valueBoolean": true
      } ],
      "status": "complete",
      "type": "individual",
      "measure": "https://madie.cms.gov/Measure/CMS506FHIRSafeUseofOpioids",
      "period": {
        "start": "2026-01-01",
        "end": "2026-12-31"
      },
      "group": [ {
        "id": "Group_1",
        "population": [ {
          "id": "InitialPopulation_1",
          "code": {
            "coding": [ {
              "system": "http://terminology.hl7.org/CodeSystem/measure-population",
              "code": "initial-population",
              "display": "Initial Population"
            } ]
          },
          "count": 2
        }, {
          "id": "Denominator_1",
          "code": {
            "coding": [ {
              "system": "http://terminology.hl7.org/CodeSystem/measure-population",
              "code": "denominator",
              "display": "Denominator"
            } ]
          },
          "count": 2
        }, {
          "id": "DenominatorExclusion_1",
          "code": {
            "coding": [ {
              "system": "http://terminology.hl7.org/CodeSystem/measure-population",
              "code": "denominator-exclusion",
              "display": "Denominator Exclusion"
            } ]
          },
          "count": 0
        }, {
          "id": "Numerator_1",
          "code": {
            "coding": [ {
              "system": "http://terminology.hl7.org/CodeSystem/measure-population",
              "code": "numerator",
              "display": "Numerator"
            } ]
          },
          "count": 0
        } ],
        "measureScore": {
          "value": 0.0
        }
      } ],
      "evaluatedResource": [ {
        "reference": "Patient/6bf88e99-23a4-4c64-82f9-78947836d64a"
      }, {
        "reference": "Encounter/2313b4e5-b557-4477-befd-6db24d43a5b1"
      }, {
        "reference": "Encounter/0436a5d7-5e9b-4943-8ecb-694dbbff6b24"
      }, {
        "reference": "MedicationRequest/39030bb3-7779-4780-a971-45abec8f443e"
      }, {
        "reference": "MedicationRequest/636115e5-979a-4c21-b147-64bbef3c47dd"
      }, {
        "reference": "Practitioner/c2098501-d055-4aca-b400-9a1bdf553626"
      }, {
        "reference": "Coverage/d7a52b85-9905-4b07-83ac-7417433fe169"
      }, {
        "reference": "Organization/cafa00bf-8486-4529-bf7a-6091f9296337"
      } ]
    },
    "request": {
      "method": "PUT",
      "url": "MeasureReport/c3e29d04-2413-4036-9f55-6c146655a733"
    }
  } ]
}