{
  "resourceType": "Bundle",
  "id": "612e6a5e02c62a011f2e9d40",
  "type": "transaction",
  "entry": [ {
    "fullUrl": "https://madie.cms.gov/Patient/4367cc89-c597-45b8-99b9-ccf6c84f2929",
    "resource": {
      "resourceType": "Patient",
      "id": "4367cc89-c597-45b8-99b9-ccf6c84f2929",
      "meta": {
        "profile": [ "http://hl7.org/fhir/us/qicore/StructureDefinition/qicore-patient" ]
      },
      "text": {
        "status": "generated",
        "div": "<div xmlns=\"http://www.w3.org/1999/xhtml\"><div class=\"hapiHeaderText\">MA_Warfarin_DayOfAnes <b>NUMERPASS </b></div><table class=\"hapiPropertyTable\"><tbody><tr><td>Identifier</td><td>8a73949853d1489520b4f85cece6c975</td></tr><tr><td>Date of birth</td><td><span>02 January 1974</span></td></tr></tbody></table></div>"
      },
      "extension": [ {
        "url": "http://hl7.org/fhir/us/core/StructureDefinition/us-core-race",
        "extension": [ {
          "url": "ombCategory",
          "valueCoding": {
            "system": "urn:oid:2.16.840.1.113883.6.238",
            "code": "1002-5",
            "display": "American Indian or Alaska Native",
            "userSelected": true
          }
        }, {
          "url": "text",
          "valueString": "American Indian or Alaska Native"
        } ]
      }, {
        "url": "http://hl7.org/fhir/us/core/StructureDefinition/us-core-ethnicity",
        "extension": [ {
          "url": "ombCategory",
          "valueCoding": {
            "system": "urn:oid:2.16.840.1.113883.6.238",
            "code": "2135-2",
            "display": "Hispanic or Latino",
            "userSelected": true
          }
        }, {
          "url": "text",
          "valueString": "Hispanic or Latino"
        } ]
      } ],
      "identifier": [ {
        "type": {
          "coding": [ {
            "system": "http://terminology.hl7.org/CodeSystem/v2-0203",
            "code": "MR"
          } ]
        },
        "system": "https://bonnie-fhir.healthit.gov/",
        "value": "612e6a5e02c62a011f2e9d40"
      } ],
      "active": true,
      "name": [ {
        "use": "usual",
        "family": "NUMERPass",
        "given": [ "MAWarfarinDayOfAnes" ]
      } ],
      "gender": "male",
      "birthDate": "1975-01-02"
    },
    "request": {
      "method": "PUT",
      "url": "Patient/4367cc89-c597-45b8-99b9-ccf6c84f2929"
    }
  }, {
    "fullUrl": "https://madie.cms.gov/Encounter/be902fc1-8bda-474d-8919-526f1adf210d",
    "resource": {
      "resourceType": "Encounter",
      "id": "be902fc1-8bda-474d-8919-526f1adf210d",
      "meta": {
        "profile": [ "http://hl7.org/fhir/us/qicore/StructureDefinition/qicore-encounter" ]
      },
      "status": "finished",
      "class": {
        "system": "http://terminology.hl7.org/CodeSystem/v3-ActCode",
        "code": "IMP",
        "display": "inpatient encounter"
      },
      "type": [ {
        "coding": [ {
          "system": "http://snomed.info/sct",
          "code": "8715000"
        } ]
      } ],
      "subject": {
        "reference": "Patient/4367cc89-c597-45b8-99b9-ccf6c84f2929"
      },
      "period": {
        "start": "2026-11-01T08:00:00.000+00:00",
        "end": "2026-11-26T08:15:00.000+00:00"
      },
      "length": {
        "value": 25,
        "unit": "days"
      }
    },
    "request": {
      "method": "PUT",
      "url": "Encounter/be902fc1-8bda-474d-8919-526f1adf210d"
    }
  }, {
    "fullUrl": "https://madie.cms.gov/Coverage/e70c5002-32e4-481c-acd5-5906ca8f94e1",
    "resource": {
      "resourceType": "Coverage",
      "id": "e70c5002-32e4-481c-acd5-5906ca8f94e1",
      "status": "active",
      "beneficiary": {
        "reference": "Patient/4367cc89-c597-45b8-99b9-ccf6c84f2929"
      },
      "period": {
        "start": "1975-01-02T08:00:00.000+00:00"
      },
      "payor": [ {
        "reference": "Organization/6708690b-67b8-4ddd-adb3-0eea636f8eb8"
      } ]
    },
    "request": {
      "method": "PUT",
      "url": "Coverage/e70c5002-32e4-481c-acd5-5906ca8f94e1"
    }
  }, {
    "fullUrl": "https://madie.cms.gov/MedicationAdministration/2a029b70-2f67-44a6-96b9-23113b2e890b",
    "resource": {
      "resourceType": "MedicationAdministration",
      "id": "2a029b70-2f67-44a6-96b9-23113b2e890b",
      "meta": {
        "profile": [ "http://hl7.org/fhir/us/qicore/StructureDefinition/qicore-medicationadministration" ]
      },
      "status": "completed",
      "medicationCodeableConcept": {
        "coding": [ {
          "system": "http://www.nlm.nih.gov/research/umls/rxnorm",
          "code": "855288"
        } ]
      },
      "subject": {
        "reference": "Patient/4367cc89-c597-45b8-99b9-ccf6c84f2929"
      },
      "effectivePeriod": {
        "start": "2026-11-01T10:00:00.000+00:00",
        "end": "2026-12-02T08:15:00.000+00:00"
      }
    },
    "request": {
      "method": "PUT",
      "url": "MedicationAdministration/2a029b70-2f67-44a6-96b9-23113b2e890b"
    }
  }, {
    "fullUrl": "https://madie.cms.gov/Procedure/c7b045a6-ffb0-4916-b1bf-bfdc769e2563",
    "resource": {
      "resourceType": "Procedure",
      "id": "c7b045a6-ffb0-4916-b1bf-bfdc769e2563",
      "meta": {
        "profile": [ "http://hl7.org/fhir/us/qicore/StructureDefinition/qicore-procedure" ]
      },
      "extension": [ {
        "url": "http://hl7.org/fhir/us/qicore/StructureDefinition/qicore-recorded",
        "valueDateTime": "2013-11-01T13:35:00.000+00:00"
      } ],
      "status": "completed",
      "code": {
        "coding": [ {
          "system": "http://www.icd10data.com/icd10pcs",
          "code": "3E030FZ"
        }, {
          "system": "http://snomed.info/sct",
          "code": "18946005"
        } ]
      },
      "subject": {
        "reference": "Patient/4367cc89-c597-45b8-99b9-ccf6c84f2929"
      },
      "performedPeriod": {
        "start": "2026-11-01T09:00:00.000+00:00",
        "end": "2026-11-01T09:15:00.000+00:00"
      }
    },
    "request": {
      "method": "PUT",
      "url": "Procedure/c7b045a6-ffb0-4916-b1bf-bfdc769e2563"
    }
  }, {
    "fullUrl": "https://madie.cms.gov/Organization/6708690b-67b8-4ddd-adb3-0eea636f8eb8",
    "resource": {
      "resourceType": "Organization",
      "id": "6708690b-67b8-4ddd-adb3-0eea636f8eb8",
      "meta": {
        "profile": [ "http://hl7.org/fhir/us/qicore/StructureDefinition/qicore-organization" ]
      },
      "identifier": [ {
        "use": "temp",
        "system": "urn:oid:2.16.840.1.113883.4.4",
        "value": "21-3259825"
      } ],
      "active": true,
      "type": [ {
        "coding": [ {
          "system": "http://terminology.hl7.org/CodeSystem/organization-type",
          "code": "pay",
          "display": "Payer"
        } ]
      } ],
      "name": "Blue Cross Blue Shield of Texas",
      "telecom": [ {
        "system": "phone",
        "value": "(+1) 972-766-6900"
      } ],
      "address": [ {
        "use": "billing",
        "type": "postal",
        "line": [ "P.O. Box 660044" ],
        "city": "Dallas",
        "state": "TX",
        "postalCode": "75266-0044",
        "country": "USA"
      } ]
    },
    "request": {
      "method": "PUT",
      "url": "Organization/6708690b-67b8-4ddd-adb3-0eea636f8eb8"
    }
  }, {
    "fullUrl": "https://madie.cms.gov/Practitioner/466528bd-b8b3-4de0-9eeb-c6996dfa9b53",
    "resource": {
      "resourceType": "Practitioner",
      "id": "466528bd-b8b3-4de0-9eeb-c6996dfa9b53",
      "identifier": [ {
        "system": "http://hl7.org/fhir/sid/us-npi",
        "value": "123456"
      } ],
      "name": [ {
        "family": "Evil",
        "prefix": [ "Dr" ]
      } ]
    },
    "request": {
      "method": "PUT",
      "url": "Practitioner/466528bd-b8b3-4de0-9eeb-c6996dfa9b53"
    }
  }, {
    "fullUrl": "https://madie.cms.gov/MeasureReport/855b6c5f-7343-425b-9c92-8c9daa0a2e82",
    "resource": {
      "resourceType": "MeasureReport",
      "id": "855b6c5f-7343-425b-9c92-8c9daa0a2e82",
      "meta": {
        "profile": [ "http://hl7.org/fhir/us/cqfmeasures/StructureDefinition/test-case-cqfm" ]
      },
      "contained": [ {
        "resourceType": "Parameters",
        "id": "5ccbbdec-e586-423c-9c46-914eab9d8a05-parameters",
        "parameter": [ {
          "name": "subject",
          "valueString": "4367cc89-c597-45b8-99b9-ccf6c84f2929"
        } ]
      } ],
      "extension": [ {
        "url": "http://hl7.org/fhir/StructureDefinition/cqf-inputParameters",
        "valueReference": {
          "reference": "#5ccbbdec-e586-423c-9c46-914eab9d8a05-parameters"
        }
      }, {
        "url": "http://hl7.org/fhir/us/cqfmeasures/StructureDefinition/cqfm-testCaseDescription",
        "valueMarkdown": "warfarin given = 0 day after end of anesthesia\n"
      } ],
      "modifierExtension": [ {
        "url": "http://hl7.org/fhir/us/cqfmeasures/StructureDefinition/cqfm-isTestCase",
        "valueBoolean": true
      } ],
      "status": "complete",
      "type": "individual",
      "measure": "https://madie.cms.gov/Measure/CMS108FHIRVTEProphylaxis",
      "period": {
        "start": "2026-01-01",
        "end": "2026-12-31"
      },
      "group": [ {
        "id": "Group_1",
        "population": [ {
          "id": "InitialPopulation_1",
          "code": {
            "coding": [ {
              "system": "http://terminology.hl7.org/CodeSystem/measure-population",
              "code": "initial-population",
              "display": "Initial Population"
            } ]
          },
          "count": 1
        }, {
          "id": "Denominator_1",
          "code": {
            "coding": [ {
              "system": "http://terminology.hl7.org/CodeSystem/measure-population",
              "code": "denominator",
              "display": "Denominator"
            } ]
          },
          "count": 1
        }, {
          "id": "DenominatorExclusion_1",
          "code": {
            "coding": [ {
              "system": "http://terminology.hl7.org/CodeSystem/measure-population",
              "code": "denominator-exclusion",
              "display": "Denominator Exclusion"
            } ]
          },
          "count": 0
        }, {
          "id": "Numerator_1",
          "code": {
            "coding": [ {
              "system": "http://terminology.hl7.org/CodeSystem/measure-population",
              "code": "numerator",
              "display": "Numerator"
            } ]
          },
          "count": 1
        } ],
        "measureScore": {
          "value": 0.0
        }
      } ],
      "evaluatedResource": [ {
        "reference": "Patient/4367cc89-c597-45b8-99b9-ccf6c84f2929"
      }, {
        "reference": "Encounter/be902fc1-8bda-474d-8919-526f1adf210d"
      }, {
        "reference": "Coverage/e70c5002-32e4-481c-acd5-5906ca8f94e1"
      }, {
        "reference": "MedicationAdministration/2a029b70-2f67-44a6-96b9-23113b2e890b"
      }, {
        "reference": "Procedure/c7b045a6-ffb0-4916-b1bf-bfdc769e2563"
      }, {
        "reference": "Organization/6708690b-67b8-4ddd-adb3-0eea636f8eb8"
      }, {
        "reference": "Practitioner/466528bd-b8b3-4de0-9eeb-c6996dfa9b53"
      } ]
    },
    "request": {
      "method": "PUT",
      "url": "MeasureReport/855b6c5f-7343-425b-9c92-8c9daa0a2e82"
    }
  } ]
}