{
  "resourceType": "Bundle",
  "id": "NUMPass-InitOblique90DaysB4THAFUOblique425DaysAfterTHA",
  "type": "collection",
  "entry": [ {
    "fullUrl": "https://madie.cms.gov/Patient/8c6fe4a4-da12-40bd-94c7-0e932653f672",
    "resource": {
      "resourceType": "Patient",
      "id": "8c6fe4a4-da12-40bd-94c7-0e932653f672",
      "meta": {
        "profile": [ "http://hl7.org/fhir/us/qicore/StructureDefinition/qicore-patient" ]
      },
      "extension": [ {
        "url": "http://hl7.org/fhir/us/core/StructureDefinition/us-core-race",
        "extension": [ {
          "url": "ombCategory",
          "valueCoding": {
            "system": "urn:oid:2.16.840.1.113883.6.238",
            "code": "2028-9",
            "display": "Asian"
          }
        }, {
          "url": "text",
          "valueString": "Asian"
        } ]
      }, {
        "url": "http://hl7.org/fhir/us/core/StructureDefinition/us-core-ethnicity",
        "extension": [ {
          "url": "ombCategory",
          "valueCoding": {
            "system": "urn:oid:2.16.840.1.113883.6.238",
            "code": "2135-2",
            "display": "Hispanic or Latino"
          }
        }, {
          "url": "text",
          "valueString": "Hispanic or Latino"
        } ]
      } ],
      "identifier": [ {
        "system": "http://hospital.smarthealthit.org",
        "value": "999999995"
      } ],
      "name": [ {
        "family": "Bertha",
        "given": [ "Betty" ]
      } ],
      "gender": "female",
      "birthDate": "2007-01-01"
    }
  }, {
    "fullUrl": "https://madie.cms.gov/Procedure/a5c57f98-b952-424e-8b67-20be6ce9b9ec",
    "resource": {
      "resourceType": "Procedure",
      "id": "a5c57f98-b952-424e-8b67-20be6ce9b9ec",
      "meta": {
        "profile": [ "http://hl7.org/fhir/us/qicore/StructureDefinition/qicore-procedure" ]
      },
      "extension": [ {
        "url": "http://hl7.org/fhir/us/qicore/StructureDefinition/qicore-recorded",
        "valueDateTime": "2024-11-01T00:00:00.000+00:00"
      } ],
      "status": "completed",
      "code": {
        "coding": [ {
          "system": "http://www.cms.gov/Medicare/Coding/ICD10",
          "code": "0SR9019",
          "display": "Replacement of Right Hip Joint with Metal Synthetic Substitute, Cemented, Open Approach"
        } ]
      },
      "subject": {
        "reference": "Patient/8c6fe4a4-da12-40bd-94c7-0e932653f672"
      },
      "performedPeriod": {
        "start": "2024-11-01T00:00:00.000+00:00",
        "end": "2024-11-01T01:00:00.000+00:00"
      }
    }
  }, {
    "fullUrl": "https://madie.cms.gov/Encounter/612634ae-9adb-4f5c-875d-35cd37f880eb",
    "resource": {
      "resourceType": "Encounter",
      "id": "612634ae-9adb-4f5c-875d-35cd37f880eb",
      "meta": {
        "profile": [ "http://hl7.org/fhir/us/qicore/StructureDefinition/qicore-encounter" ]
      },
      "status": "finished",
      "class": {
        "system": "http://terminology.hl7.org/CodeSystem/v3-ActCode",
        "code": "AMB",
        "display": "ambulatory"
      },
      "type": [ {
        "coding": [ {
          "system": "http://snomed.info/sct",
          "version": "http://snomed.info/sct/731000124108/version/20250301",
          "code": "281036007",
          "display": "Follow-up consultation (procedure)"
        } ]
      } ],
      "subject": {
        "reference": "Patient/8c6fe4a4-da12-40bd-94c7-0e932653f672"
      },
      "period": {
        "start": "2025-11-01T00:00:00.000+00:00",
        "end": "2025-11-01T01:15:00.000+00:00"
      }
    }
  }, {
    "fullUrl": "https://madie.cms.gov/Observation/458cde03-55ef-46c4-bb92-1191c1549a3d",
    "resource": {
      "resourceType": "Observation",
      "id": "458cde03-55ef-46c4-bb92-1191c1549a3d",
      "meta": {
        "profile": [ "http://hl7.org/fhir/us/qicore/StructureDefinition/qicore-observation-screening-assessment" ]
      },
      "status": "final",
      "category": [ {
        "coding": [ {
          "system": "http://terminology.hl7.org/CodeSystem/observation-category",
          "code": "survey"
        } ]
      } ],
      "code": {
        "coding": [ {
          "system": "http://loinc.org",
          "code": "72026-8",
          "display": "VR-12 Mental component summary (MCS) score - oblique method T-score"
        } ]
      },
      "subject": {
        "reference": "Patient/8c6fe4a4-da12-40bd-94c7-0e932653f672"
      },
      "effectivePeriod": {
        "start": "2024-08-03T00:00:00.000+00:00",
        "end": "2024-08-03T01:00:00.000+00:00"
      },
      "valueInteger": 60
    }
  }, {
    "fullUrl": "https://madie.cms.gov/Observation/7b1c2d60-5a1a-439c-b908-2acdce9d696a",
    "resource": {
      "resourceType": "Observation",
      "id": "7b1c2d60-5a1a-439c-b908-2acdce9d696a",
      "meta": {
        "profile": [ "http://hl7.org/fhir/us/qicore/StructureDefinition/qicore-observation-screening-assessment" ]
      },
      "status": "final",
      "category": [ {
        "coding": [ {
          "system": "http://terminology.hl7.org/CodeSystem/observation-category",
          "code": "survey"
        } ]
      } ],
      "code": {
        "coding": [ {
          "system": "http://loinc.org",
          "code": "72025-0",
          "display": "VR-12 Physical component summary (PCS) score - oblique method T-score"
        } ]
      },
      "subject": {
        "reference": "Patient/8c6fe4a4-da12-40bd-94c7-0e932653f672"
      },
      "effectivePeriod": {
        "start": "2024-08-03T00:00:00.000+00:00",
        "end": "2024-08-03T01:00:00.000+00:00"
      },
      "valueInteger": 60
    }
  }, {
    "fullUrl": "https://madie.cms.gov/Observation/67da0a49-c686-4db6-b382-36c1a455f766",
    "resource": {
      "resourceType": "Observation",
      "id": "67da0a49-c686-4db6-b382-36c1a455f766",
      "meta": {
        "profile": [ "http://hl7.org/fhir/us/qicore/StructureDefinition/qicore-observation-screening-assessment" ]
      },
      "status": "final",
      "category": [ {
        "coding": [ {
          "system": "http://terminology.hl7.org/CodeSystem/observation-category",
          "code": "survey"
        } ]
      } ],
      "code": {
        "coding": [ {
          "system": "http://loinc.org",
          "code": "72026-8",
          "display": "VR-12 Mental component summary (MCS) score - oblique method T-score"
        } ]
      },
      "subject": {
        "reference": "Patient/8c6fe4a4-da12-40bd-94c7-0e932653f672"
      },
      "effectivePeriod": {
        "start": "2025-12-30T00:00:00.000+00:00",
        "end": "2025-12-30T01:00:00.000+00:00"
      },
      "valueInteger": 60
    }
  }, {
    "fullUrl": "https://madie.cms.gov/Observation/a792fd35-cd9a-4281-ba2b-1197c1aff78e",
    "resource": {
      "resourceType": "Observation",
      "id": "a792fd35-cd9a-4281-ba2b-1197c1aff78e",
      "meta": {
        "profile": [ "http://hl7.org/fhir/us/qicore/StructureDefinition/qicore-observation-screening-assessment" ]
      },
      "status": "final",
      "category": [ {
        "coding": [ {
          "system": "http://terminology.hl7.org/CodeSystem/observation-category",
          "code": "survey"
        } ]
      } ],
      "code": {
        "coding": [ {
          "system": "http://loinc.org",
          "code": "72025-0",
          "display": "VR-12 Physical component summary (PCS) score - oblique method T-score"
        } ]
      },
      "subject": {
        "reference": "Patient/8c6fe4a4-da12-40bd-94c7-0e932653f672"
      },
      "effectivePeriod": {
        "start": "2025-12-30T00:00:00.000+00:00",
        "end": "2025-12-30T01:00:00.000+00:00"
      },
      "valueInteger": 60
    }
  }, {
    "fullUrl": "https://madie.cms.gov/MeasureReport/201115a2-b5af-4381-b3b0-2c70f8f33969",
    "resource": {
      "resourceType": "MeasureReport",
      "id": "201115a2-b5af-4381-b3b0-2c70f8f33969",
      "meta": {
        "profile": [ "http://hl7.org/fhir/us/cqfmeasures/StructureDefinition/test-case-cqfm" ]
      },
      "contained": [ {
        "resourceType": "Parameters",
        "id": "fa4ab6ca-492b-4d54-9c20-8b9c5bfcbada-parameters",
        "parameter": [ {
          "name": "subject",
          "valueString": "8c6fe4a4-da12-40bd-94c7-0e932653f672"
        } ]
      } ],
      "extension": [ {
        "url": "http://hl7.org/fhir/StructureDefinition/cqf-inputParameters",
        "valueReference": {
          "reference": "#fa4ab6ca-492b-4d54-9c20-8b9c5bfcbada-parameters"
        }
      }, {
        "url": "http://hl7.org/fhir/us/cqfmeasures/StructureDefinition/cqfm-testCaseDescription",
        "valueMarkdown": "Patient w/ a THA Procedure 11/1, Initial Hip Assessment Oblique 90 days before THA Procedure(8/3), and FollowUp Hip Assessment Oblique 425 days after THA Procedure (12/30)"
      } ],
      "modifierExtension": [ {
        "url": "http://hl7.org/fhir/us/cqfmeasures/StructureDefinition/cqfm-isTestCase",
        "valueBoolean": true
      } ],
      "status": "complete",
      "type": "individual",
      "measure": "https://madie.cms.gov/Measure/CMS56FHIRFuncStatHipReplacement",
      "period": {
        "start": "2026-01-01",
        "end": "2026-12-31"
      },
      "group": [ {
        "id": "Group_1",
        "population": [ {
          "id": "InitialPopulation_1",
          "code": {
            "coding": [ {
              "system": "http://terminology.hl7.org/CodeSystem/measure-population",
              "code": "initial-population",
              "display": "Initial Population"
            } ]
          },
          "count": 1
        }, {
          "id": "Denominator_1",
          "code": {
            "coding": [ {
              "system": "http://terminology.hl7.org/CodeSystem/measure-population",
              "code": "denominator",
              "display": "Denominator"
            } ]
          },
          "count": 1
        }, {
          "id": "DenominatorExclusion_1",
          "code": {
            "coding": [ {
              "system": "http://terminology.hl7.org/CodeSystem/measure-population",
              "code": "denominator-exclusion",
              "display": "Denominator Exclusion"
            } ]
          },
          "count": 0
        }, {
          "id": "Numerator_1",
          "code": {
            "coding": [ {
              "system": "http://terminology.hl7.org/CodeSystem/measure-population",
              "code": "numerator",
              "display": "Numerator"
            } ]
          },
          "count": 1
        } ],
        "measureScore": {
          "value": 1.0
        }
      } ],
      "evaluatedResource": [ {
        "reference": "Patient/8c6fe4a4-da12-40bd-94c7-0e932653f672"
      }, {
        "reference": "Procedure/a5c57f98-b952-424e-8b67-20be6ce9b9ec"
      }, {
        "reference": "Encounter/612634ae-9adb-4f5c-875d-35cd37f880eb"
      }, {
        "reference": "Observation/458cde03-55ef-46c4-bb92-1191c1549a3d"
      }, {
        "reference": "Observation/7b1c2d60-5a1a-439c-b908-2acdce9d696a"
      }, {
        "reference": "Observation/67da0a49-c686-4db6-b382-36c1a455f766"
      }, {
        "reference": "Observation/a792fd35-cd9a-4281-ba2b-1197c1aff78e"
      } ]
    }
  } ]
}