{
  "resourceType": "Bundle",
  "id": "62c880ec0111a60120dc220a",
  "type": "transaction",
  "entry": [ {
    "fullUrl": "https://madie.cms.gov/Patient/91ebcd41-a1a5-45e0-95fd-e2a2799f4459",
    "resource": {
      "resourceType": "Patient",
      "id": "91ebcd41-a1a5-45e0-95fd-e2a2799f4459",
      "meta": {
        "profile": [ "http://hl7.org/fhir/us/qicore/StructureDefinition/qicore-patient" ]
      },
      "text": {
        "status": "generated",
        "div": "<div xmlns=\"http://www.w3.org/1999/xhtml\"><div class=\"hapiHeaderText\">EncPriorMP<b>IPPFailPop1</b></div><table class=\"hapiPropertyTable\"><tbody><tr><td>Identifier</td><td>3a32515f77a3f69506b686cae30ab46d</td></tr><tr><td>Date of birth</td><td><span>13 April 1921</span></td></tr></tbody></table></div>"
      },
      "extension": [ {
        "url": "http://hl7.org/fhir/us/core/StructureDefinition/us-core-race",
        "extension": [ {
          "url": "ombCategory",
          "valueCoding": {
            "system": "urn:oid:2.16.840.1.113883.6.238",
            "code": "1002-5",
            "display": "American Indian or Alaska Native",
            "userSelected": true
          }
        }, {
          "url": "text",
          "valueString": "American Indian or Alaska Native"
        } ]
      }, {
        "url": "http://hl7.org/fhir/us/core/StructureDefinition/us-core-ethnicity",
        "extension": [ {
          "url": "ombCategory",
          "valueCoding": {
            "system": "urn:oid:2.16.840.1.113883.6.238",
            "code": "2135-2",
            "display": "Hispanic or Latino",
            "userSelected": true
          }
        }, {
          "url": "text",
          "valueString": "Hispanic or Latino"
        } ]
      } ],
      "identifier": [ {
        "type": {
          "coding": [ {
            "system": "http://terminology.hl7.org/CodeSystem/v2-0203",
            "code": "MR"
          } ]
        },
        "system": "https://bonnie-fhir.healthit.gov/",
        "value": "62c880ec0111a60120dc220a"
      } ],
      "active": true,
      "name": [ {
        "use": "usual",
        "family": "IPPFailPop1",
        "given": [ "EncPriorMP" ]
      } ],
      "gender": "male",
      "birthDate": "1922-04-13"
    },
    "request": {
      "method": "PUT",
      "url": "Patient/91ebcd41-a1a5-45e0-95fd-e2a2799f4459"
    }
  }, {
    "fullUrl": "https://madie.cms.gov/Condition/147b7f4f-c475-4596-9f95-a1699aef8b7f",
    "resource": {
      "resourceType": "Condition",
      "id": "147b7f4f-c475-4596-9f95-a1699aef8b7f",
      "meta": {
        "profile": [ "http://hl7.org/fhir/us/qicore/StructureDefinition/qicore-condition-problems-health-concerns" ]
      },
      "clinicalStatus": {
        "coding": [ {
          "system": "http://terminology.hl7.org/CodeSystem/condition-clinical",
          "code": "active",
          "display": "active",
          "userSelected": true
        } ]
      },
      "verificationStatus": {
        "coding": [ {
          "system": "http://terminology.hl7.org/CodeSystem/condition-ver-status",
          "code": "confirmed",
          "display": "Confirmed"
        } ]
      },
      "category": [ {
        "coding": [ {
          "system": "http://terminology.hl7.org/CodeSystem/condition-category",
          "code": "problem-list-item",
          "display": "Problem List Item"
        } ]
      } ],
      "code": {
        "coding": [ {
          "system": "http://hl7.org/fhir/sid/icd-10-cm",
          "code": "C44.229"
        } ]
      },
      "subject": {
        "reference": "Patient/91ebcd41-a1a5-45e0-95fd-e2a2799f4459"
      },
      "onsetDateTime": "2021-01-14T10:50:00.000+00:00"
    },
    "request": {
      "method": "PUT",
      "url": "Condition/147b7f4f-c475-4596-9f95-a1699aef8b7f"
    }
  }, {
    "fullUrl": "https://madie.cms.gov/Encounter/3e066da9-56fa-427d-8cbb-7adaaf4c602e",
    "resource": {
      "resourceType": "Encounter",
      "id": "3e066da9-56fa-427d-8cbb-7adaaf4c602e",
      "meta": {
        "profile": [ "http://hl7.org/fhir/us/qicore/StructureDefinition/qicore-encounter" ]
      },
      "status": "finished",
      "class": {
        "system": "http://terminology.hl7.org/CodeSystem/v3-ActCode",
        "code": "AMB",
        "display": "ambulatory",
        "userSelected": true
      },
      "type": [ {
        "coding": [ {
          "system": "http://snomed.info/sct",
          "code": "185463005"
        } ]
      } ],
      "subject": {
        "reference": "Patient/91ebcd41-a1a5-45e0-95fd-e2a2799f4459"
      },
      "period": {
        "start": "2024-12-29T10:50:00.000+00:00",
        "end": "2024-12-29T10:50:00.000+00:00"
      }
    },
    "request": {
      "method": "PUT",
      "url": "Encounter/3e066da9-56fa-427d-8cbb-7adaaf4c602e"
    }
  }, {
    "fullUrl": "https://madie.cms.gov/Coverage/69b7dc3e-419b-4d3f-a68e-642db7a0e481",
    "resource": {
      "resourceType": "Coverage",
      "id": "69b7dc3e-419b-4d3f-a68e-642db7a0e481",
      "meta": {
        "profile": [ "http://hl7.org/fhir/us/qicore/StructureDefinition/qicore-coverage" ]
      },
      "status": "active",
      "beneficiary": {
        "reference": "Patient/91ebcd41-a1a5-45e0-95fd-e2a2799f4459"
      },
      "period": {
        "start": "1922-04-13T08:00:00.000+00:00"
      },
      "payor": [ {
        "reference": "Organization/7fb76349-bbb7-423e-86b8-acfd57c746ff"
      } ]
    },
    "request": {
      "method": "PUT",
      "url": "Coverage/69b7dc3e-419b-4d3f-a68e-642db7a0e481"
    }
  }, {
    "fullUrl": "https://madie.cms.gov/Procedure/3228e75d-ae9e-40d5-a4c6-c1a4b96094b3",
    "resource": {
      "resourceType": "Procedure",
      "id": "3228e75d-ae9e-40d5-a4c6-c1a4b96094b3",
      "meta": {
        "profile": [ "http://hl7.org/fhir/us/qicore/StructureDefinition/qicore-procedure" ]
      },
      "extension": [ {
        "url": "http://hl7.org/fhir/us/qicore/StructureDefinition/qicore-recorded",
        "valueDateTime": "2024-12-27T10:35:00.000+00:00"
      } ],
      "status": "completed",
      "code": {
        "coding": [ {
          "system": "http://www.ama-assn.org/go/cpt",
          "code": "96405"
        } ]
      },
      "subject": {
        "reference": "Patient/91ebcd41-a1a5-45e0-95fd-e2a2799f4459"
      },
      "performedPeriod": {
        "start": "2024-12-27T10:30:00.000+00:00",
        "end": "2024-12-27T10:30:00.000+00:00"
      }
    },
    "request": {
      "method": "PUT",
      "url": "Procedure/3228e75d-ae9e-40d5-a4c6-c1a4b96094b3"
    }
  }, {
    "fullUrl": "https://madie.cms.gov/Procedure/c263e07e-e5ca-40c8-ae77-2966e96dc995",
    "resource": {
      "resourceType": "Procedure",
      "id": "c263e07e-e5ca-40c8-ae77-2966e96dc995",
      "meta": {
        "profile": [ "http://hl7.org/fhir/us/qicore/StructureDefinition/qicore-procedure" ]
      },
      "extension": [ {
        "url": "http://hl7.org/fhir/us/qicore/StructureDefinition/qicore-recorded",
        "valueDateTime": "2026-01-15T12:50:00.000+00:00"
      } ],
      "status": "completed",
      "code": {
        "coding": [ {
          "system": "http://www.ama-assn.org/go/cpt",
          "code": "96405"
        } ]
      },
      "subject": {
        "reference": "Patient/91ebcd41-a1a5-45e0-95fd-e2a2799f4459"
      },
      "performedPeriod": {
        "start": "2026-01-15T12:45:00.000+00:00",
        "end": "2026-01-15T12:45:00.000+00:00"
      }
    },
    "request": {
      "method": "PUT",
      "url": "Procedure/c263e07e-e5ca-40c8-ae77-2966e96dc995"
    }
  }, {
    "fullUrl": "https://madie.cms.gov/Organization/7fb76349-bbb7-423e-86b8-acfd57c746ff",
    "resource": {
      "resourceType": "Organization",
      "id": "7fb76349-bbb7-423e-86b8-acfd57c746ff",
      "meta": {
        "profile": [ "http://hl7.org/fhir/us/qicore/StructureDefinition/qicore-organization" ]
      },
      "identifier": [ {
        "use": "temp",
        "system": "urn:oid:2.16.840.1.113883.4.4",
        "value": "21-3259825"
      } ],
      "active": true,
      "type": [ {
        "coding": [ {
          "system": "http://terminology.hl7.org/CodeSystem/organization-type",
          "code": "pay",
          "display": "Payer"
        } ]
      } ],
      "name": "Blue Cross Blue Shield of Texas",
      "telecom": [ {
        "system": "phone",
        "value": "(+1) 972-766-6900"
      } ],
      "address": [ {
        "use": "billing",
        "type": "postal",
        "line": [ "P.O. Box 660044" ],
        "city": "Dallas",
        "state": "TX",
        "postalCode": "75266-0044",
        "country": "USA"
      } ]
    },
    "request": {
      "method": "PUT",
      "url": "Organization/7fb76349-bbb7-423e-86b8-acfd57c746ff"
    }
  }, {
    "fullUrl": "https://madie.cms.gov/Practitioner/50d752d6-2731-4aab-9dd6-a78ceb204f19",
    "resource": {
      "resourceType": "Practitioner",
      "id": "50d752d6-2731-4aab-9dd6-a78ceb204f19",
      "meta": {
        "profile": [ "http://hl7.org/fhir/us/qicore/StructureDefinition/qicore-practitioner" ]
      },
      "identifier": [ {
        "system": "http://hl7.org/fhir/sid/us-npi",
        "value": "123456"
      } ],
      "name": [ {
        "family": "Evil",
        "prefix": [ "Dr" ]
      } ]
    },
    "request": {
      "method": "PUT",
      "url": "Practitioner/50d752d6-2731-4aab-9dd6-a78ceb204f19"
    }
  }, {
    "fullUrl": "https://madie.cms.gov/MeasureReport/75b10a61-a4fc-4e98-a759-83c606f715be",
    "resource": {
      "resourceType": "MeasureReport",
      "id": "75b10a61-a4fc-4e98-a759-83c606f715be",
      "meta": {
        "profile": [ "http://hl7.org/fhir/us/cqfmeasures/StructureDefinition/test-case-cqfm" ]
      },
      "contained": [ {
        "resourceType": "Parameters",
        "id": "b855aeba-3fde-4565-80c2-3eafba409eac-parameters",
        "parameter": [ {
          "name": "subject",
          "valueString": "91ebcd41-a1a5-45e0-95fd-e2a2799f4459"
        } ]
      } ],
      "extension": [ {
        "url": "http://hl7.org/fhir/StructureDefinition/cqf-inputParameters",
        "valueReference": {
          "reference": "#b855aeba-3fde-4565-80c2-3eafba409eac-parameters"
        }
      }, {
        "url": "http://hl7.org/fhir/us/cqfmeasures/StructureDefinition/cqfm-testCaseDescription",
        "valueMarkdown": "Patient with cancer diagnosis that overlaps the office visit. Office visit occurs prior to the measurement period. \n"
      } ],
      "modifierExtension": [ {
        "url": "http://hl7.org/fhir/us/cqfmeasures/StructureDefinition/cqfm-isTestCase",
        "valueBoolean": true
      } ],
      "status": "complete",
      "type": "individual",
      "measure": "https://madie.cms.gov/Measure/CMS157FHIRPainIntensityQuantified",
      "period": {
        "start": "2026-01-01",
        "end": "2026-12-31"
      },
      "group": [ {
        "id": "Group_1",
        "population": [ {
          "id": "InitialPopulation_1",
          "code": {
            "coding": [ {
              "system": "http://terminology.hl7.org/CodeSystem/measure-population",
              "code": "initial-population",
              "display": "Initial Population"
            } ]
          },
          "count": 0
        }, {
          "id": "Denominator_1",
          "code": {
            "coding": [ {
              "system": "http://terminology.hl7.org/CodeSystem/measure-population",
              "code": "denominator",
              "display": "Denominator"
            } ]
          },
          "count": 0
        }, {
          "id": "Numerator_1",
          "code": {
            "coding": [ {
              "system": "http://terminology.hl7.org/CodeSystem/measure-population",
              "code": "numerator",
              "display": "Numerator"
            } ]
          },
          "count": 0
        } ],
        "measureScore": {
          "value": 0.0
        }
      }, {
        "id": "Group_2",
        "population": [ {
          "id": "InitialPopulation_2",
          "code": {
            "coding": [ {
              "system": "http://terminology.hl7.org/CodeSystem/measure-population",
              "code": "initial-population",
              "display": "Initial Population"
            } ]
          },
          "count": 0
        }, {
          "id": "Denominator_2",
          "code": {
            "coding": [ {
              "system": "http://terminology.hl7.org/CodeSystem/measure-population",
              "code": "denominator",
              "display": "Denominator"
            } ]
          },
          "count": 0
        }, {
          "id": "Numerator_2",
          "code": {
            "coding": [ {
              "system": "http://terminology.hl7.org/CodeSystem/measure-population",
              "code": "numerator",
              "display": "Numerator"
            } ]
          },
          "count": 0
        } ],
        "measureScore": {
          "value": 0.0
        }
      } ],
      "evaluatedResource": [ {
        "reference": "Patient/91ebcd41-a1a5-45e0-95fd-e2a2799f4459"
      }, {
        "reference": "Condition/147b7f4f-c475-4596-9f95-a1699aef8b7f"
      }, {
        "reference": "Encounter/3e066da9-56fa-427d-8cbb-7adaaf4c602e"
      }, {
        "reference": "Coverage/69b7dc3e-419b-4d3f-a68e-642db7a0e481"
      }, {
        "reference": "Procedure/3228e75d-ae9e-40d5-a4c6-c1a4b96094b3"
      }, {
        "reference": "Procedure/c263e07e-e5ca-40c8-ae77-2966e96dc995"
      }, {
        "reference": "Organization/7fb76349-bbb7-423e-86b8-acfd57c746ff"
      }, {
        "reference": "Practitioner/50d752d6-2731-4aab-9dd6-a78ceb204f19"
      } ]
    },
    "request": {
      "method": "PUT",
      "url": "MeasureReport/75b10a61-a4fc-4e98-a759-83c606f715be"
    }
  } ]
}