{
  "resourceType": "Bundle",
  "id": "63487c2e0968f8012254016f",
  "type": "transaction",
  "entry": [ {
    "fullUrl": "https://madie.cms.gov/Patient/ef3e4256-a321-4ce0-812b-ec7e7158085a",
    "resource": {
      "resourceType": "Patient",
      "id": "ef3e4256-a321-4ce0-812b-ec7e7158085a",
      "meta": {
        "profile": [ "http://hl7.org/fhir/us/qicore/StructureDefinition/qicore-patient" ]
      },
      "text": {
        "status": "generated",
        "div": "<div xmlns=\"http://www.w3.org/1999/xhtml\"><div class=\"hapiHeaderText\">EGAGT37weeks<b>DENOMPASS</b></div><table class=\"hapiPropertyTable\"><tbody><tr><td>Identifier</td><td>3d63596528a6709b3c477184d2beceba721ef15e438ac396acce60f49e6f846c</td></tr><tr><td>Date of birth</td><td><span>14 February 1985</span></td></tr></tbody></table></div>"
      },
      "extension": [ {
        "url": "http://hl7.org/fhir/us/core/StructureDefinition/us-core-race",
        "extension": [ {
          "url": "ombCategory",
          "valueCoding": {
            "system": "urn:oid:2.16.840.1.113883.6.238",
            "code": "1002-5",
            "display": "American Indian or Alaska Native",
            "userSelected": true
          }
        }, {
          "url": "text",
          "valueString": "American Indian or Alaska Native"
        } ]
      }, {
        "url": "http://hl7.org/fhir/us/core/StructureDefinition/us-core-ethnicity",
        "extension": [ {
          "url": "ombCategory",
          "valueCoding": {
            "system": "urn:oid:2.16.840.1.113883.6.238",
            "code": "2135-2",
            "display": "Hispanic or Latino",
            "userSelected": true
          }
        }, {
          "url": "text",
          "valueString": "Hispanic or Latino"
        } ]
      } ],
      "identifier": [ {
        "type": {
          "coding": [ {
            "system": "http://terminology.hl7.org/CodeSystem/v2-0203",
            "code": "MR"
          } ]
        },
        "system": "https://bonnie-fhir.healthit.gov/",
        "value": "63487c2e0968f8012254016f"
      } ],
      "active": true,
      "name": [ {
        "use": "usual",
        "family": "DENOMPass",
        "given": [ "EGAGT37weeks" ]
      } ],
      "gender": "female",
      "birthDate": "1998-02-14"
    },
    "request": {
      "method": "PUT",
      "url": "Patient/ef3e4256-a321-4ce0-812b-ec7e7158085a"
    }
  }, {
    "fullUrl": "https://madie.cms.gov/Observation/110b1f86-4352-4429-9306-85d805290689",
    "resource": {
      "resourceType": "Observation",
      "id": "110b1f86-4352-4429-9306-85d805290689",
      "meta": {
        "profile": [ "http://hl7.org/fhir/us/qicore/StructureDefinition/qicore-simple-observation" ]
      },
      "status": "final",
      "category": [ {
        "coding": [ {
          "system": "http://terminology.hl7.org/CodeSystem/observation-category",
          "code": "exam",
          "display": "exam",
          "userSelected": true
        } ]
      } ],
      "code": {
        "coding": [ {
          "system": "http://loinc.org",
          "code": "11996-6"
        } ]
      },
      "subject": {
        "reference": "Patient/ef3e4256-a321-4ce0-812b-ec7e7158085a"
      },
      "effectiveDateTime": "2026-06-08T08:00:00.000+00:00",
      "performer": [ {
        "reference": "Organization/example1",
        "display": "Hendricks Country Hospital"
      } ],
      "valueInteger": 1
    },
    "request": {
      "method": "PUT",
      "url": "Observation/110b1f86-4352-4429-9306-85d805290689"
    }
  }, {
    "fullUrl": "https://madie.cms.gov/Observation/74f7f1b7-4a40-44af-9ed8-24d1966bfb00",
    "resource": {
      "resourceType": "Observation",
      "id": "74f7f1b7-4a40-44af-9ed8-24d1966bfb00",
      "meta": {
        "profile": [ "http://hl7.org/fhir/us/qicore/StructureDefinition/qicore-simple-observation" ]
      },
      "status": "final",
      "category": [ {
        "coding": [ {
          "system": "http://terminology.hl7.org/CodeSystem/observation-category",
          "code": "exam",
          "display": "exam",
          "userSelected": true
        } ]
      } ],
      "code": {
        "coding": [ {
          "system": "http://loinc.org",
          "code": "11884-4"
        } ]
      },
      "subject": {
        "reference": "Patient/ef3e4256-a321-4ce0-812b-ec7e7158085a"
      },
      "effectiveDateTime": "2026-06-08T09:15:00.000+00:00",
      "performer": [ {
        "reference": "Organization/example1",
        "display": "Hendricks Country Hospital"
      } ],
      "valueQuantity": {
        "value": 38,
        "system": "http://unitsofmeasure.org",
        "code": "wk"
      }
    },
    "request": {
      "method": "PUT",
      "url": "Observation/74f7f1b7-4a40-44af-9ed8-24d1966bfb00"
    }
  }, {
    "fullUrl": "https://madie.cms.gov/Observation/f6c99722-aa43-488b-b1ef-d79e8f865e30",
    "resource": {
      "resourceType": "Observation",
      "id": "f6c99722-aa43-488b-b1ef-d79e8f865e30",
      "meta": {
        "profile": [ "http://hl7.org/fhir/us/qicore/StructureDefinition/qicore-simple-observation" ]
      },
      "status": "final",
      "category": [ {
        "coding": [ {
          "system": "http://terminology.hl7.org/CodeSystem/observation-category",
          "code": "exam",
          "display": "exam",
          "userSelected": true
        } ]
      } ],
      "code": {
        "coding": [ {
          "system": "http://loinc.org",
          "code": "93857-1"
        } ]
      },
      "subject": {
        "reference": "Patient/ef3e4256-a321-4ce0-812b-ec7e7158085a"
      },
      "effectiveDateTime": "2026-06-08T09:15:00.000+00:00",
      "performer": [ {
        "reference": "Organization/example1",
        "display": "Hendricks Country Hospital"
      } ],
      "valueDateTime": "2026-06-08T09:15:00.000+00:00"
    },
    "request": {
      "method": "PUT",
      "url": "Observation/f6c99722-aa43-488b-b1ef-d79e8f865e30"
    }
  }, {
    "fullUrl": "https://madie.cms.gov/Encounter/ef1a0914-1414-46b5-9dc0-cf57fb8a6b78",
    "resource": {
      "resourceType": "Encounter",
      "id": "ef1a0914-1414-46b5-9dc0-cf57fb8a6b78",
      "meta": {
        "profile": [ "http://hl7.org/fhir/us/qicore/StructureDefinition/qicore-encounter" ]
      },
      "status": "finished",
      "class": {
        "system": "http://terminology.hl7.org/CodeSystem/v3-ActCode",
        "code": "IMP",
        "display": "inpatient encounter"
      },
      "type": [ {
        "coding": [ {
          "system": "http://snomed.info/sct",
          "code": "183452005"
        } ]
      } ],
      "subject": {
        "reference": "Patient/ef3e4256-a321-4ce0-812b-ec7e7158085a"
      },
      "period": {
        "start": "2026-06-08T08:00:00.000+00:00",
        "end": "2026-06-10T08:15:00.000+00:00"
      },
      "length": {
        "value": 2,
        "unit": "days"
      },
      "reasonCode": [ {
        "coding": [ {
          "system": "http://snomed.info/sct",
          "code": "169826009",
          "display": "Single live birth from singleton pregnancy (finding)"
        } ]
      } ]
    },
    "request": {
      "method": "PUT",
      "url": "Encounter/ef1a0914-1414-46b5-9dc0-cf57fb8a6b78"
    }
  }, {
    "fullUrl": "https://madie.cms.gov/Coverage/5f20077c-0648-4f28-b050-ba3a2f8cd975",
    "resource": {
      "resourceType": "Coverage",
      "id": "5f20077c-0648-4f28-b050-ba3a2f8cd975",
      "meta": {
        "profile": [ "http://hl7.org/fhir/us/qicore/StructureDefinition/qicore-coverage" ]
      },
      "status": "active",
      "subscriberId": "523435",
      "beneficiary": {
        "reference": "Patient/ef3e4256-a321-4ce0-812b-ec7e7158085a"
      },
      "relationship": {
        "coding": [ {
          "system": "http://terminology.hl7.org/CodeSystem/subscriber-relationship",
          "code": "self"
        } ]
      },
      "payor": [ {
        "reference": "Organization/2f16f2c5-7715-40e8-82a2-071884c09b85"
      } ]
    },
    "request": {
      "method": "PUT",
      "url": "Coverage/5f20077c-0648-4f28-b050-ba3a2f8cd975"
    }
  }, {
    "fullUrl": "https://madie.cms.gov/Procedure/a9b8edf9-672d-4fb8-8bed-6e0179f0b616",
    "resource": {
      "resourceType": "Procedure",
      "id": "a9b8edf9-672d-4fb8-8bed-6e0179f0b616",
      "meta": {
        "profile": [ "http://hl7.org/fhir/us/qicore/StructureDefinition/qicore-procedure" ]
      },
      "extension": [ {
        "url": "http://hl7.org/fhir/us/qicore/StructureDefinition/qicore-recorded",
        "valueDateTime": "2014-04-05T13:35:00.000+00:00"
      } ],
      "status": "completed",
      "code": {
        "coding": [ {
          "system": "http://www.cms.gov/Medicare/Coding/ICD10",
          "code": "10D07Z4",
          "display": "Extraction of Products of Conception, Mid Forceps, Via Natural or Artificial Opening"
        } ]
      },
      "subject": {
        "reference": "Patient/ef3e4256-a321-4ce0-812b-ec7e7158085a"
      },
      "performedPeriod": {
        "start": "2026-06-08T08:00:00.000+00:00",
        "end": "2026-06-08T09:15:00.000+00:00"
      }
    },
    "request": {
      "method": "PUT",
      "url": "Procedure/a9b8edf9-672d-4fb8-8bed-6e0179f0b616"
    }
  }, {
    "fullUrl": "https://madie.cms.gov/Organization/2f16f2c5-7715-40e8-82a2-071884c09b85",
    "resource": {
      "resourceType": "Organization",
      "id": "2f16f2c5-7715-40e8-82a2-071884c09b85",
      "meta": {
        "profile": [ "http://hl7.org/fhir/us/qicore/StructureDefinition/qicore-organization" ]
      },
      "identifier": [ {
        "use": "temp",
        "system": "urn:oid:2.16.840.1.113883.4.4",
        "value": "21-3259825"
      } ],
      "active": true,
      "type": [ {
        "coding": [ {
          "system": "http://terminology.hl7.org/CodeSystem/organization-type",
          "code": "pay",
          "display": "Payer"
        } ]
      } ],
      "name": "Blue Cross Blue Shield of Texas",
      "telecom": [ {
        "system": "phone",
        "value": "(+1) 972-766-6900"
      } ],
      "address": [ {
        "use": "billing",
        "type": "postal",
        "line": [ "P.O. Box 660044" ],
        "city": "Dallas",
        "state": "TX",
        "postalCode": "75266-0044",
        "country": "USA"
      } ]
    },
    "request": {
      "method": "PUT",
      "url": "Organization/2f16f2c5-7715-40e8-82a2-071884c09b85"
    }
  }, {
    "fullUrl": "https://madie.cms.gov/Practitioner/c22bf36f-1491-47b9-86e0-674d3ba6ec2b",
    "resource": {
      "resourceType": "Practitioner",
      "id": "c22bf36f-1491-47b9-86e0-674d3ba6ec2b",
      "meta": {
        "profile": [ "http://hl7.org/fhir/us/qicore/StructureDefinition/qicore-practitioner" ]
      },
      "identifier": [ {
        "system": "http://hl7.org/fhir/sid/us-npi",
        "value": "1234567890"
      } ],
      "name": [ {
        "family": "Evil",
        "prefix": [ "Dr" ]
      } ]
    },
    "request": {
      "method": "PUT",
      "url": "Practitioner/c22bf36f-1491-47b9-86e0-674d3ba6ec2b"
    }
  }, {
    "fullUrl": "https://madie.cms.gov/MeasureReport/34cf0723-cdb6-496d-a7a8-8a040f831be6",
    "resource": {
      "resourceType": "MeasureReport",
      "id": "34cf0723-cdb6-496d-a7a8-8a040f831be6",
      "meta": {
        "profile": [ "http://hl7.org/fhir/us/cqfmeasures/StructureDefinition/test-case-cqfm" ]
      },
      "contained": [ {
        "resourceType": "Parameters",
        "id": "41f1d1ce-9e3c-4cb3-bce2-391580931104-parameters",
        "parameter": [ {
          "name": "subject",
          "valueString": "ef3e4256-a321-4ce0-812b-ec7e7158085a"
        } ]
      } ],
      "extension": [ {
        "url": "http://hl7.org/fhir/StructureDefinition/cqf-inputParameters",
        "valueReference": {
          "reference": "#41f1d1ce-9e3c-4cb3-bce2-391580931104-parameters"
        }
      }, {
        "url": "http://hl7.org/fhir/us/cqfmeasures/StructureDefinition/cqfm-testCaseDescription",
        "valueMarkdown": "Passes: IP, encounter dx of delivery of singleton, gravida1, assessed EGA38 weeks\n"
      } ],
      "modifierExtension": [ {
        "url": "http://hl7.org/fhir/us/cqfmeasures/StructureDefinition/cqfm-isTestCase",
        "valueBoolean": true
      } ],
      "status": "complete",
      "type": "individual",
      "measure": "https://madie.cms.gov/Measure/CMS0334FHIRPCCesareanBirth",
      "period": {
        "start": "2026-01-01",
        "end": "2026-12-31"
      },
      "group": [ {
        "id": "Group_1",
        "population": [ {
          "id": "InitialPopulation_1",
          "code": {
            "coding": [ {
              "system": "http://terminology.hl7.org/CodeSystem/measure-population",
              "code": "initial-population",
              "display": "Initial Population"
            } ]
          },
          "count": 1
        }, {
          "id": "Denominator_1",
          "code": {
            "coding": [ {
              "system": "http://terminology.hl7.org/CodeSystem/measure-population",
              "code": "denominator",
              "display": "Denominator"
            } ]
          },
          "count": 1
        }, {
          "id": "DenominatorExclusion_1",
          "code": {
            "coding": [ {
              "system": "http://terminology.hl7.org/CodeSystem/measure-population",
              "code": "denominator-exclusion",
              "display": "Denominator Exclusion"
            } ]
          },
          "count": 0
        }, {
          "id": "Numerator_1",
          "code": {
            "coding": [ {
              "system": "http://terminology.hl7.org/CodeSystem/measure-population",
              "code": "numerator",
              "display": "Numerator"
            } ]
          },
          "count": 0
        } ],
        "measureScore": {
          "value": 0.0
        }
      } ],
      "evaluatedResource": [ {
        "reference": "Patient/ef3e4256-a321-4ce0-812b-ec7e7158085a"
      }, {
        "reference": "Observation/110b1f86-4352-4429-9306-85d805290689"
      }, {
        "reference": "Observation/74f7f1b7-4a40-44af-9ed8-24d1966bfb00"
      }, {
        "reference": "Observation/f6c99722-aa43-488b-b1ef-d79e8f865e30"
      }, {
        "reference": "Encounter/ef1a0914-1414-46b5-9dc0-cf57fb8a6b78"
      }, {
        "reference": "Coverage/5f20077c-0648-4f28-b050-ba3a2f8cd975"
      }, {
        "reference": "Procedure/a9b8edf9-672d-4fb8-8bed-6e0179f0b616"
      }, {
        "reference": "Organization/2f16f2c5-7715-40e8-82a2-071884c09b85"
      }, {
        "reference": "Practitioner/c22bf36f-1491-47b9-86e0-674d3ba6ec2b"
      } ]
    },
    "request": {
      "method": "PUT",
      "url": "MeasureReport/34cf0723-cdb6-496d-a7a8-8a040f831be6"
    }
  } ]
}