{
  "resourceType": "Bundle",
  "id": "62ec2fa6ea03a4ebacd6a087",
  "type": "collection",
  "entry": [ {
    "fullUrl": "https://madie.cms.gov/Patient/ebea0fbe-8ab4-43a2-8bfa-5117bb8d56a9",
    "resource": {
      "resourceType": "Patient",
      "id": "ebea0fbe-8ab4-43a2-8bfa-5117bb8d56a9",
      "meta": {
        "profile": [ "http://hl7.org/fhir/us/qicore/StructureDefinition/qicore-patient" ]
      },
      "extension": [ {
        "url": "http://hl7.org/fhir/us/core/StructureDefinition/us-core-race",
        "extension": [ {
          "url": "ombCategory",
          "valueCoding": {
            "system": "urn:oid:2.16.840.1.113883.6.238",
            "code": "1002-5",
            "display": "American Indian or Alaska Native",
            "userSelected": true
          }
        }, {
          "url": "text",
          "valueString": "American Indian or Alaska Native"
        } ]
      }, {
        "url": "http://hl7.org/fhir/us/core/StructureDefinition/us-core-ethnicity",
        "extension": [ {
          "url": "ombCategory",
          "valueCoding": {
            "system": "urn:oid:2.16.840.1.113883.6.238",
            "code": "2135-2",
            "display": "Hispanic or Latino",
            "userSelected": true
          }
        }, {
          "url": "text",
          "valueString": "Hispanic or Latino"
        } ]
      } ],
      "identifier": [ {
        "type": {
          "coding": [ {
            "system": "http://terminology.hl7.org/CodeSystem/v2-0203",
            "code": "MR"
          } ]
        },
        "system": "https://bonnie-fhir.healthit.gov/",
        "value": "62ec2fa6ea03a4ebacd6a087"
      } ],
      "name": [ {
        "family": "NumerFail",
        "given": [ "MedsNoDocAfterEncPeriod" ]
      } ],
      "gender": "unknown",
      "birthDate": "1967-01-19"
    }
  }, {
    "fullUrl": "https://madie.cms.gov/Encounter/d5de2774-a16e-4c4c-9c16-d0f073516039",
    "resource": {
      "resourceType": "Encounter",
      "id": "d5de2774-a16e-4c4c-9c16-d0f073516039",
      "meta": {
        "profile": [ "http://hl7.org/fhir/us/qicore/StructureDefinition/qicore-encounter" ]
      },
      "status": "finished",
      "class": {
        "system": "http://terminology.hl7.org/CodeSystem/v3-ActCode",
        "code": "IMP",
        "display": "inpatient encounter"
      },
      "type": [ {
        "coding": [ {
          "system": "http://snomed.info/sct",
          "code": "10197000",
          "display": "Psychiatric interview and evaluation (procedure)",
          "userSelected": true
        } ]
      } ],
      "subject": {
        "reference": "Patient/ebea0fbe-8ab4-43a2-8bfa-5117bb8d56a9"
      },
      "period": {
        "start": "2026-10-03T10:00:00.000+00:00",
        "end": "2026-10-03T11:15:00.000+00:00"
      }
    }
  }, {
    "fullUrl": "https://madie.cms.gov/Task/fb016015-ee01-41ce-b57b-e80a1d39b78a",
    "resource": {
      "resourceType": "Task",
      "id": "fb016015-ee01-41ce-b57b-e80a1d39b78a",
      "meta": {
        "profile": [ "http://hl7.org/fhir/us/qicore/StructureDefinition/qicore-task" ]
      },
      "identifier": [ {
        "use": "official",
        "system": "http:/goodhealth.org/identifiers",
        "value": "20170201-002"
      } ],
      "status": "accepted",
      "intent": "proposal",
      "priority": "routine",
      "code": {
        "coding": [ {
          "system": "http://snomed.info/sct",
          "code": "428191000124101",
          "display": "Documentation of current medications (procedure)",
          "userSelected": true
        } ]
      },
      "for": {
        "reference": "Patient/ebea0fbe-8ab4-43a2-8bfa-5117bb8d56a9"
      },
      "executionPeriod": {
        "start": "2026-08-04T02:00:00.000+00:00"
      },
      "authoredOn": "2026-08-04T12:00:00.000+00:00"
    }
  }, {
    "fullUrl": "https://madie.cms.gov/MeasureReport/3b81639a-7952-4678-9b98-b382d7a66d7b",
    "resource": {
      "resourceType": "MeasureReport",
      "id": "3b81639a-7952-4678-9b98-b382d7a66d7b",
      "meta": {
        "profile": [ "http://hl7.org/fhir/us/cqfmeasures/StructureDefinition/test-case-cqfm" ]
      },
      "contained": [ {
        "resourceType": "Parameters",
        "id": "38663989-7d33-40c3-b4a4-45540612cce4-parameters",
        "parameter": [ {
          "name": "subject",
          "valueString": "ebea0fbe-8ab4-43a2-8bfa-5117bb8d56a9"
        } ]
      } ],
      "extension": [ {
        "url": "http://hl7.org/fhir/StructureDefinition/cqf-inputParameters",
        "valueReference": {
          "reference": "#38663989-7d33-40c3-b4a4-45540612cce4-parameters"
        }
      }, {
        "url": "http://hl7.org/fhir/us/cqfmeasures/StructureDefinition/cqfm-testCaseDescription",
        "valueMarkdown": "Qualifying encounter (status finished) during MP.   Medications documented after encounter period (edge test) status = received"
      } ],
      "modifierExtension": [ {
        "url": "http://hl7.org/fhir/us/cqfmeasures/StructureDefinition/cqfm-isTestCase",
        "valueBoolean": true
      } ],
      "status": "complete",
      "type": "individual",
      "measure": "https://madie.cms.gov/Measure/CMS68FHIRDocumentationCurrentMeds",
      "period": {
        "start": "2026-01-01",
        "end": "2026-12-31"
      },
      "group": [ {
        "id": "Group_1",
        "population": [ {
          "id": "InitialPopulation_1",
          "code": {
            "coding": [ {
              "system": "http://terminology.hl7.org/CodeSystem/measure-population",
              "code": "initial-population",
              "display": "Initial Population"
            } ]
          },
          "count": 1
        }, {
          "id": "Denominator_1",
          "code": {
            "coding": [ {
              "system": "http://terminology.hl7.org/CodeSystem/measure-population",
              "code": "denominator",
              "display": "Denominator"
            } ]
          },
          "count": 1
        }, {
          "id": "Numerator_1",
          "code": {
            "coding": [ {
              "system": "http://terminology.hl7.org/CodeSystem/measure-population",
              "code": "numerator",
              "display": "Numerator"
            } ]
          },
          "count": 0
        }, {
          "id": "DenominatorException_1",
          "code": {
            "coding": [ {
              "system": "http://terminology.hl7.org/CodeSystem/measure-population",
              "code": "denominator-exception",
              "display": "Denominator Exception"
            } ]
          },
          "count": 0
        } ],
        "measureScore": {
          "value": 0.0
        }
      } ],
      "evaluatedResource": [ {
        "reference": "Patient/ebea0fbe-8ab4-43a2-8bfa-5117bb8d56a9"
      }, {
        "reference": "Encounter/d5de2774-a16e-4c4c-9c16-d0f073516039"
      }, {
        "reference": "Task/fb016015-ee01-41ce-b57b-e80a1d39b78a"
      } ]
    }
  } ]
}