{
  "resourceType": "Bundle",
  "id": "63487c2e0968f8012254016d",
  "type": "transaction",
  "entry": [ {
    "fullUrl": "https://madie.cms.gov/Patient/36c39312-74f4-4e86-9ef8-0c7e191000eb",
    "resource": {
      "resourceType": "Patient",
      "id": "36c39312-74f4-4e86-9ef8-0c7e191000eb",
      "meta": {
        "profile": [ "http://hl7.org/fhir/us/qicore/StructureDefinition/qicore-patient" ]
      },
      "text": {
        "status": "generated",
        "div": "<div xmlns=\"http://www.w3.org/1999/xhtml\"><div class=\"hapiHeaderText\">AssessG1RelDateTime42wks1MinB4TimeOfDeliv <b>DENFAIL </b></div><table class=\"hapiPropertyTable\"><tbody><tr><td>Identifier</td><td>0f2eb4e282584341b7686ff02bcd96001425e71741a668fc2710a83bd8038817</td></tr><tr><td>Date of birth</td><td><span>14 February 1985</span></td></tr></tbody></table></div>"
      },
      "extension": [ {
        "url": "http://hl7.org/fhir/us/core/StructureDefinition/us-core-race",
        "extension": [ {
          "url": "ombCategory",
          "valueCoding": {
            "system": "urn:oid:2.16.840.1.113883.6.238",
            "code": "1002-5",
            "display": "American Indian or Alaska Native",
            "userSelected": true
          }
        }, {
          "url": "text",
          "valueString": "American Indian or Alaska Native"
        } ]
      }, {
        "url": "http://hl7.org/fhir/us/core/StructureDefinition/us-core-ethnicity",
        "extension": [ {
          "url": "ombCategory",
          "valueCoding": {
            "system": "urn:oid:2.16.840.1.113883.6.238",
            "code": "2135-2",
            "display": "Hispanic or Latino",
            "userSelected": true
          }
        }, {
          "url": "text",
          "valueString": "Hispanic or Latino"
        } ]
      } ],
      "identifier": [ {
        "type": {
          "coding": [ {
            "system": "http://terminology.hl7.org/CodeSystem/v2-0203",
            "code": "MR"
          } ]
        },
        "system": "https://bonnie-fhir.healthit.gov/",
        "value": "63487c2e0968f8012254016d"
      } ],
      "active": true,
      "name": [ {
        "use": "usual",
        "family": "DENFail",
        "given": [ "AssessG1RelDateTime42wks1MinB4TimeOfDeliv" ]
      } ],
      "gender": "female",
      "birthDate": "1998-02-14"
    },
    "request": {
      "method": "PUT",
      "url": "Patient/36c39312-74f4-4e86-9ef8-0c7e191000eb"
    }
  }, {
    "fullUrl": "https://madie.cms.gov/Observation/52bd4076-6470-4d55-8f6f-4a2edb78e711",
    "resource": {
      "resourceType": "Observation",
      "id": "52bd4076-6470-4d55-8f6f-4a2edb78e711",
      "meta": {
        "profile": [ "http://hl7.org/fhir/us/qicore/StructureDefinition/qicore-simple-observation" ]
      },
      "status": "final",
      "category": [ {
        "coding": [ {
          "system": "http://terminology.hl7.org/CodeSystem/observation-category",
          "code": "exam",
          "display": "exam",
          "userSelected": true
        } ]
      } ],
      "code": {
        "coding": [ {
          "system": "http://loinc.org",
          "code": "11996-6"
        } ]
      },
      "subject": {
        "reference": "Patient/36c39312-74f4-4e86-9ef8-0c7e191000eb"
      },
      "effectiveDateTime": "2026-06-25T18:59:00.000+00:00",
      "valueInteger": 1
    },
    "request": {
      "method": "PUT",
      "url": "Observation/52bd4076-6470-4d55-8f6f-4a2edb78e711"
    }
  }, {
    "fullUrl": "https://madie.cms.gov/Observation/a257fb42-f4e2-4390-a75c-8de8eaaf450f",
    "resource": {
      "resourceType": "Observation",
      "id": "a257fb42-f4e2-4390-a75c-8de8eaaf450f",
      "meta": {
        "profile": [ "http://hl7.org/fhir/us/qicore/StructureDefinition/qicore-simple-observation" ]
      },
      "status": "final",
      "category": [ {
        "coding": [ {
          "system": "http://terminology.hl7.org/CodeSystem/observation-category",
          "code": "exam",
          "display": "exam",
          "userSelected": true
        } ]
      } ],
      "code": {
        "coding": [ {
          "system": "http://loinc.org",
          "code": "11884-4"
        } ]
      },
      "subject": {
        "reference": "Patient/36c39312-74f4-4e86-9ef8-0c7e191000eb"
      },
      "effectiveDateTime": "2026-06-08T09:15:00.000+00:00",
      "valueQuantity": {
        "value": 38,
        "system": "http://unitsofmeasure.org",
        "code": "wk"
      }
    },
    "request": {
      "method": "PUT",
      "url": "Observation/a257fb42-f4e2-4390-a75c-8de8eaaf450f"
    }
  }, {
    "fullUrl": "https://madie.cms.gov/Observation/007629d3-1924-440a-9cbc-c3fadcd506c8",
    "resource": {
      "resourceType": "Observation",
      "id": "007629d3-1924-440a-9cbc-c3fadcd506c8",
      "meta": {
        "profile": [ "http://hl7.org/fhir/us/qicore/StructureDefinition/qicore-simple-observation" ]
      },
      "status": "final",
      "category": [ {
        "coding": [ {
          "system": "http://terminology.hl7.org/CodeSystem/observation-category",
          "code": "exam",
          "display": "exam",
          "userSelected": true
        } ]
      } ],
      "code": {
        "coding": [ {
          "system": "http://loinc.org",
          "code": "93857-1"
        } ]
      },
      "subject": {
        "reference": "Patient/36c39312-74f4-4e86-9ef8-0c7e191000eb"
      },
      "effectiveDateTime": "2026-06-08T19:00:00.000+00:00",
      "valueDateTime": "2026-06-08T19:00:00.000+00:00"
    },
    "request": {
      "method": "PUT",
      "url": "Observation/007629d3-1924-440a-9cbc-c3fadcd506c8"
    }
  }, {
    "fullUrl": "https://madie.cms.gov/Encounter/57272266-b22e-484e-94de-e996de9044cb",
    "resource": {
      "resourceType": "Encounter",
      "id": "57272266-b22e-484e-94de-e996de9044cb",
      "meta": {
        "profile": [ "http://hl7.org/fhir/us/qicore/StructureDefinition/qicore-encounter" ]
      },
      "status": "finished",
      "class": {
        "system": "http://terminology.hl7.org/CodeSystem/v3-ActCode",
        "code": "IMP",
        "display": "inpatient encounter"
      },
      "type": [ {
        "coding": [ {
          "system": "http://snomed.info/sct",
          "code": "183452005"
        } ]
      } ],
      "subject": {
        "reference": "Patient/36c39312-74f4-4e86-9ef8-0c7e191000eb"
      },
      "period": {
        "start": "2026-06-08T08:00:00.000+00:00",
        "end": "2026-06-10T08:15:00.000+00:00"
      },
      "length": {
        "value": 2,
        "unit": "days"
      },
      "reasonReference": [ {
        "reference": "Condition/85181575-95dd-4686-9d82-d5304e579c88"
      } ]
    },
    "request": {
      "method": "PUT",
      "url": "Encounter/57272266-b22e-484e-94de-e996de9044cb"
    }
  }, {
    "fullUrl": "https://madie.cms.gov/Procedure/b1f18431-bb2c-41ec-90db-2316b33825c4",
    "resource": {
      "resourceType": "Procedure",
      "id": "b1f18431-bb2c-41ec-90db-2316b33825c4",
      "meta": {
        "profile": [ "http://hl7.org/fhir/us/qicore/StructureDefinition/qicore-procedure" ]
      },
      "extension": [ {
        "url": "http://hl7.org/fhir/us/qicore/StructureDefinition/qicore-recorded",
        "valueDateTime": "2014-04-05T13:35:00.000+00:00"
      } ],
      "status": "completed",
      "code": {
        "coding": [ {
          "system": "http://www.cms.gov/Medicare/Coding/ICD10",
          "code": "10D07Z3"
        } ]
      },
      "subject": {
        "reference": "Patient/36c39312-74f4-4e86-9ef8-0c7e191000eb"
      },
      "performedPeriod": {
        "start": "2026-06-08T08:10:00.000+00:00",
        "end": "2026-06-08T09:14:00.000+00:00"
      }
    },
    "request": {
      "method": "PUT",
      "url": "Procedure/b1f18431-bb2c-41ec-90db-2316b33825c4"
    }
  }, {
    "fullUrl": "https://madie.cms.gov/Coverage/4d2d31a2-d9e8-4b79-8e82-73ad3336392e",
    "resource": {
      "resourceType": "Coverage",
      "id": "4d2d31a2-d9e8-4b79-8e82-73ad3336392e",
      "meta": {
        "profile": [ "http://hl7.org/fhir/us/qicore/StructureDefinition/qicore-coverage" ]
      },
      "status": "active",
      "subscriberId": "523435",
      "beneficiary": {
        "reference": "Patient/36c39312-74f4-4e86-9ef8-0c7e191000eb"
      },
      "relationship": {
        "coding": [ {
          "system": "http://terminology.hl7.org/CodeSystem/subscriber-relationship",
          "code": "self"
        } ]
      },
      "payor": [ {
        "reference": "Organization/4eacd6d7-6d53-4fd5-aa5c-a8efa4cb6f47"
      } ]
    },
    "request": {
      "method": "PUT",
      "url": "Coverage/4d2d31a2-d9e8-4b79-8e82-73ad3336392e"
    }
  }, {
    "fullUrl": "https://madie.cms.gov/Organization/4eacd6d7-6d53-4fd5-aa5c-a8efa4cb6f47",
    "resource": {
      "resourceType": "Organization",
      "id": "4eacd6d7-6d53-4fd5-aa5c-a8efa4cb6f47",
      "meta": {
        "profile": [ "http://hl7.org/fhir/us/qicore/StructureDefinition/qicore-organization" ]
      },
      "identifier": [ {
        "use": "temp",
        "system": "urn:oid:2.16.840.1.113883.4.4",
        "value": "21-3259825"
      } ],
      "active": true,
      "type": [ {
        "coding": [ {
          "system": "http://terminology.hl7.org/CodeSystem/organization-type",
          "code": "pay",
          "display": "Payer"
        } ]
      } ],
      "name": "Blue Cross Blue Shield of Texas",
      "telecom": [ {
        "system": "phone",
        "value": "(+1) 972-766-6900"
      } ],
      "address": [ {
        "use": "billing",
        "type": "postal",
        "line": [ "P.O. Box 660044" ],
        "city": "Dallas",
        "state": "TX",
        "postalCode": "75266-0044",
        "country": "USA"
      } ]
    },
    "request": {
      "method": "PUT",
      "url": "Organization/4eacd6d7-6d53-4fd5-aa5c-a8efa4cb6f47"
    }
  }, {
    "fullUrl": "https://madie.cms.gov/Condition/85181575-95dd-4686-9d82-d5304e579c88",
    "resource": {
      "resourceType": "Condition",
      "id": "85181575-95dd-4686-9d82-d5304e579c88",
      "meta": {
        "profile": [ "http://hl7.org/fhir/us/qicore/StructureDefinition/qicore-condition-encounter-diagnosis" ]
      },
      "category": [ {
        "coding": [ {
          "system": "http://terminology.hl7.org/CodeSystem/condition-category",
          "code": "encounter-diagnosis",
          "display": "Encounter Diagnosis"
        } ]
      } ],
      "code": {
        "coding": [ {
          "system": "http://snomed.info/sct",
          "code": "169826009",
          "display": "Single live birth (finding)"
        } ]
      },
      "subject": {
        "reference": "Patient/36c39312-74f4-4e86-9ef8-0c7e191000eb"
      },
      "encounter": {
        "reference": "Encounter/57272266-b22e-484e-94de-e996de9044cb"
      }
    },
    "request": {
      "method": "PUT",
      "url": "Condition/85181575-95dd-4686-9d82-d5304e579c88"
    }
  }, {
    "fullUrl": "https://madie.cms.gov/Practitioner/9f0e9535-3959-4f5c-8156-97c658e1fda2",
    "resource": {
      "resourceType": "Practitioner",
      "id": "9f0e9535-3959-4f5c-8156-97c658e1fda2",
      "meta": {
        "profile": [ "http://hl7.org/fhir/us/qicore/StructureDefinition/qicore-practitioner" ]
      },
      "identifier": [ {
        "system": "http://hl7.org/fhir/sid/us-npi",
        "value": "1234567890"
      } ],
      "name": [ {
        "family": "Evil",
        "prefix": [ "Dr" ]
      } ]
    },
    "request": {
      "method": "PUT",
      "url": "Practitioner/9f0e9535-3959-4f5c-8156-97c658e1fda2"
    }
  }, {
    "fullUrl": "https://madie.cms.gov/MeasureReport/fccdbf5b-6388-4012-a816-e7ad05d3e60a",
    "resource": {
      "resourceType": "MeasureReport",
      "id": "fccdbf5b-6388-4012-a816-e7ad05d3e60a",
      "meta": {
        "profile": [ "http://hl7.org/fhir/us/cqfmeasures/StructureDefinition/test-case-cqfm" ]
      },
      "contained": [ {
        "resourceType": "Parameters",
        "id": "347b5816-4823-4cee-b73c-f63e173769bd-parameters",
        "parameter": [ {
          "name": "subject",
          "valueString": "36c39312-74f4-4e86-9ef8-0c7e191000eb"
        } ]
      } ],
      "extension": [ {
        "url": "http://hl7.org/fhir/StructureDefinition/cqf-inputParameters",
        "valueReference": {
          "reference": "#347b5816-4823-4cee-b73c-f63e173769bd-parameters"
        }
      }, {
        "url": "http://hl7.org/fhir/us/cqfmeasures/StructureDefinition/cqfm-testCaseDescription",
        "valueMarkdown": "Tests that Assess Gravida Rel  Date/Time is no more than 42 weeks before the Time of Delivery  Date/Time.  This case is 42 weeks and 1 min.\n"
      } ],
      "modifierExtension": [ {
        "url": "http://hl7.org/fhir/us/cqfmeasures/StructureDefinition/cqfm-isTestCase",
        "valueBoolean": true
      } ],
      "status": "complete",
      "type": "individual",
      "measure": "https://madie.cms.gov/Measure/CMS0334FHIRPCCesareanBirth",
      "period": {
        "start": "2026-01-01",
        "end": "2026-12-31"
      },
      "group": [ {
        "id": "Group_1",
        "population": [ {
          "id": "InitialPopulation_1",
          "code": {
            "coding": [ {
              "system": "http://terminology.hl7.org/CodeSystem/measure-population",
              "code": "initial-population",
              "display": "Initial Population"
            } ]
          },
          "count": 1
        }, {
          "id": "Denominator_1",
          "code": {
            "coding": [ {
              "system": "http://terminology.hl7.org/CodeSystem/measure-population",
              "code": "denominator",
              "display": "Denominator"
            } ]
          },
          "count": 0
        }, {
          "id": "DenominatorExclusion_1",
          "code": {
            "coding": [ {
              "system": "http://terminology.hl7.org/CodeSystem/measure-population",
              "code": "denominator-exclusion",
              "display": "Denominator Exclusion"
            } ]
          },
          "count": 0
        }, {
          "id": "Numerator_1",
          "code": {
            "coding": [ {
              "system": "http://terminology.hl7.org/CodeSystem/measure-population",
              "code": "numerator",
              "display": "Numerator"
            } ]
          },
          "count": 0
        } ],
        "measureScore": {
          "value": 0.0
        }
      } ],
      "evaluatedResource": [ {
        "reference": "Patient/36c39312-74f4-4e86-9ef8-0c7e191000eb"
      }, {
        "reference": "Observation/52bd4076-6470-4d55-8f6f-4a2edb78e711"
      }, {
        "reference": "Observation/a257fb42-f4e2-4390-a75c-8de8eaaf450f"
      }, {
        "reference": "Observation/007629d3-1924-440a-9cbc-c3fadcd506c8"
      }, {
        "reference": "Encounter/57272266-b22e-484e-94de-e996de9044cb"
      }, {
        "reference": "Procedure/b1f18431-bb2c-41ec-90db-2316b33825c4"
      }, {
        "reference": "Coverage/4d2d31a2-d9e8-4b79-8e82-73ad3336392e"
      }, {
        "reference": "Organization/4eacd6d7-6d53-4fd5-aa5c-a8efa4cb6f47"
      }, {
        "reference": "Condition/85181575-95dd-4686-9d82-d5304e579c88"
      }, {
        "reference": "Practitioner/9f0e9535-3959-4f5c-8156-97c658e1fda2"
      } ]
    },
    "request": {
      "method": "PUT",
      "url": "MeasureReport/fccdbf5b-6388-4012-a816-e7ad05d3e60a"
    }
  } ]
}