{
  "resourceType": "Bundle",
  "id": "633b3f9f0968f80122503cdb",
  "type": "transaction",
  "entry": [ {
    "fullUrl": "https://madie.cms.gov/Patient/29393933-85b6-48d5-865f-ac206a753b26",
    "resource": {
      "resourceType": "Patient",
      "id": "29393933-85b6-48d5-865f-ac206a753b26",
      "meta": {
        "profile": [ "http://hl7.org/fhir/us/qicore/StructureDefinition/qicore-patient" ]
      },
      "text": {
        "status": "generated",
        "div": "<div xmlns=\"http://www.w3.org/1999/xhtml\"><div class=\"hapiHeaderText\">EncProcEQSevereMatMorbidity<b>NUMPass</b></div><table class=\"hapiPropertyTable\"><tbody><tr><td>Date of birth</td><td><span>01 February 2004</span></td></tr></tbody></table></div>"
      },
      "extension": [ {
        "url": "http://hl7.org/fhir/us/core/StructureDefinition/us-core-race",
        "extension": [ {
          "url": "ombCategory",
          "valueCoding": {
            "system": "urn:oid:2.16.840.1.113883.6.238",
            "code": "1002-5",
            "display": "American Indian or Alaska Native",
            "userSelected": true
          }
        }, {
          "url": "text",
          "valueString": "American Indian or Alaska Native"
        } ]
      }, {
        "url": "http://hl7.org/fhir/us/core/StructureDefinition/us-core-ethnicity",
        "extension": [ {
          "url": "ombCategory",
          "valueCoding": {
            "system": "urn:oid:2.16.840.1.113883.6.238",
            "code": "2135-2",
            "display": "Hispanic or Latino",
            "userSelected": true
          }
        }, {
          "url": "text",
          "valueString": "Hispanic or Latino"
        } ]
      } ],
      "identifier": [ {
        "type": {
          "coding": [ {
            "system": "http://terminology.hl7.org/CodeSystem/v2-0203",
            "code": "MR"
          } ]
        },
        "system": "https://bonnie-fhir.healthit.gov/",
        "value": "633b3f9f0968f80122503cdb"
      } ],
      "active": true,
      "name": [ {
        "use": "usual",
        "family": "NUMPass",
        "given": [ "EncProcEQSevereMatMorbidity" ]
      } ],
      "gender": "female",
      "birthDate": "2005-02-01"
    },
    "request": {
      "method": "PUT",
      "url": "Patient/29393933-85b6-48d5-865f-ac206a753b26"
    }
  }, {
    "fullUrl": "https://madie.cms.gov/Observation/83d1fc03-0827-4833-9ca7-9d169e0d3a35",
    "resource": {
      "resourceType": "Observation",
      "id": "83d1fc03-0827-4833-9ca7-9d169e0d3a35",
      "meta": {
        "profile": [ "http://hl7.org/fhir/us/qicore/StructureDefinition/qicore-simple-observation" ]
      },
      "status": "final",
      "category": [ {
        "coding": [ {
          "system": "http://terminology.hl7.org/CodeSystem/observation-category",
          "code": "exam",
          "display": "exam",
          "userSelected": true
        } ]
      } ],
      "code": {
        "coding": [ {
          "system": "http://loinc.org",
          "code": "93857-1"
        } ]
      },
      "subject": {
        "reference": "Patient/29393933-85b6-48d5-865f-ac206a753b26"
      },
      "effectiveDateTime": "2026-02-01T08:00:00.000+00:00",
      "performer": [ {
        "reference": "Organization/example1",
        "display": "Hendricks Country Hospital"
      } ],
      "valueDateTime": "2026-02-01T08:00:00.000+00:00"
    },
    "request": {
      "method": "PUT",
      "url": "Observation/83d1fc03-0827-4833-9ca7-9d169e0d3a35"
    }
  }, {
    "fullUrl": "https://madie.cms.gov/Observation/28fa4785-56d5-433f-9469-b599a5968b88",
    "resource": {
      "resourceType": "Observation",
      "id": "28fa4785-56d5-433f-9469-b599a5968b88",
      "meta": {
        "profile": [ "http://hl7.org/fhir/us/qicore/StructureDefinition/qicore-simple-observation" ]
      },
      "status": "final",
      "category": [ {
        "coding": [ {
          "system": "http://terminology.hl7.org/CodeSystem/observation-category",
          "code": "exam",
          "display": "exam",
          "userSelected": true
        } ]
      } ],
      "code": {
        "coding": [ {
          "system": "http://loinc.org",
          "code": "11884-4"
        } ]
      },
      "subject": {
        "reference": "Patient/29393933-85b6-48d5-865f-ac206a753b26"
      },
      "effectiveDateTime": "2026-02-01T08:00:00.000+00:00",
      "performer": [ {
        "reference": "Organization/example1",
        "display": "Hendricks Country Hospital"
      } ],
      "valueQuantity": {
        "value": 20,
        "system": "http://unitsofmeasure.org",
        "code": "wk"
      }
    },
    "request": {
      "method": "PUT",
      "url": "Observation/28fa4785-56d5-433f-9469-b599a5968b88"
    }
  }, {
    "fullUrl": "https://madie.cms.gov/Encounter/fd60af9f-0fa1-46f1-8143-fe5a2c90c4ec",
    "resource": {
      "resourceType": "Encounter",
      "id": "fd60af9f-0fa1-46f1-8143-fe5a2c90c4ec",
      "meta": {
        "profile": [ "http://hl7.org/fhir/us/qicore/StructureDefinition/qicore-encounter" ]
      },
      "status": "finished",
      "class": {
        "system": "http://terminology.hl7.org/CodeSystem/v3-ActCode",
        "code": "IMP",
        "display": "inpatient encounter"
      },
      "type": [ {
        "coding": [ {
          "system": "http://snomed.info/sct",
          "code": "183452005"
        } ]
      } ],
      "subject": {
        "reference": "Patient/29393933-85b6-48d5-865f-ac206a753b26"
      },
      "period": {
        "start": "2026-02-01T08:00:00.000+00:00",
        "end": "2026-02-05T08:15:00.000+00:00"
      }
    },
    "request": {
      "method": "PUT",
      "url": "Encounter/fd60af9f-0fa1-46f1-8143-fe5a2c90c4ec"
    }
  }, {
    "fullUrl": "https://madie.cms.gov/Coverage/606e2918-6143-4192-858f-5871a70870bb",
    "resource": {
      "resourceType": "Coverage",
      "id": "606e2918-6143-4192-858f-5871a70870bb",
      "status": "active",
      "subscriberId": "523435",
      "beneficiary": {
        "reference": "Patient/29393933-85b6-48d5-865f-ac206a753b26"
      },
      "relationship": {
        "coding": [ {
          "system": "http://terminology.hl7.org/CodeSystem/subscriber-relationship",
          "code": "self"
        } ]
      },
      "period": {
        "start": "2005-02-01T08:00:00.000+00:00"
      },
      "payor": [ {
        "reference": "Organization/02d2f77a-9541-41a2-8286-1b481e2e824a"
      } ]
    },
    "request": {
      "method": "PUT",
      "url": "Coverage/606e2918-6143-4192-858f-5871a70870bb"
    }
  }, {
    "fullUrl": "https://madie.cms.gov/Procedure/892831b6-13ec-4b17-a99b-a63396e08704",
    "resource": {
      "resourceType": "Procedure",
      "id": "892831b6-13ec-4b17-a99b-a63396e08704",
      "meta": {
        "profile": [ "http://hl7.org/fhir/us/qicore/StructureDefinition/qicore-procedure" ]
      },
      "extension": [ {
        "url": "http://hl7.org/fhir/us/qicore/StructureDefinition/qicore-recorded",
        "valueDateTime": "2014-04-05T13:35:00.000+00:00"
      } ],
      "status": "completed",
      "code": {
        "coding": [ {
          "system": "http://snomed.info/sct",
          "code": "10745001"
        } ]
      },
      "subject": {
        "reference": "Patient/29393933-85b6-48d5-865f-ac206a753b26"
      },
      "performedPeriod": {
        "start": "2026-02-01T08:00:00.000+00:00",
        "end": "2026-02-05T08:15:00.000+00:00"
      }
    },
    "request": {
      "method": "PUT",
      "url": "Procedure/892831b6-13ec-4b17-a99b-a63396e08704"
    }
  }, {
    "fullUrl": "https://madie.cms.gov/Procedure/2b6712e4-82ee-4650-aece-141c1b91f6dd",
    "resource": {
      "resourceType": "Procedure",
      "id": "2b6712e4-82ee-4650-aece-141c1b91f6dd",
      "meta": {
        "profile": [ "http://hl7.org/fhir/us/qicore/StructureDefinition/qicore-procedure" ]
      },
      "extension": [ {
        "url": "http://hl7.org/fhir/us/qicore/StructureDefinition/qicore-recorded",
        "valueDateTime": "2026-02-01T04:01:00.000+00:00"
      } ],
      "status": "completed",
      "code": {
        "coding": [ {
          "system": "http://snomed.info/sct",
          "code": "11050006"
        } ]
      },
      "subject": {
        "reference": "Patient/29393933-85b6-48d5-865f-ac206a753b26"
      },
      "performedPeriod": {
        "start": "2026-02-04T00:00:00.000+00:00",
        "end": "2026-02-04T11:59:00.000+00:00"
      }
    },
    "request": {
      "method": "PUT",
      "url": "Procedure/2b6712e4-82ee-4650-aece-141c1b91f6dd"
    }
  }, {
    "fullUrl": "https://madie.cms.gov/Organization/02d2f77a-9541-41a2-8286-1b481e2e824a",
    "resource": {
      "resourceType": "Organization",
      "id": "02d2f77a-9541-41a2-8286-1b481e2e824a",
      "meta": {
        "profile": [ "http://hl7.org/fhir/us/qicore/StructureDefinition/qicore-organization" ]
      },
      "identifier": [ {
        "use": "temp",
        "system": "urn:oid:2.16.840.1.113883.4.4",
        "value": "21-3259825"
      } ],
      "active": true,
      "type": [ {
        "coding": [ {
          "system": "http://terminology.hl7.org/CodeSystem/organization-type",
          "code": "pay",
          "display": "Payer"
        } ]
      } ],
      "name": "Blue Cross Blue Shield of Texas",
      "telecom": [ {
        "system": "phone",
        "value": "(+1) 972-766-6900"
      } ],
      "address": [ {
        "use": "billing",
        "type": "postal",
        "line": [ "P.O. Box 660044" ],
        "city": "Dallas",
        "state": "TX",
        "postalCode": "75266-0044",
        "country": "USA"
      } ]
    },
    "request": {
      "method": "PUT",
      "url": "Organization/02d2f77a-9541-41a2-8286-1b481e2e824a"
    }
  }, {
    "fullUrl": "https://madie.cms.gov/Practitioner/232b8bf0-b72d-49a0-b215-7b670d7d3487",
    "resource": {
      "resourceType": "Practitioner",
      "id": "232b8bf0-b72d-49a0-b215-7b670d7d3487",
      "meta": {
        "profile": [ "http://hl7.org/fhir/us/qicore/StructureDefinition/qicore-practitioner" ]
      },
      "identifier": [ {
        "system": "http://hl7.org/fhir/sid/us-npi",
        "value": "9999999896"
      } ],
      "name": [ {
        "family": "Evil",
        "prefix": [ "Dr" ]
      } ]
    },
    "request": {
      "method": "PUT",
      "url": "Practitioner/232b8bf0-b72d-49a0-b215-7b670d7d3487"
    }
  }, {
    "fullUrl": "https://madie.cms.gov/MeasureReport/1ce589f3-e154-4efa-81b9-0303eb60496f",
    "resource": {
      "resourceType": "MeasureReport",
      "id": "1ce589f3-e154-4efa-81b9-0303eb60496f",
      "meta": {
        "profile": [ "http://hl7.org/fhir/us/cqfmeasures/StructureDefinition/test-case-cqfm" ]
      },
      "contained": [ {
        "resourceType": "Parameters",
        "id": "4b0ca470-abaf-4f94-a712-9dee2dfcc349-parameters",
        "parameter": [ {
          "name": "subject",
          "valueString": "29393933-85b6-48d5-865f-ac206a753b26"
        } ]
      } ],
      "extension": [ {
        "url": "http://hl7.org/fhir/StructureDefinition/cqf-inputParameters",
        "valueReference": {
          "reference": "#4b0ca470-abaf-4f94-a712-9dee2dfcc349-parameters"
        }
      }, {
        "url": "http://hl7.org/fhir/us/cqfmeasures/StructureDefinition/cqfm-testCaseDescription",
        "valueMarkdown": "Encounter Procedure = Severe Maternal Morbidity Procedure\n"
      } ],
      "modifierExtension": [ {
        "url": "http://hl7.org/fhir/us/cqfmeasures/StructureDefinition/cqfm-isTestCase",
        "valueBoolean": true
      } ],
      "status": "complete",
      "type": "individual",
      "measure": "https://madie.cms.gov/Measure/CMS1028FHIRPCSevereOBComps",
      "period": {
        "start": "2026-01-01",
        "end": "2026-12-31"
      },
      "group": [ {
        "id": "Group_1",
        "population": [ {
          "id": "InitialPopulation_1",
          "code": {
            "coding": [ {
              "system": "http://terminology.hl7.org/CodeSystem/measure-population",
              "code": "initial-population",
              "display": "Initial Population"
            } ]
          },
          "count": 1
        }, {
          "id": "Denominator_1",
          "code": {
            "coding": [ {
              "system": "http://terminology.hl7.org/CodeSystem/measure-population",
              "code": "denominator",
              "display": "Denominator"
            } ]
          },
          "count": 1
        }, {
          "id": "Numerator_1",
          "code": {
            "coding": [ {
              "system": "http://terminology.hl7.org/CodeSystem/measure-population",
              "code": "numerator",
              "display": "Numerator"
            } ]
          },
          "count": 1
        }, {
          "id": "NumeratorExclusion_1",
          "code": {
            "coding": [ {
              "system": "http://terminology.hl7.org/CodeSystem/measure-population",
              "code": "numerator-exclusion",
              "display": "Numerator Exclusion"
            } ]
          },
          "count": 0
        } ],
        "measureScore": {
          "value": 0.0
        }
      }, {
        "id": "Group_2",
        "population": [ {
          "id": "InitialPopulation_2",
          "code": {
            "coding": [ {
              "system": "http://terminology.hl7.org/CodeSystem/measure-population",
              "code": "initial-population",
              "display": "Initial Population"
            } ]
          },
          "count": 1
        }, {
          "id": "Denominator_2",
          "code": {
            "coding": [ {
              "system": "http://terminology.hl7.org/CodeSystem/measure-population",
              "code": "denominator",
              "display": "Denominator"
            } ]
          },
          "count": 1
        }, {
          "id": "Numerator_2",
          "code": {
            "coding": [ {
              "system": "http://terminology.hl7.org/CodeSystem/measure-population",
              "code": "numerator",
              "display": "Numerator"
            } ]
          },
          "count": 1
        }, {
          "id": "NumeratorExclusion_2",
          "code": {
            "coding": [ {
              "system": "http://terminology.hl7.org/CodeSystem/measure-population",
              "code": "numerator-exclusion",
              "display": "Numerator Exclusion"
            } ]
          },
          "count": 0
        } ],
        "measureScore": {
          "value": 0.0
        }
      } ],
      "evaluatedResource": [ {
        "reference": "Patient/29393933-85b6-48d5-865f-ac206a753b26"
      }, {
        "reference": "Observation/83d1fc03-0827-4833-9ca7-9d169e0d3a35"
      }, {
        "reference": "Observation/28fa4785-56d5-433f-9469-b599a5968b88"
      }, {
        "reference": "Encounter/fd60af9f-0fa1-46f1-8143-fe5a2c90c4ec"
      }, {
        "reference": "Coverage/606e2918-6143-4192-858f-5871a70870bb"
      }, {
        "reference": "Procedure/892831b6-13ec-4b17-a99b-a63396e08704"
      }, {
        "reference": "Procedure/2b6712e4-82ee-4650-aece-141c1b91f6dd"
      }, {
        "reference": "Organization/02d2f77a-9541-41a2-8286-1b481e2e824a"
      }, {
        "reference": "Practitioner/232b8bf0-b72d-49a0-b215-7b670d7d3487"
      } ]
    },
    "request": {
      "method": "PUT",
      "url": "MeasureReport/1ce589f3-e154-4efa-81b9-0303eb60496f"
    }
  } ]
}