{
  "resourceType": "Bundle",
  "id": "tests-NUMERPass-NewDTInjuryByExamGT72Hrs-bundle",
  "type": "transaction",
  "entry": [ {
    "fullUrl": "https://madie.cms.gov/Encounter/dfd0ec5b-e1ff-4bca-9a67-bf8694c2c34f",
    "resource": {
      "resourceType": "Encounter",
      "id": "dfd0ec5b-e1ff-4bca-9a67-bf8694c2c34f",
      "meta": {
        "profile": [ "http://hl7.org/fhir/us/qicore/StructureDefinition/qicore-encounter" ]
      },
      "status": "finished",
      "class": {
        "system": "http://terminology.hl7.org/CodeSystem/v3-ActCode",
        "code": "IMP",
        "display": "inpatient encounter"
      },
      "type": [ {
        "coding": [ {
          "system": "http://snomed.info/sct",
          "version": "2022-09",
          "code": "183452005",
          "display": "Emergency hospital admission (procedure)",
          "userSelected": true
        } ]
      } ],
      "subject": {
        "reference": "Patient/73c1a7c6-2bcf-4e6d-b913-9125137da33a"
      },
      "period": {
        "start": "2026-03-15T11:00:00.000+00:00",
        "end": "2026-03-22T08:15:00.000+00:00"
      }
    },
    "request": {
      "method": "PUT",
      "url": "Encounter/dfd0ec5b-e1ff-4bca-9a67-bf8694c2c34f"
    }
  }, {
    "fullUrl": "https://madie.cms.gov/Patient/73c1a7c6-2bcf-4e6d-b913-9125137da33a",
    "resource": {
      "resourceType": "Patient",
      "id": "73c1a7c6-2bcf-4e6d-b913-9125137da33a",
      "meta": {
        "profile": [ "http://hl7.org/fhir/us/qicore/StructureDefinition/qicore-patient" ]
      },
      "extension": [ {
        "url": "http://hl7.org/fhir/us/core/StructureDefinition/us-core-race",
        "extension": [ {
          "url": "ombCategory",
          "valueCoding": {
            "system": "urn:oid:2.16.840.1.113883.6.238",
            "code": "2054-5",
            "display": "Black or African American",
            "userSelected": true
          }
        }, {
          "url": "text",
          "valueString": "Black or African American"
        } ]
      }, {
        "url": "http://hl7.org/fhir/us/core/StructureDefinition/us-core-ethnicity",
        "extension": [ {
          "url": "ombCategory",
          "valueCoding": {
            "system": "urn:oid:2.16.840.1.113883.6.238",
            "code": "2135-2",
            "display": "Hispanic or Latino",
            "userSelected": true
          }
        }, {
          "url": "text",
          "valueString": "Hispanic or Latino"
        } ]
      } ],
      "identifier": [ {
        "type": {
          "coding": [ {
            "system": "http://terminology.hl7.org/CodeSystem/v2-0203",
            "code": "MR"
          } ]
        },
        "system": "https://bonnie-fhir.healthit.gov/",
        "value": "64121f8a0c4b751dfe4ccb65"
      } ],
      "name": [ {
        "family": "NUMERPass",
        "given": [ "NewDTInjuryByExamGT72Hrs" ]
      } ],
      "gender": "male",
      "birthDate": "1962-09-08"
    },
    "request": {
      "method": "PUT",
      "url": "Patient/73c1a7c6-2bcf-4e6d-b913-9125137da33a"
    }
  }, {
    "fullUrl": "https://madie.cms.gov/Encounter/a379cf13-3a91-4eca-b5a9-ec83751a0b4a",
    "resource": {
      "resourceType": "Encounter",
      "id": "a379cf13-3a91-4eca-b5a9-ec83751a0b4a",
      "meta": {
        "profile": [ "http://hl7.org/fhir/us/qicore/StructureDefinition/qicore-encounter" ]
      },
      "status": "finished",
      "class": {
        "system": "http://terminology.hl7.org/CodeSystem/v3-ActCode",
        "code": "EMER",
        "display": "emergency"
      },
      "type": [ {
        "coding": [ {
          "system": "http://snomed.info/sct",
          "version": "2022-09",
          "code": "4525004",
          "display": "Emergency department patient visit (procedure)",
          "userSelected": true
        } ]
      } ],
      "subject": {
        "reference": "Patient/73c1a7c6-2bcf-4e6d-b913-9125137da33a"
      },
      "period": {
        "start": "2026-03-15T08:00:00.000+00:00",
        "end": "2026-03-15T10:15:00.000+00:00"
      }
    },
    "request": {
      "method": "PUT",
      "url": "Encounter/a379cf13-3a91-4eca-b5a9-ec83751a0b4a"
    }
  }, {
    "fullUrl": "https://madie.cms.gov/Observation/1d91be64-9e2a-4e5d-a46d-68eedf09bfff",
    "resource": {
      "resourceType": "Observation",
      "id": "1d91be64-9e2a-4e5d-a46d-68eedf09bfff",
      "meta": {
        "profile": [ "http://hl7.org/fhir/us/qicore/StructureDefinition/qicore-observation-clinical-result" ]
      },
      "status": "final",
      "category": [ {
        "coding": [ {
          "system": "http://terminology.hl7.org/CodeSystem/observation-category",
          "code": "exam",
          "display": "Exam"
        } ]
      } ],
      "code": {
        "coding": [ {
          "system": "http://loinc.org",
          "code": "8709-8",
          "display": "Physical findings of Skin",
          "userSelected": true
        } ]
      },
      "subject": {
        "reference": "Patient/73c1a7c6-2bcf-4e6d-b913-9125137da33a"
      },
      "effectiveDateTime": "2026-03-20T08:00:00.000+00:00",
      "valueCodeableConcept": {
        "coding": [ {
          "system": "http://loinc.org",
          "version": "2.76",
          "code": "54579-8",
          "display": "Pressure injuries - unstageable due to non-removable dressing"
        } ]
      }
    },
    "request": {
      "method": "PUT",
      "url": "Observation/1d91be64-9e2a-4e5d-a46d-68eedf09bfff"
    }
  }, {
    "fullUrl": "https://madie.cms.gov/MeasureReport/03756b93-5ee6-471e-b467-eff60f52b975",
    "resource": {
      "resourceType": "MeasureReport",
      "id": "03756b93-5ee6-471e-b467-eff60f52b975",
      "meta": {
        "profile": [ "http://hl7.org/fhir/us/cqfmeasures/StructureDefinition/test-case-cqfm" ]
      },
      "contained": [ {
        "resourceType": "Parameters",
        "id": "6f608bd3-b16f-4d86-b9ed-d0557e71d299-parameters",
        "parameter": [ {
          "name": "subject",
          "valueString": "73c1a7c6-2bcf-4e6d-b913-9125137da33a"
        } ]
      } ],
      "extension": [ {
        "url": "http://hl7.org/fhir/StructureDefinition/cqf-inputParameters",
        "valueReference": {
          "reference": "#6f608bd3-b16f-4d86-b9ed-d0557e71d299-parameters"
        }
      }, {
        "url": "http://hl7.org/fhir/us/cqfmeasures/StructureDefinition/cqfm-testCaseDescription",
        "valueMarkdown": "Inpatient encounter during MP.  Age is >=18. Has DTI by exam/observation more than 72 hours from start of hospitalization. Meets Numerator. "
      } ],
      "modifierExtension": [ {
        "url": "http://hl7.org/fhir/us/cqfmeasures/StructureDefinition/cqfm-isTestCase",
        "valueBoolean": true
      } ],
      "status": "complete",
      "type": "individual",
      "measure": "https://madie.cms.gov/Measure/CMS826FHIRHHPI",
      "period": {
        "start": "2026-01-01",
        "end": "2026-12-31"
      },
      "group": [ {
        "id": "Group_1",
        "population": [ {
          "id": "InitialPopulation_1",
          "code": {
            "coding": [ {
              "system": "http://terminology.hl7.org/CodeSystem/measure-population",
              "code": "initial-population",
              "display": "Initial Population"
            } ]
          },
          "count": 1
        }, {
          "id": "Denominator_1",
          "code": {
            "coding": [ {
              "system": "http://terminology.hl7.org/CodeSystem/measure-population",
              "code": "denominator",
              "display": "Denominator"
            } ]
          },
          "count": 1
        }, {
          "id": "DenominatorExclusion_1",
          "code": {
            "coding": [ {
              "system": "http://terminology.hl7.org/CodeSystem/measure-population",
              "code": "denominator-exclusion",
              "display": "Denominator Exclusion"
            } ]
          },
          "count": 0
        }, {
          "id": "Numerator_1",
          "code": {
            "coding": [ {
              "system": "http://terminology.hl7.org/CodeSystem/measure-population",
              "code": "numerator",
              "display": "Numerator"
            } ]
          },
          "count": 1
        } ],
        "measureScore": {
          "value": 0.0
        }
      } ],
      "evaluatedResource": [ {
        "reference": "Encounter/dfd0ec5b-e1ff-4bca-9a67-bf8694c2c34f"
      }, {
        "reference": "Patient/73c1a7c6-2bcf-4e6d-b913-9125137da33a"
      }, {
        "reference": "Encounter/a379cf13-3a91-4eca-b5a9-ec83751a0b4a"
      }, {
        "reference": "Observation/1d91be64-9e2a-4e5d-a46d-68eedf09bfff"
      } ]
    },
    "request": {
      "method": "PUT",
      "url": "MeasureReport/03756b93-5ee6-471e-b467-eff60f52b975"
    }
  } ]
}