{
  "resourceType": "Bundle",
  "id": "6356d03854e383debade759e",
  "type": "transaction",
  "entry": [ {
    "fullUrl": "https://madie.cms.gov/Patient/2eec6963-508b-4072-ae9b-82677d25b591",
    "resource": {
      "resourceType": "Patient",
      "id": "2eec6963-508b-4072-ae9b-82677d25b591",
      "meta": {
        "profile": [ "http://hl7.org/fhir/us/qicore/StructureDefinition/qicore-patient" ]
      },
      "text": {
        "status": "generated",
        "div": "<div xmlns=\"http://www.w3.org/1999/xhtml\"><div class=\"hapiHeaderText\">CalcEGA19WksDxCode20Weeks<b>DENOMFAIL</b></div><table class=\"hapiPropertyTable\"><tbody><tr><td>Date of birth</td><td><span>01 February 2004</span></td></tr></tbody></table></div>"
      },
      "extension": [ {
        "url": "http://hl7.org/fhir/us/core/StructureDefinition/us-core-race",
        "extension": [ {
          "url": "ombCategory",
          "valueCoding": {
            "system": "urn:oid:2.16.840.1.113883.6.238",
            "code": "1002-5",
            "display": "American Indian or Alaska Native",
            "userSelected": true
          }
        }, {
          "url": "text",
          "valueString": "American Indian or Alaska Native"
        } ]
      }, {
        "url": "http://hl7.org/fhir/us/core/StructureDefinition/us-core-ethnicity",
        "extension": [ {
          "url": "ombCategory",
          "valueCoding": {
            "system": "urn:oid:2.16.840.1.113883.6.238",
            "code": "2135-2",
            "display": "Hispanic or Latino",
            "userSelected": true
          }
        }, {
          "url": "text",
          "valueString": "Hispanic or Latino"
        } ]
      } ],
      "identifier": [ {
        "type": {
          "coding": [ {
            "system": "http://terminology.hl7.org/CodeSystem/v2-0203",
            "code": "MR"
          } ]
        },
        "system": "https://bonnie-fhir.healthit.gov/",
        "value": "6356d03854e383debade759e"
      } ],
      "active": true,
      "name": [ {
        "use": "usual",
        "family": "DENOMFail",
        "given": [ "CalcEGA19WksDxCode20Weeks" ]
      } ],
      "gender": "female",
      "birthDate": "2004-02-01"
    },
    "request": {
      "method": "PUT",
      "url": "Patient/2eec6963-508b-4072-ae9b-82677d25b591"
    }
  }, {
    "fullUrl": "https://madie.cms.gov/Observation/50e50d1b-5b1f-40ca-9833-39ee77a75bfe",
    "resource": {
      "resourceType": "Observation",
      "id": "50e50d1b-5b1f-40ca-9833-39ee77a75bfe",
      "meta": {
        "profile": [ "http://hl7.org/fhir/us/qicore/StructureDefinition/qicore-simple-observation" ]
      },
      "status": "final",
      "category": [ {
        "coding": [ {
          "system": "http://terminology.hl7.org/CodeSystem/observation-category",
          "code": "exam",
          "display": "exam",
          "userSelected": true
        } ]
      } ],
      "code": {
        "coding": [ {
          "system": "http://loinc.org",
          "code": "93857-1"
        } ]
      },
      "subject": {
        "reference": "Patient/2eec6963-508b-4072-ae9b-82677d25b591"
      },
      "effectiveDateTime": "2026-01-15T08:00:00.000+00:00",
      "performer": [ {
        "reference": "Organization/example1",
        "display": "Hendricks Country Hospital"
      } ],
      "valueDateTime": "2026-01-15T08:00:00.000+00:00"
    },
    "request": {
      "method": "PUT",
      "url": "Observation/50e50d1b-5b1f-40ca-9833-39ee77a75bfe"
    }
  }, {
    "fullUrl": "https://madie.cms.gov/Encounter/99e17195-5c74-44fa-bdbc-fa358a9ae37b",
    "resource": {
      "resourceType": "Encounter",
      "id": "99e17195-5c74-44fa-bdbc-fa358a9ae37b",
      "meta": {
        "profile": [ "http://hl7.org/fhir/us/qicore/StructureDefinition/qicore-encounter" ]
      },
      "status": "finished",
      "class": {
        "system": "http://terminology.hl7.org/CodeSystem/v3-ActCode",
        "code": "IMP",
        "display": "inpatient encounter"
      },
      "type": [ {
        "coding": [ {
          "system": "http://snomed.info/sct",
          "code": "183452005"
        } ]
      } ],
      "subject": {
        "reference": "Patient/2eec6963-508b-4072-ae9b-82677d25b591"
      },
      "period": {
        "start": "2026-01-01T08:00:00.000+00:00",
        "end": "2026-02-05T08:15:00.000+00:00"
      },
      "reasonCode": [ {
        "coding": [ {
          "system": "http://snomed.info/sct",
          "code": "169826009",
          "display": "Single live birth from singleton pregnancy (finding)"
        } ]
      } ],
      "reasonReference": [ {
        "reference": "Condition/05308065-69ee-451b-b6b2-d14de5ccd7e0"
      } ]
    },
    "request": {
      "method": "PUT",
      "url": "Encounter/99e17195-5c74-44fa-bdbc-fa358a9ae37b"
    }
  }, {
    "fullUrl": "https://madie.cms.gov/Observation/a866368d-ee43-41f0-8807-4c8f4d2fffab",
    "resource": {
      "resourceType": "Observation",
      "id": "a866368d-ee43-41f0-8807-4c8f4d2fffab",
      "meta": {
        "profile": [ "http://hl7.org/fhir/us/qicore/StructureDefinition/qicore-simple-observation" ]
      },
      "status": "final",
      "category": [ {
        "coding": [ {
          "system": "http://terminology.hl7.org/CodeSystem/observation-category",
          "code": "exam",
          "display": "exam",
          "userSelected": true
        } ]
      } ],
      "code": {
        "coding": [ {
          "system": "http://loinc.org",
          "code": "11778-8"
        } ]
      },
      "subject": {
        "reference": "Patient/2eec6963-508b-4072-ae9b-82677d25b591"
      },
      "effectiveDateTime": "2026-01-15T08:00:00.000+00:00",
      "performer": [ {
        "reference": "Organization/example1",
        "display": "Hendricks Country Hospital"
      } ],
      "valueDateTime": "2026-06-05T08:00:00.000+00:00"
    },
    "request": {
      "method": "PUT",
      "url": "Observation/a866368d-ee43-41f0-8807-4c8f4d2fffab"
    }
  }, {
    "fullUrl": "https://madie.cms.gov/Procedure/7928ad91-0f78-45d9-87ad-d5b226e4aaf5",
    "resource": {
      "resourceType": "Procedure",
      "id": "7928ad91-0f78-45d9-87ad-d5b226e4aaf5",
      "meta": {
        "profile": [ "http://hl7.org/fhir/us/qicore/StructureDefinition/qicore-procedure" ]
      },
      "extension": [ {
        "url": "http://hl7.org/fhir/us/qicore/StructureDefinition/qicore-recorded",
        "valueDateTime": "2013-04-05T13:35:00.000+00:00"
      } ],
      "status": "completed",
      "code": {
        "coding": [ {
          "system": "http://snomed.info/sct",
          "code": "10745001"
        } ]
      },
      "subject": {
        "reference": "Patient/2eec6963-508b-4072-ae9b-82677d25b591"
      },
      "performedPeriod": {
        "start": "2026-01-01T08:00:00.000+00:00",
        "end": "2026-01-01T08:15:00.000+00:00"
      }
    },
    "request": {
      "method": "PUT",
      "url": "Procedure/7928ad91-0f78-45d9-87ad-d5b226e4aaf5"
    }
  }, {
    "fullUrl": "https://madie.cms.gov/Condition/05308065-69ee-451b-b6b2-d14de5ccd7e0",
    "resource": {
      "resourceType": "Condition",
      "id": "05308065-69ee-451b-b6b2-d14de5ccd7e0",
      "meta": {
        "profile": [ "http://hl7.org/fhir/us/qicore/StructureDefinition/qicore-condition-encounter-diagnosis" ]
      },
      "category": [ {
        "coding": [ {
          "system": "http://terminology.hl7.org/CodeSystem/condition-category",
          "code": "encounter-diagnosis",
          "display": "Encounter Diagnosis"
        } ]
      } ],
      "code": {
        "coding": [ {
          "system": "http://snomed.info/sct",
          "version": "2024-03",
          "code": "23464008",
          "display": "Gestation period, 20 weeks",
          "userSelected": true
        } ]
      },
      "subject": {
        "reference": "Patient/2eec6963-508b-4072-ae9b-82677d25b591"
      },
      "encounter": {
        "reference": "Encounter/99e17195-5c74-44fa-bdbc-fa358a9ae37b"
      },
      "recordedDate": "2026-10-24T08:00:00.000+00:00"
    },
    "request": {
      "method": "PUT",
      "url": "Condition/05308065-69ee-451b-b6b2-d14de5ccd7e0"
    }
  }, {
    "fullUrl": "https://madie.cms.gov/Coverage/aabdf7ee-e421-49f1-9dd9-bcb9d8a2cb7b",
    "resource": {
      "resourceType": "Coverage",
      "id": "aabdf7ee-e421-49f1-9dd9-bcb9d8a2cb7b",
      "meta": {
        "profile": [ "http://hl7.org/fhir/us/qicore/StructureDefinition/qicore-coverage" ]
      },
      "status": "active",
      "subscriberId": "523435",
      "beneficiary": {
        "reference": "Patient/2eec6963-508b-4072-ae9b-82677d25b591"
      },
      "relationship": {
        "coding": [ {
          "system": "http://terminology.hl7.org/CodeSystem/subscriber-relationship",
          "code": "self"
        } ]
      },
      "payor": [ {
        "reference": "Organization/d6f3b3bb-bfb7-41a3-85f7-ff09c488eaaa"
      } ]
    },
    "request": {
      "method": "PUT",
      "url": "Coverage/aabdf7ee-e421-49f1-9dd9-bcb9d8a2cb7b"
    }
  }, {
    "fullUrl": "https://madie.cms.gov/Organization/d6f3b3bb-bfb7-41a3-85f7-ff09c488eaaa",
    "resource": {
      "resourceType": "Organization",
      "id": "d6f3b3bb-bfb7-41a3-85f7-ff09c488eaaa",
      "meta": {
        "profile": [ "http://hl7.org/fhir/us/qicore/StructureDefinition/qicore-organization" ]
      },
      "identifier": [ {
        "use": "temp",
        "system": "urn:oid:2.16.840.1.113883.4.4",
        "value": "21-3259825"
      } ],
      "active": true,
      "type": [ {
        "coding": [ {
          "system": "http://terminology.hl7.org/CodeSystem/organization-type",
          "code": "pay",
          "display": "Payer"
        } ]
      } ],
      "name": "Blue Cross Blue Shield of Texas",
      "telecom": [ {
        "system": "phone",
        "value": "(+1) 972-766-6900"
      } ],
      "address": [ {
        "use": "billing",
        "type": "postal",
        "line": [ "P.O. Box 660044" ],
        "city": "Dallas",
        "state": "TX",
        "postalCode": "75266-0044",
        "country": "USA"
      } ]
    },
    "request": {
      "method": "PUT",
      "url": "Organization/d6f3b3bb-bfb7-41a3-85f7-ff09c488eaaa"
    }
  }, {
    "fullUrl": "https://madie.cms.gov/Practitioner/52ffe33c-2051-4182-8420-85fb152b664a",
    "resource": {
      "resourceType": "Practitioner",
      "id": "52ffe33c-2051-4182-8420-85fb152b664a",
      "meta": {
        "profile": [ "http://hl7.org/fhir/us/qicore/StructureDefinition/qicore-practitioner" ]
      },
      "identifier": [ {
        "system": "http://hl7.org/fhir/sid/us-npi",
        "value": "1234567890"
      } ],
      "name": [ {
        "family": "Evil",
        "prefix": [ "Dr" ]
      } ]
    },
    "request": {
      "method": "PUT",
      "url": "Practitioner/52ffe33c-2051-4182-8420-85fb152b664a"
    }
  }, {
    "fullUrl": "https://madie.cms.gov/MeasureReport/50b4055c-1921-4d92-ac82-d2c02004c9c5",
    "resource": {
      "resourceType": "MeasureReport",
      "id": "50b4055c-1921-4d92-ac82-d2c02004c9c5",
      "meta": {
        "profile": [ "http://hl7.org/fhir/us/cqfmeasures/StructureDefinition/test-case-cqfm" ]
      },
      "contained": [ {
        "resourceType": "Parameters",
        "id": "ee5ad226-24ab-4407-ad20-130bfd701f8e-parameters",
        "parameter": [ {
          "name": "subject",
          "valueString": "2eec6963-508b-4072-ae9b-82677d25b591"
        } ]
      } ],
      "extension": [ {
        "url": "http://hl7.org/fhir/StructureDefinition/cqf-inputParameters",
        "valueReference": {
          "reference": "#ee5ad226-24ab-4407-ad20-130bfd701f8e-parameters"
        }
      }, {
        "url": "http://hl7.org/fhir/us/cqfmeasures/StructureDefinition/cqfm-testCaseDescription",
        "valueMarkdown": "Calculated EGA = 19 weeks and 6 days.  Diagnosis code = 20 weeks.  Denom fails based on hierarchy."
      } ],
      "modifierExtension": [ {
        "url": "http://hl7.org/fhir/us/cqfmeasures/StructureDefinition/cqfm-isTestCase",
        "valueBoolean": true
      } ],
      "status": "complete",
      "type": "individual",
      "measure": "https://madie.cms.gov/Measure/CMS1028FHIRPCSevereOBComps",
      "period": {
        "start": "2026-01-01",
        "end": "2026-12-31"
      },
      "group": [ {
        "id": "Group_1",
        "population": [ {
          "id": "InitialPopulation_1",
          "code": {
            "coding": [ {
              "system": "http://terminology.hl7.org/CodeSystem/measure-population",
              "code": "initial-population",
              "display": "Initial Population"
            } ]
          },
          "count": 1
        }, {
          "id": "Denominator_1",
          "code": {
            "coding": [ {
              "system": "http://terminology.hl7.org/CodeSystem/measure-population",
              "code": "denominator",
              "display": "Denominator"
            } ]
          },
          "count": 0
        }, {
          "id": "Numerator_1",
          "code": {
            "coding": [ {
              "system": "http://terminology.hl7.org/CodeSystem/measure-population",
              "code": "numerator",
              "display": "Numerator"
            } ]
          },
          "count": 0
        }, {
          "id": "NumeratorExclusion_1",
          "code": {
            "coding": [ {
              "system": "http://terminology.hl7.org/CodeSystem/measure-population",
              "code": "numerator-exclusion",
              "display": "Numerator Exclusion"
            } ]
          },
          "count": 0
        } ],
        "measureScore": {
          "value": 0.0
        }
      }, {
        "id": "Group_2",
        "population": [ {
          "id": "InitialPopulation_2",
          "code": {
            "coding": [ {
              "system": "http://terminology.hl7.org/CodeSystem/measure-population",
              "code": "initial-population",
              "display": "Initial Population"
            } ]
          },
          "count": 1
        }, {
          "id": "Denominator_2",
          "code": {
            "coding": [ {
              "system": "http://terminology.hl7.org/CodeSystem/measure-population",
              "code": "denominator",
              "display": "Denominator"
            } ]
          },
          "count": 0
        }, {
          "id": "Numerator_2",
          "code": {
            "coding": [ {
              "system": "http://terminology.hl7.org/CodeSystem/measure-population",
              "code": "numerator",
              "display": "Numerator"
            } ]
          },
          "count": 0
        }, {
          "id": "NumeratorExclusion_2",
          "code": {
            "coding": [ {
              "system": "http://terminology.hl7.org/CodeSystem/measure-population",
              "code": "numerator-exclusion",
              "display": "Numerator Exclusion"
            } ]
          },
          "count": 0
        } ],
        "measureScore": {
          "value": 0.0
        }
      } ],
      "evaluatedResource": [ {
        "reference": "Patient/2eec6963-508b-4072-ae9b-82677d25b591"
      }, {
        "reference": "Observation/50e50d1b-5b1f-40ca-9833-39ee77a75bfe"
      }, {
        "reference": "Encounter/99e17195-5c74-44fa-bdbc-fa358a9ae37b"
      }, {
        "reference": "Observation/a866368d-ee43-41f0-8807-4c8f4d2fffab"
      }, {
        "reference": "Procedure/7928ad91-0f78-45d9-87ad-d5b226e4aaf5"
      }, {
        "reference": "Condition/05308065-69ee-451b-b6b2-d14de5ccd7e0"
      }, {
        "reference": "Coverage/aabdf7ee-e421-49f1-9dd9-bcb9d8a2cb7b"
      }, {
        "reference": "Organization/d6f3b3bb-bfb7-41a3-85f7-ff09c488eaaa"
      }, {
        "reference": "Practitioner/52ffe33c-2051-4182-8420-85fb152b664a"
      } ]
    },
    "request": {
      "method": "PUT",
      "url": "MeasureReport/50b4055c-1921-4d92-ac82-d2c02004c9c5"
    }
  } ]
}