{
  "resourceType": "Bundle",
  "id": "649f01730273169212f0520b",
  "type": "collection",
  "entry": [ {
    "fullUrl": "https://madie.cms.gov/Patient/b08c7da7-5871-499c-b266-c745ba23a426",
    "resource": {
      "resourceType": "Patient",
      "id": "b08c7da7-5871-499c-b266-c745ba23a426",
      "meta": {
        "profile": [ "http://hl7.org/fhir/us/qicore/StructureDefinition/qicore-patient" ]
      },
      "extension": [ {
        "url": "http://hl7.org/fhir/us/core/StructureDefinition/us-core-race",
        "extension": [ {
          "url": "ombCategory",
          "valueCoding": {
            "system": "urn:oid:2.16.840.1.113883.6.238",
            "code": "2054-5",
            "display": "Black or African American",
            "userSelected": true
          }
        }, {
          "url": "text",
          "valueString": "Black or African American"
        } ]
      }, {
        "url": "http://hl7.org/fhir/us/core/StructureDefinition/us-core-ethnicity",
        "extension": [ {
          "url": "ombCategory",
          "valueCoding": {
            "system": "urn:oid:2.16.840.1.113883.6.238",
            "code": "2186-5",
            "display": "Not Hispanic or Latino",
            "userSelected": true
          }
        }, {
          "url": "text",
          "valueString": "Not Hispanic or Latino"
        } ]
      }, {
        "url": "http://hl7.org/fhir/us/core/StructureDefinition/us-core-sex",
        "valueCode": "248153007"
      } ],
      "identifier": [ {
        "type": {
          "coding": [ {
            "system": "http://terminology.hl7.org/CodeSystem/v2-0203",
            "code": "MR"
          } ]
        },
        "system": "https://bonnie-fhir.healthit.gov/",
        "value": "649f01730273169212f0520b"
      } ],
      "name": [ {
        "family": "IPPass",
        "given": [ "HIVonDec31at1159ofMP" ]
      } ],
      "gender": "male",
      "birthDate": "2001-02-04"
    }
  }, {
    "fullUrl": "https://madie.cms.gov/Condition/39c7c8f7-940c-4d77-af91-1a61c630b823",
    "resource": {
      "resourceType": "Condition",
      "id": "39c7c8f7-940c-4d77-af91-1a61c630b823",
      "meta": {
        "profile": [ "http://hl7.org/fhir/us/qicore/StructureDefinition/qicore-condition-problems-health-concerns" ]
      },
      "clinicalStatus": {
        "coding": [ {
          "system": "http://terminology.hl7.org/CodeSystem/condition-clinical",
          "code": "active",
          "display": "active",
          "userSelected": true
        } ]
      },
      "category": [ {
        "coding": [ {
          "system": "http://terminology.hl7.org/CodeSystem/condition-category",
          "code": "problem-list-item",
          "display": "Problem List Item"
        } ]
      } ],
      "code": {
        "coding": [ {
          "system": "http://hl7.org/fhir/sid/icd-10-cm",
          "code": "B20",
          "userSelected": true
        } ]
      },
      "subject": {
        "reference": "Patient/b08c7da7-5871-499c-b266-c745ba23a426"
      },
      "onsetDateTime": "2026-12-31T23:59:00.000+00:00",
      "recordedDate": "2026-12-31T23:59:00.000+00:00"
    }
  }, {
    "fullUrl": "https://madie.cms.gov/Condition/efce783a-75f1-4dd7-9416-8e8c0d14ef06",
    "resource": {
      "resourceType": "Condition",
      "id": "efce783a-75f1-4dd7-9416-8e8c0d14ef06",
      "meta": {
        "profile": [ "http://hl7.org/fhir/us/qicore/StructureDefinition/qicore-condition-encounter-diagnosis" ]
      },
      "clinicalStatus": {
        "coding": [ {
          "system": "http://terminology.hl7.org/CodeSystem/condition-clinical",
          "code": "active",
          "display": "active",
          "userSelected": true
        } ]
      },
      "category": [ {
        "coding": [ {
          "system": "http://terminology.hl7.org/CodeSystem/condition-category",
          "code": "encounter-diagnosis",
          "display": "Encounter Diagnosis"
        } ]
      } ],
      "code": {
        "coding": [ {
          "system": "http://hl7.org/fhir/sid/icd-10-cm",
          "code": "B20",
          "userSelected": true
        } ]
      },
      "subject": {
        "reference": "Patient/b08c7da7-5871-499c-b266-c745ba23a426"
      },
      "onsetDateTime": "2026-12-31T23:59:00.000+00:00",
      "recordedDate": "2026-12-31T23:59:00.000+00:00"
    }
  }, {
    "fullUrl": "https://madie.cms.gov/Encounter/7a163986-a7ef-4df4-a9e5-0791f553d49a",
    "resource": {
      "resourceType": "Encounter",
      "id": "7a163986-a7ef-4df4-a9e5-0791f553d49a",
      "meta": {
        "profile": [ "http://hl7.org/fhir/us/qicore/StructureDefinition/qicore-encounter" ]
      },
      "status": "finished",
      "class": {
        "system": "http://terminology.hl7.org/CodeSystem/v3-ActCode",
        "code": "AMB",
        "display": "ambulatory"
      },
      "type": [ {
        "coding": [ {
          "system": "http://www.ama-assn.org/go/cpt",
          "version": "2023",
          "code": "99395",
          "display": "Periodic comprehensive preventive medicine reevaluation and management of an individual including an age and gender appropriate history, examination, counseling/anticipatory guidance/risk factor reduction interventions, and the ordering of laboratory/diagnostic procedures, established patient; 18-39 years",
          "userSelected": true
        } ]
      } ],
      "subject": {
        "reference": "Patient/b08c7da7-5871-499c-b266-c745ba23a426"
      },
      "period": {
        "start": "2026-09-29T08:00:00.000+00:00",
        "end": "2026-09-29T08:30:00.000+00:00"
      }
    }
  }, {
    "fullUrl": "https://madie.cms.gov/Coverage/6ababcad-dfeb-47a7-94ba-1d9bff880e30",
    "resource": {
      "resourceType": "Coverage",
      "id": "6ababcad-dfeb-47a7-94ba-1d9bff880e30",
      "meta": {
        "profile": [ "http://hl7.org/fhir/us/qicore/StructureDefinition/qicore-coverage" ]
      },
      "status": "active",
      "type": {
        "coding": [ {
          "code": "73",
          "userSelected": true
        } ]
      },
      "subscriberId": "123456",
      "beneficiary": {
        "reference": "Patient/b08c7da7-5871-499c-b266-c745ba23a426"
      },
      "relationship": {
        "coding": [ {
          "system": "http://terminology.hl7.org/CodeSystem/subscriber-relationship",
          "code": "self",
          "display": "Self"
        } ]
      },
      "payor": [ {
        "reference": "Organization/0a5e7122-01fe-4a91-95e9-e48b5b338874"
      } ]
    }
  }, {
    "fullUrl": "https://madie.cms.gov/Organization/0a5e7122-01fe-4a91-95e9-e48b5b338874",
    "resource": {
      "resourceType": "Organization",
      "id": "0a5e7122-01fe-4a91-95e9-e48b5b338874",
      "meta": {
        "profile": [ "http://hl7.org/fhir/us/qicore/StructureDefinition/qicore-organization" ]
      },
      "identifier": [ {
        "use": "temp",
        "system": "urn:oid:2.16.840.1.113883.4.4",
        "value": "21-3259825"
      } ],
      "active": true,
      "type": [ {
        "coding": [ {
          "system": "http://terminology.hl7.org/CodeSystem/organization-type",
          "code": "pay",
          "display": "Payer"
        } ]
      } ],
      "name": "Blue Cross Blue Shield of Texas",
      "telecom": [ {
        "system": "phone",
        "value": "(+1) 972-766-6900"
      } ],
      "address": [ {
        "use": "billing",
        "type": "postal",
        "line": [ "P.O. Box 660044" ],
        "city": "Dallas",
        "state": "TX",
        "postalCode": "75266-0044",
        "country": "USA"
      } ]
    }
  }, {
    "fullUrl": "https://madie.cms.gov/Practitioner/95a85da6-2cef-41ef-b9d2-4b1bd79c0012",
    "resource": {
      "resourceType": "Practitioner",
      "id": "95a85da6-2cef-41ef-b9d2-4b1bd79c0012",
      "meta": {
        "profile": [ "http://hl7.org/fhir/us/qicore/StructureDefinition/qicore-practitioner" ]
      },
      "identifier": [ {
        "system": "http://hl7.org/fhir/sid/us-npi",
        "value": "1689411712"
      } ],
      "name": [ {
        "family": "Evil",
        "prefix": [ "Dr" ]
      } ]
    }
  }, {
    "fullUrl": "https://madie.cms.gov/MeasureReport/66ef5b2c-84ce-42d7-80e7-a3da3a16a812",
    "resource": {
      "resourceType": "MeasureReport",
      "id": "66ef5b2c-84ce-42d7-80e7-a3da3a16a812",
      "meta": {
        "profile": [ "http://hl7.org/fhir/us/cqfmeasures/StructureDefinition/test-case-cqfm" ]
      },
      "contained": [ {
        "resourceType": "Parameters",
        "id": "f4aa84d9-f4d0-4994-82e2-2df65b3cd7db-parameters",
        "parameter": [ {
          "name": "subject",
          "valueString": "b08c7da7-5871-499c-b266-c745ba23a426"
        } ]
      } ],
      "extension": [ {
        "url": "http://hl7.org/fhir/StructureDefinition/cqf-inputParameters",
        "valueReference": {
          "reference": "#f4aa84d9-f4d0-4994-82e2-2df65b3cd7db-parameters"
        }
      }, {
        "url": "http://hl7.org/fhir/us/cqfmeasures/StructureDefinition/cqfm-testCaseDescription",
        "valueMarkdown": "Patient is over 13 years old with a dx of HIV on 12/31 of MP and has an encounter after the MP"
      } ],
      "modifierExtension": [ {
        "url": "http://hl7.org/fhir/us/cqfmeasures/StructureDefinition/cqfm-isTestCase",
        "valueBoolean": true
      } ],
      "status": "complete",
      "type": "individual",
      "measure": "https://madie.cms.gov/Measure/CMS1188FHIRHIVSTITesting",
      "period": {
        "start": "2026-01-01",
        "end": "2026-12-31"
      },
      "group": [ {
        "id": "Group_1",
        "population": [ {
          "id": "InitialPopulation_1",
          "code": {
            "coding": [ {
              "system": "http://terminology.hl7.org/CodeSystem/measure-population",
              "code": "initial-population",
              "display": "Initial Population"
            } ]
          },
          "count": 1
        }, {
          "id": "Denominator_1",
          "code": {
            "coding": [ {
              "system": "http://terminology.hl7.org/CodeSystem/measure-population",
              "code": "denominator",
              "display": "Denominator"
            } ]
          },
          "count": 1
        }, {
          "id": "Numerator_1",
          "code": {
            "coding": [ {
              "system": "http://terminology.hl7.org/CodeSystem/measure-population",
              "code": "numerator",
              "display": "Numerator"
            } ]
          },
          "count": 0
        } ],
        "measureScore": {
          "value": 1.0
        }
      } ],
      "evaluatedResource": [ {
        "reference": "Patient/b08c7da7-5871-499c-b266-c745ba23a426"
      }, {
        "reference": "Condition/39c7c8f7-940c-4d77-af91-1a61c630b823"
      }, {
        "reference": "Condition/efce783a-75f1-4dd7-9416-8e8c0d14ef06"
      }, {
        "reference": "Encounter/7a163986-a7ef-4df4-a9e5-0791f553d49a"
      }, {
        "reference": "Coverage/6ababcad-dfeb-47a7-94ba-1d9bff880e30"
      }, {
        "reference": "Organization/0a5e7122-01fe-4a91-95e9-e48b5b338874"
      }, {
        "reference": "Practitioner/95a85da6-2cef-41ef-b9d2-4b1bd79c0012"
      } ]
    }
  } ]
}