{
  "resourceType": "Bundle",
  "id": "DENEX2Pass-HospiceServiceRequestDuringMP",
  "type": "transaction",
  "entry": [ {
    "fullUrl": "https://madie.cms.gov/Patient/5e536adf-1159-404e-92e7-94d4f1affd98",
    "resource": {
      "resourceType": "Patient",
      "id": "5e536adf-1159-404e-92e7-94d4f1affd98",
      "meta": {
        "profile": [ "http://hl7.org/fhir/us/qicore/StructureDefinition/qicore-patient" ]
      },
      "extension": [ {
        "url": "http://hl7.org/fhir/us/core/StructureDefinition/us-core-race",
        "extension": [ {
          "url": "ombCategory",
          "valueCoding": {
            "system": "urn:oid:2.16.840.1.113883.6.238",
            "code": "2028-9",
            "display": "Asian",
            "userSelected": true
          }
        }, {
          "url": "text",
          "valueString": "Asian"
        } ]
      }, {
        "url": "http://hl7.org/fhir/us/core/StructureDefinition/us-core-ethnicity",
        "extension": [ {
          "url": "ombCategory",
          "valueCoding": {
            "system": "urn:oid:2.16.840.1.113883.6.238",
            "code": "2135-2",
            "display": "Hispanic or Latino",
            "userSelected": true
          }
        }, {
          "url": "text",
          "valueString": "Hispanic or Latino"
        } ]
      } ],
      "identifier": [ {
        "type": {
          "coding": [ {
            "system": "http://terminology.hl7.org/CodeSystem/v2-0203",
            "code": "MR"
          } ]
        },
        "system": "http://hospital.smarthealthit.org",
        "value": "999999995"
      } ],
      "name": [ {
        "family": "Bertha",
        "given": [ "Betty" ]
      } ],
      "gender": "female",
      "birthDate": "2016-12-31"
    },
    "request": {
      "method": "PUT",
      "url": "Patient/5e536adf-1159-404e-92e7-94d4f1affd98"
    }
  }, {
    "fullUrl": "https://madie.cms.gov/Encounter/96414020-515e-42ea-b7bf-9cce617b895e",
    "resource": {
      "resourceType": "Encounter",
      "id": "96414020-515e-42ea-b7bf-9cce617b895e",
      "meta": {
        "profile": [ "http://hl7.org/fhir/us/qicore/StructureDefinition/qicore-encounter" ]
      },
      "status": "finished",
      "class": {
        "system": "http://terminology.hl7.org/CodeSystem/v3-ActCode",
        "code": "AMB",
        "display": "ambulatory"
      },
      "type": [ {
        "coding": [ {
          "system": "http://snomed.info/sct",
          "code": "185464004",
          "display": "Out of hours visit - not night visit (procedure)"
        } ]
      } ],
      "subject": {
        "reference": "Patient/5e536adf-1159-404e-92e7-94d4f1affd98"
      },
      "period": {
        "start": "2026-01-01T00:00:00.000+00:00",
        "end": "2026-01-01T01:00:00.000+00:00"
      }
    },
    "request": {
      "method": "PUT",
      "url": "Encounter/96414020-515e-42ea-b7bf-9cce617b895e"
    }
  }, {
    "fullUrl": "https://madie.cms.gov/MedicationRequest/803caa0c-19ce-4aae-9f89-159f9162c616",
    "resource": {
      "resourceType": "MedicationRequest",
      "id": "803caa0c-19ce-4aae-9f89-159f9162c616",
      "meta": {
        "profile": [ "http://hl7.org/fhir/us/qicore/StructureDefinition/qicore-medicationrequest" ]
      },
      "status": "completed",
      "intent": "order",
      "medicationCodeableConcept": {
        "coding": [ {
          "system": "http://www.nlm.nih.gov/research/umls/rxnorm",
          "code": "884173",
          "display": "clonidine hydrochloride 0.1 MG Oral Tablet"
        } ]
      },
      "subject": {
        "reference": "Patient/5e536adf-1159-404e-92e7-94d4f1affd98"
      },
      "authoredOn": "2026-01-02T00:00:00.000+00:00",
      "requester": {
        "reference": "Practitioner/example"
      },
      "dosageInstruction": [ {
        "timing": {
          "repeat": {
            "boundsPeriod": {
              "start": "2026-01-02T00:00:00.000+00:00",
              "end": "2026-07-30T23:59:59.000+00:00"
            }
          }
        }
      } ],
      "dispenseRequest": {
        "expectedSupplyDuration": {
          "value": 210,
          "system": "http://unitsofmeasure.org",
          "code": "d"
        }
      }
    },
    "request": {
      "method": "PUT",
      "url": "MedicationRequest/803caa0c-19ce-4aae-9f89-159f9162c616"
    }
  }, {
    "fullUrl": "https://madie.cms.gov/Encounter/43f1c437-0ce8-4e98-aef0-0e51c5d6635a",
    "resource": {
      "resourceType": "Encounter",
      "id": "43f1c437-0ce8-4e98-aef0-0e51c5d6635a",
      "meta": {
        "profile": [ "http://hl7.org/fhir/us/qicore/StructureDefinition/qicore-encounter" ]
      },
      "status": "finished",
      "class": {
        "system": "http://terminology.hl7.org/CodeSystem/v3-ActCode",
        "code": "AMB",
        "display": "ambulatory"
      },
      "type": [ {
        "coding": [ {
          "system": "http://www.ama-assn.org/go/cpt",
          "code": "90791",
          "display": "Psychiatric diagnostic evaluation"
        } ]
      } ],
      "subject": {
        "reference": "Patient/5e536adf-1159-404e-92e7-94d4f1affd98"
      },
      "period": {
        "start": "2026-01-31T00:00:00.000+00:00",
        "end": "2026-01-31T01:00:00.000+00:00"
      }
    },
    "request": {
      "method": "PUT",
      "url": "Encounter/43f1c437-0ce8-4e98-aef0-0e51c5d6635a"
    }
  }, {
    "fullUrl": "https://madie.cms.gov/Encounter/3d8b1fa6-5de5-4d76-88b6-161781c55ce0",
    "resource": {
      "resourceType": "Encounter",
      "id": "3d8b1fa6-5de5-4d76-88b6-161781c55ce0",
      "meta": {
        "profile": [ "http://hl7.org/fhir/us/qicore/StructureDefinition/qicore-encounter" ]
      },
      "status": "finished",
      "class": {
        "system": "http://terminology.hl7.org/CodeSystem/v3-ActCode",
        "code": "AMB",
        "display": "ambulatory"
      },
      "type": [ {
        "coding": [ {
          "system": "http://www.ama-assn.org/go/cpt",
          "code": "90791",
          "display": "Psychiatric diagnostic evaluation"
        } ]
      } ],
      "subject": {
        "reference": "Patient/5e536adf-1159-404e-92e7-94d4f1affd98"
      },
      "period": {
        "start": "2026-06-30T00:00:00.000+00:00",
        "end": "2026-06-30T01:00:00.000+00:00"
      }
    },
    "request": {
      "method": "PUT",
      "url": "Encounter/3d8b1fa6-5de5-4d76-88b6-161781c55ce0"
    }
  }, {
    "fullUrl": "https://madie.cms.gov/Encounter/821ebb51-7264-45f9-8736-5cf220de0d73",
    "resource": {
      "resourceType": "Encounter",
      "id": "821ebb51-7264-45f9-8736-5cf220de0d73",
      "meta": {
        "profile": [ "http://hl7.org/fhir/us/qicore/StructureDefinition/qicore-encounter" ]
      },
      "status": "finished",
      "class": {
        "system": "http://terminology.hl7.org/CodeSystem/v3-ActCode",
        "code": "AMB",
        "display": "ambulatory"
      },
      "type": [ {
        "coding": [ {
          "system": "http://www.ama-assn.org/go/cpt",
          "code": "99245",
          "display": "Office or other outpatient consultation for a new or established patient, which requires a medically appropriate history and/or examination and high level of medical decision making. When using total time on the date of the encounter for code selection, 55 minutes must be met or exceeded."
        } ]
      } ],
      "subject": {
        "reference": "Patient/5e536adf-1159-404e-92e7-94d4f1affd98"
      },
      "period": {
        "start": "2026-08-31T00:00:00.000+00:00",
        "end": "2026-08-31T01:00:00.000+00:00"
      }
    },
    "request": {
      "method": "PUT",
      "url": "Encounter/821ebb51-7264-45f9-8736-5cf220de0d73"
    }
  }, {
    "fullUrl": "https://madie.cms.gov/ServiceRequest/4c02a6c8-4d80-4018-898d-a34a3407dad1",
    "resource": {
      "resourceType": "ServiceRequest",
      "id": "4c02a6c8-4d80-4018-898d-a34a3407dad1",
      "meta": {
        "profile": [ "http://hl7.org/fhir/us/qicore/StructureDefinition/qicore-servicerequest" ]
      },
      "status": "completed",
      "intent": "order",
      "category": [ {
        "coding": [ {
          "system": "http://snomed.info/sct",
          "code": "387713003",
          "display": "Surgical procedure"
        } ]
      } ],
      "priority": "routine",
      "code": {
        "coding": [ {
          "system": "http://snomed.info/sct",
          "code": "385763009",
          "display": "Hospice care (regime/therapy)"
        } ]
      },
      "subject": {
        "reference": "Patient/5e536adf-1159-404e-92e7-94d4f1affd98"
      },
      "authoredOn": "2026-01-02T00:00:00.000+00:00",
      "performerType": {
        "coding": [ {
          "system": "http://snomed.info/sct",
          "code": "405279007",
          "display": "Attending physician (occupation)"
        } ]
      }
    },
    "request": {
      "method": "PUT",
      "url": "ServiceRequest/4c02a6c8-4d80-4018-898d-a34a3407dad1"
    }
  }, {
    "fullUrl": "https://madie.cms.gov/MeasureReport/dbd4f8f2-fffe-42a7-b8bc-ce0d020db2a2",
    "resource": {
      "resourceType": "MeasureReport",
      "id": "dbd4f8f2-fffe-42a7-b8bc-ce0d020db2a2",
      "meta": {
        "profile": [ "http://hl7.org/fhir/us/cqfmeasures/StructureDefinition/test-case-cqfm" ]
      },
      "contained": [ {
        "resourceType": "Parameters",
        "id": "728f7462-819c-444e-9e4a-0c31fc1bd187-parameters",
        "parameter": [ {
          "name": "subject",
          "valueString": "5e536adf-1159-404e-92e7-94d4f1affd98"
        } ]
      } ],
      "extension": [ {
        "url": "http://hl7.org/fhir/StructureDefinition/cqf-inputParameters",
        "valueReference": {
          "reference": "#728f7462-819c-444e-9e4a-0c31fc1bd187-parameters"
        }
      }, {
        "url": "http://hl7.org/fhir/us/cqfmeasures/StructureDefinition/cqfm-testCaseDescription",
        "valueMarkdown": "Hospice service request during the MP"
      } ],
      "modifierExtension": [ {
        "url": "http://hl7.org/fhir/us/cqfmeasures/StructureDefinition/cqfm-isTestCase",
        "valueBoolean": true
      } ],
      "status": "complete",
      "type": "individual",
      "measure": "https://madie.cms.gov/Measure/CMS136FHIRChildADHDMedFollowUp",
      "period": {
        "start": "2026-01-01",
        "end": "2026-12-31"
      },
      "group": [ {
        "id": "Group_1",
        "population": [ {
          "id": "InitialPopulation_1",
          "code": {
            "coding": [ {
              "system": "http://terminology.hl7.org/CodeSystem/measure-population",
              "code": "initial-population",
              "display": "Initial Population"
            } ]
          },
          "count": 1
        }, {
          "id": "Denominator_1",
          "code": {
            "coding": [ {
              "system": "http://terminology.hl7.org/CodeSystem/measure-population",
              "code": "denominator",
              "display": "Denominator"
            } ]
          },
          "count": 1
        }, {
          "id": "DenominatorExclusion_1",
          "code": {
            "coding": [ {
              "system": "http://terminology.hl7.org/CodeSystem/measure-population",
              "code": "denominator-exclusion",
              "display": "Denominator Exclusion"
            } ]
          },
          "count": 1
        }, {
          "id": "Numerator_1",
          "code": {
            "coding": [ {
              "system": "http://terminology.hl7.org/CodeSystem/measure-population",
              "code": "numerator",
              "display": "Numerator"
            } ]
          },
          "count": 0
        } ],
        "measureScore": {
          "value": 1.0
        }
      }, {
        "id": "Group_2",
        "population": [ {
          "id": "InitialPopulation_2",
          "code": {
            "coding": [ {
              "system": "http://terminology.hl7.org/CodeSystem/measure-population",
              "code": "initial-population",
              "display": "Initial Population"
            } ]
          },
          "count": 1
        }, {
          "id": "Denominator_2",
          "code": {
            "coding": [ {
              "system": "http://terminology.hl7.org/CodeSystem/measure-population",
              "code": "denominator",
              "display": "Denominator"
            } ]
          },
          "count": 1
        }, {
          "id": "DenominatorExclusion_2",
          "code": {
            "coding": [ {
              "system": "http://terminology.hl7.org/CodeSystem/measure-population",
              "code": "denominator-exclusion",
              "display": "Denominator Exclusion"
            } ]
          },
          "count": 1
        }, {
          "id": "Numerator_2",
          "code": {
            "coding": [ {
              "system": "http://terminology.hl7.org/CodeSystem/measure-population",
              "code": "numerator",
              "display": "Numerator"
            } ]
          },
          "count": 0
        } ],
        "measureScore": {
          "value": 1.0
        }
      } ],
      "evaluatedResource": [ {
        "reference": "Patient/5e536adf-1159-404e-92e7-94d4f1affd98"
      }, {
        "reference": "Encounter/96414020-515e-42ea-b7bf-9cce617b895e"
      }, {
        "reference": "MedicationRequest/803caa0c-19ce-4aae-9f89-159f9162c616"
      }, {
        "reference": "Encounter/43f1c437-0ce8-4e98-aef0-0e51c5d6635a"
      }, {
        "reference": "Encounter/3d8b1fa6-5de5-4d76-88b6-161781c55ce0"
      }, {
        "reference": "Encounter/821ebb51-7264-45f9-8736-5cf220de0d73"
      }, {
        "reference": "ServiceRequest/4c02a6c8-4d80-4018-898d-a34a3407dad1"
      } ]
    },
    "request": {
      "method": "PUT",
      "url": "MeasureReport/dbd4f8f2-fffe-42a7-b8bc-ce0d020db2a2"
    }
  } ]
}