{
  "resourceType": "Bundle",
  "id": "64d3eebb7483504df34e44af",
  "type": "collection",
  "entry": [ {
    "fullUrl": "https://madie.cms.gov/Patient/8d813db7-b796-4f8a-a616-8ff89138159a",
    "resource": {
      "resourceType": "Patient",
      "id": "8d813db7-b796-4f8a-a616-8ff89138159a",
      "meta": {
        "profile": [ "http://hl7.org/fhir/us/qicore/StructureDefinition/qicore-patient" ]
      },
      "extension": [ {
        "url": "http://hl7.org/fhir/us/core/StructureDefinition/us-core-race",
        "extension": [ {
          "url": "ombCategory",
          "valueCoding": {
            "system": "urn:oid:2.16.840.1.113883.6.238",
            "code": "2054-5",
            "display": "Black or African American",
            "userSelected": true
          }
        }, {
          "url": "text",
          "valueString": "Black or African American"
        } ]
      }, {
        "url": "http://hl7.org/fhir/us/core/StructureDefinition/us-core-ethnicity",
        "extension": [ {
          "url": "ombCategory",
          "valueCoding": {
            "system": "urn:oid:2.16.840.1.113883.6.238",
            "code": "2135-2",
            "display": "Hispanic or Latino",
            "userSelected": true
          }
        }, {
          "url": "text",
          "valueString": "Hispanic or Latino"
        } ]
      } ],
      "identifier": [ {
        "type": {
          "coding": [ {
            "system": "http://terminology.hl7.org/CodeSystem/v2-0203",
            "code": "MR"
          } ]
        },
        "system": "https://bonnie-fhir.healthit.gov/",
        "value": "64d3eebb7483504df34e44af"
      } ],
      "name": [ {
        "family": "NumPass",
        "given": [ "TwoEncOver90DaysApart DRC" ]
      } ],
      "gender": "male",
      "birthDate": "1959-09-29"
    }
  }, {
    "fullUrl": "https://madie.cms.gov/Condition/5fdcbea1-e2a0-4c51-957e-8f985f209b57",
    "resource": {
      "resourceType": "Condition",
      "id": "5fdcbea1-e2a0-4c51-957e-8f985f209b57",
      "meta": {
        "profile": [ "http://hl7.org/fhir/us/qicore/StructureDefinition/qicore-condition-problems-health-concerns" ]
      },
      "clinicalStatus": {
        "coding": [ {
          "system": "http://terminology.hl7.org/CodeSystem/condition-clinical",
          "code": "active",
          "display": "active",
          "userSelected": true
        } ]
      },
      "category": [ {
        "coding": [ {
          "system": "http://terminology.hl7.org/CodeSystem/condition-category",
          "code": "problem-list-item",
          "display": "Problem List Item"
        } ]
      } ],
      "code": {
        "coding": [ {
          "system": "http://hl7.org/fhir/sid/icd-9-cm",
          "version": "2013",
          "code": "042",
          "display": "Human immunodeficiency virus [HIV] disease",
          "userSelected": true
        }, {
          "system": "http://snomed.info/sct",
          "version": "http://snomed.info/sct/731000124108/version/20250301",
          "code": "165816005",
          "userSelected": true
        } ]
      },
      "subject": {
        "reference": "Patient/8d813db7-b796-4f8a-a616-8ff89138159a"
      },
      "onsetDateTime": "2023-01-08T08:00:00.000+00:00"
    }
  }, {
    "fullUrl": "https://madie.cms.gov/Encounter/e448b36f-0496-428f-9be3-2221a1c511ad",
    "resource": {
      "resourceType": "Encounter",
      "id": "e448b36f-0496-428f-9be3-2221a1c511ad",
      "meta": {
        "profile": [ "http://hl7.org/fhir/us/qicore/StructureDefinition/qicore-encounter" ]
      },
      "status": "finished",
      "class": {
        "system": "http://terminology.hl7.org/CodeSystem/v3-ActCode",
        "code": "AMB",
        "display": "ambulatory"
      },
      "type": [ {
        "coding": [ {
          "system": "http://snomed.info/sct",
          "version": "2022-09",
          "code": "185463005",
          "display": "Visit out of hours (procedure)",
          "userSelected": true
        } ]
      } ],
      "subject": {
        "reference": "Patient/8d813db7-b796-4f8a-a616-8ff89138159a"
      },
      "period": {
        "start": "2026-02-01T08:00:00.000+00:00",
        "end": "2026-02-01T08:15:00.000+00:00"
      }
    }
  }, {
    "fullUrl": "https://madie.cms.gov/Encounter/5a4d527b-2784-4697-afd7-b166381cea7a",
    "resource": {
      "resourceType": "Encounter",
      "id": "5a4d527b-2784-4697-afd7-b166381cea7a",
      "meta": {
        "profile": [ "http://hl7.org/fhir/us/qicore/StructureDefinition/qicore-encounter" ]
      },
      "status": "finished",
      "class": {
        "system": "http://terminology.hl7.org/CodeSystem/v3-ActCode",
        "code": "AMB",
        "display": "ambulatory"
      },
      "type": [ {
        "coding": [ {
          "system": "http://www.ama-assn.org/go/cpt",
          "code": "99429",
          "display": "Unlisted preventive medicine service",
          "userSelected": true
        } ]
      } ],
      "subject": {
        "reference": "Patient/8d813db7-b796-4f8a-a616-8ff89138159a"
      },
      "period": {
        "start": "2026-06-01T00:00:00.000+00:00",
        "end": "2026-06-01T08:15:00.000+00:00"
      }
    }
  }, {
    "fullUrl": "https://madie.cms.gov/Coverage/29fdc4bc-ea79-444b-a850-fe03b3b3e628",
    "resource": {
      "resourceType": "Coverage",
      "id": "29fdc4bc-ea79-444b-a850-fe03b3b3e628",
      "meta": {
        "profile": [ "http://hl7.org/fhir/us/qicore/StructureDefinition/qicore-coverage" ]
      },
      "status": "active",
      "subscriberId": "123456",
      "beneficiary": {
        "reference": "Patient/8d813db7-b796-4f8a-a616-8ff89138159a"
      },
      "relationship": {
        "coding": [ {
          "system": "http://terminology.hl7.org/CodeSystem/subscriber-relationship",
          "code": "self",
          "display": "Self"
        } ]
      },
      "payor": [ {
        "reference": "Organization/15e8b657-b5fa-4be0-93c2-df4fbc363ac5"
      } ]
    }
  }, {
    "fullUrl": "https://madie.cms.gov/Organization/15e8b657-b5fa-4be0-93c2-df4fbc363ac5",
    "resource": {
      "resourceType": "Organization",
      "id": "15e8b657-b5fa-4be0-93c2-df4fbc363ac5",
      "meta": {
        "profile": [ "http://hl7.org/fhir/us/qicore/StructureDefinition/qicore-organization" ]
      },
      "identifier": [ {
        "use": "temp",
        "system": "urn:oid:2.16.840.1.113883.4.4",
        "value": "21-3259825"
      } ],
      "active": true,
      "type": [ {
        "coding": [ {
          "system": "http://terminology.hl7.org/CodeSystem/organization-type",
          "code": "pay",
          "display": "Payer"
        } ]
      } ],
      "name": "Blue Cross Blue Shield of Texas",
      "telecom": [ {
        "system": "phone",
        "value": "(+1) 972-766-6900"
      } ],
      "address": [ {
        "use": "billing",
        "type": "postal",
        "line": [ "P.O. Box 660044" ],
        "city": "Dallas",
        "state": "TX",
        "postalCode": "75266-0044",
        "country": "USA"
      } ]
    }
  }, {
    "fullUrl": "https://madie.cms.gov/Practitioner/3e245525-4f37-459b-a79e-ce900fa54009",
    "resource": {
      "resourceType": "Practitioner",
      "id": "3e245525-4f37-459b-a79e-ce900fa54009",
      "meta": {
        "profile": [ "http://hl7.org/fhir/us/qicore/StructureDefinition/qicore-practitioner" ]
      },
      "identifier": [ {
        "system": "http://hl7.org/fhir/sid/us-npi",
        "value": "1689411712"
      } ],
      "name": [ {
        "family": "Evil",
        "prefix": [ "Dr" ]
      } ]
    }
  }, {
    "fullUrl": "https://madie.cms.gov/MeasureReport/9557f820-465d-493e-ad85-67b232cbb329",
    "resource": {
      "resourceType": "MeasureReport",
      "id": "9557f820-465d-493e-ad85-67b232cbb329",
      "meta": {
        "profile": [ "http://hl7.org/fhir/us/cqfmeasures/StructureDefinition/test-case-cqfm" ]
      },
      "contained": [ {
        "resourceType": "Parameters",
        "id": "03156728-c3e3-4b15-b4e4-b3c96af09d7a-parameters",
        "parameter": [ {
          "name": "subject",
          "valueString": "8d813db7-b796-4f8a-a616-8ff89138159a"
        } ]
      } ],
      "extension": [ {
        "url": "http://hl7.org/fhir/StructureDefinition/cqf-inputParameters",
        "valueReference": {
          "reference": "#03156728-c3e3-4b15-b4e4-b3c96af09d7a-parameters"
        }
      }, {
        "url": "http://hl7.org/fhir/us/cqfmeasures/StructureDefinition/cqfm-testCaseDescription",
        "valueMarkdown": "Patient had two encounters over 90 days apart, with one encounter being unlisted preventive medicine service."
      } ],
      "modifierExtension": [ {
        "url": "http://hl7.org/fhir/us/cqfmeasures/StructureDefinition/cqfm-isTestCase",
        "valueBoolean": true
      } ],
      "status": "complete",
      "type": "individual",
      "measure": "https://madie.cms.gov/Measure/CMS1157FHIRHIVRetention",
      "period": {
        "start": "2026-01-01",
        "end": "2026-12-31"
      },
      "group": [ {
        "id": "Group_1",
        "population": [ {
          "id": "InitialPopulation_1",
          "code": {
            "coding": [ {
              "system": "http://terminology.hl7.org/CodeSystem/measure-population",
              "code": "initial-population",
              "display": "Initial Population"
            } ]
          },
          "count": 1
        }, {
          "id": "Denominator_1",
          "code": {
            "coding": [ {
              "system": "http://terminology.hl7.org/CodeSystem/measure-population",
              "code": "denominator",
              "display": "Denominator"
            } ]
          },
          "count": 1
        }, {
          "id": "Numerator_1",
          "code": {
            "coding": [ {
              "system": "http://terminology.hl7.org/CodeSystem/measure-population",
              "code": "numerator",
              "display": "Numerator"
            } ]
          },
          "count": 1
        } ],
        "measureScore": {
          "value": 1.0
        }
      } ],
      "evaluatedResource": [ {
        "reference": "Patient/8d813db7-b796-4f8a-a616-8ff89138159a"
      }, {
        "reference": "Condition/5fdcbea1-e2a0-4c51-957e-8f985f209b57"
      }, {
        "reference": "Encounter/e448b36f-0496-428f-9be3-2221a1c511ad"
      }, {
        "reference": "Encounter/5a4d527b-2784-4697-afd7-b166381cea7a"
      }, {
        "reference": "Coverage/29fdc4bc-ea79-444b-a850-fe03b3b3e628"
      }, {
        "reference": "Organization/15e8b657-b5fa-4be0-93c2-df4fbc363ac5"
      }, {
        "reference": "Practitioner/3e245525-4f37-459b-a79e-ce900fa54009"
      } ]
    }
  } ]
}