{
  "resourceType": "Bundle",
  "id": "tests-IPPFail-MedIsNotHypoMedGlucoseLT40-bundle",
  "type": "transaction",
  "entry": [ {
    "fullUrl": "https://madie.cms.gov/Encounter/fec6d0b5-5a65-4d03-9a65-7a7b57fc3a27",
    "resource": {
      "resourceType": "Encounter",
      "id": "fec6d0b5-5a65-4d03-9a65-7a7b57fc3a27",
      "meta": {
        "profile": [ "http://hl7.org/fhir/us/qicore/StructureDefinition/qicore-encounter" ]
      },
      "status": "finished",
      "class": {
        "system": "http://terminology.hl7.org/CodeSystem/v3-ActCode",
        "code": "IMP",
        "display": "Inpatient encounter"
      },
      "type": [ {
        "coding": [ {
          "system": "http://snomed.info/sct",
          "code": "183452005",
          "display": "Emergency hospital admission"
        } ]
      } ],
      "subject": {
        "reference": "Patient/78865fb4-49a4-42a3-b493-052f152b7482"
      },
      "period": {
        "start": "2026-07-11T08:00:00.000Z",
        "end": "2026-07-14T21:00:00.000Z"
      }
    },
    "request": {
      "method": "PUT",
      "url": "Encounter/fec6d0b5-5a65-4d03-9a65-7a7b57fc3a27"
    }
  }, {
    "fullUrl": "https://madie.cms.gov/MedicationAdministration/7d674143-e26f-4aeb-9adf-ce828fc09102",
    "resource": {
      "resourceType": "MedicationAdministration",
      "id": "7d674143-e26f-4aeb-9adf-ce828fc09102",
      "meta": {
        "profile": [ "http://hl7.org/fhir/us/qicore/StructureDefinition/qicore-medicationadministration" ]
      },
      "status": "completed",
      "medicationCodeableConcept": {
        "coding": [ {
          "system": "http://www.nlm.nih.gov/research/umls/rxnorm",
          "code": "905377",
          "display": "hydralazine hydrochloride 37.5 MG / isosorbide dinitrate 20 MG Oral Tablet"
        } ]
      },
      "subject": {
        "reference": "Patient/78865fb4-49a4-42a3-b493-052f152b7482"
      },
      "effectivePeriod": {
        "start": "2026-07-11T08:00:00.000Z",
        "end": "2026-07-11T09:00:00.000Z"
      }
    },
    "request": {
      "method": "PUT",
      "url": "MedicationAdministration/7d674143-e26f-4aeb-9adf-ce828fc09102"
    }
  }, {
    "fullUrl": "https://madie.cms.gov/Observation/a688227b-016f-4e96-9e97-1aeabcf69d2f",
    "resource": {
      "resourceType": "Observation",
      "id": "a688227b-016f-4e96-9e97-1aeabcf69d2f",
      "meta": {
        "profile": [ "http://hl7.org/fhir/us/qicore/StructureDefinition/qicore-observation" ]
      },
      "status": "final",
      "category": [ {
        "coding": [ {
          "system": "http://terminology.hl7.org/CodeSystem/observation-category",
          "code": "laboratory",
          "display": "Laboratory"
        } ],
        "text": "Laboratory"
      } ],
      "code": {
        "coding": [ {
          "system": "http://loinc.org",
          "code": "1547-9",
          "display": "Glucose [Mass/volume] in Serum or Plasma --baseline"
        } ]
      },
      "subject": {
        "reference": "Patient/78865fb4-49a4-42a3-b493-052f152b7482"
      },
      "effectivePeriod": {
        "start": "2026-07-11T09:00:00.000Z",
        "end": "2026-07-11T09:15:00.000Z"
      },
      "issued": "2026-07-11T08:00:00.000Z",
      "valueQuantity": {
        "value": 35,
        "unit": "mg/dL"
      }
    },
    "request": {
      "method": "PUT",
      "url": "Observation/a688227b-016f-4e96-9e97-1aeabcf69d2f"
    }
  }, {
    "fullUrl": "https://madie.cms.gov/Patient/78865fb4-49a4-42a3-b493-052f152b7482",
    "resource": {
      "resourceType": "Patient",
      "id": "78865fb4-49a4-42a3-b493-052f152b7482",
      "meta": {
        "profile": [ "http://hl7.org/fhir/us/qicore/StructureDefinition/qicore-patient" ]
      },
      "extension": [ {
        "url": "http://hl7.org/fhir/us/core/StructureDefinition/us-core-race",
        "extension": [ {
          "url": "ombCategory",
          "valueCoding": {
            "system": "urn:oid:2.16.840.1.113883.6.238",
            "code": "2106-3",
            "display": "White"
          }
        }, {
          "url": "text",
          "valueString": "White"
        } ]
      }, {
        "url": "http://hl7.org/fhir/us/core/StructureDefinition/us-core-ethnicity",
        "extension": [ {
          "url": "ombCategory",
          "valueCoding": {
            "system": "urn:oid:2.16.840.1.113883.6.238",
            "code": "2135-2",
            "display": "Hispanic or Latino"
          }
        }, {
          "url": "text",
          "valueString": "Hispanic or Latino"
        } ]
      }, {
        "url": "http://hl7.org/fhir/us/core/StructureDefinition/us-core-sex",
        "valueCode": "248153007"
      } ],
      "identifier": [ {
        "system": "http://hospital.smarthealthit.org",
        "value": "999999999"
      } ],
      "name": [ {
        "family": "CMSIPPFail",
        "given": [ "MedIsNotHypoMedGlucoseLT40" ]
      } ],
      "gender": "female",
      "birthDate": "2000-07-11"
    },
    "request": {
      "method": "PUT",
      "url": "Patient/78865fb4-49a4-42a3-b493-052f152b7482"
    }
  }, {
    "fullUrl": "https://madie.cms.gov/MeasureReport/61e46313-4946-42c5-a028-920b0bdd30a8",
    "resource": {
      "resourceType": "MeasureReport",
      "id": "61e46313-4946-42c5-a028-920b0bdd30a8",
      "meta": {
        "profile": [ "http://hl7.org/fhir/us/cqfmeasures/StructureDefinition/test-case-cqfm" ]
      },
      "contained": [ {
        "resourceType": "Parameters",
        "id": "a709d567-91be-48da-84e1-de94ddadd773-parameters",
        "parameter": [ {
          "name": "subject",
          "valueString": "78865fb4-49a4-42a3-b493-052f152b7482"
        } ]
      } ],
      "extension": [ {
        "url": "http://hl7.org/fhir/StructureDefinition/cqf-inputParameters",
        "valueReference": {
          "reference": "#a709d567-91be-48da-84e1-de94ddadd773-parameters"
        }
      }, {
        "url": "http://hl7.org/fhir/us/cqfmeasures/StructureDefinition/cqfm-testCaseDescription",
        "valueMarkdown": "Patient inpatient, but the med administered was not hypoglycemic med. Hypo med must be administered during encounter to meet IPP.  Patient had glucose <40 during encounter, but no hypo med administered on or prior to test no Numerator.\n\n(CMS #11)"
      } ],
      "modifierExtension": [ {
        "url": "http://hl7.org/fhir/us/cqfmeasures/StructureDefinition/cqfm-isTestCase",
        "valueBoolean": true
      } ],
      "status": "complete",
      "type": "individual",
      "measure": "https://madie.cms.gov/Measure/NHSNGlycemicControlHypoglycemiaInitialPopulation",
      "period": {
        "start": "2026-01-01",
        "end": "2026-12-31"
      },
      "group": [ {
        "id": "Group_1",
        "population": [ {
          "id": "InitialPopulation_1",
          "code": {
            "coding": [ {
              "system": "http://terminology.hl7.org/CodeSystem/measure-population",
              "code": "initial-population",
              "display": "Initial Population"
            } ]
          },
          "count": 0
        } ],
        "measureScore": {
          "value": 0.0
        }
      } ],
      "evaluatedResource": [ {
        "reference": "Encounter/fec6d0b5-5a65-4d03-9a65-7a7b57fc3a27"
      }, {
        "reference": "MedicationAdministration/7d674143-e26f-4aeb-9adf-ce828fc09102"
      }, {
        "reference": "Observation/a688227b-016f-4e96-9e97-1aeabcf69d2f"
      }, {
        "reference": "Patient/78865fb4-49a4-42a3-b493-052f152b7482"
      } ]
    },
    "request": {
      "method": "PUT",
      "url": "MeasureReport/61e46313-4946-42c5-a028-920b0bdd30a8"
    }
  } ]
}