{
  "resourceType": "Bundle",
  "id": "NUMERPass-LAIV",
  "type": "transaction",
  "entry": [ {
    "fullUrl": "https://madie.cms.gov/Patient/46362f30-f48e-4839-a562-941e85cf55ea",
    "resource": {
      "resourceType": "Patient",
      "id": "46362f30-f48e-4839-a562-941e85cf55ea",
      "meta": {
        "profile": [ "http://hl7.org/fhir/us/qicore/StructureDefinition/qicore-patient" ]
      },
      "extension": [ {
        "url": "http://hl7.org/fhir/us/core/StructureDefinition/us-core-race",
        "extension": [ {
          "url": "ombCategory",
          "valueCoding": {
            "system": "urn:oid:2.16.840.1.113883.6.238",
            "code": "2028-9",
            "display": "Asian"
          }
        }, {
          "url": "text",
          "valueString": "Asian"
        } ]
      }, {
        "url": "http://hl7.org/fhir/us/core/StructureDefinition/us-core-ethnicity",
        "extension": [ {
          "url": "ombCategory",
          "valueCoding": {
            "system": "urn:oid:2.16.840.1.113883.6.238",
            "code": "2135-2",
            "display": "Hispanic or Latino"
          }
        }, {
          "url": "text",
          "valueString": "Hispanic or Latino"
        } ]
      } ],
      "identifier": [ {
        "system": "http://hospital.smarthealthit.org",
        "value": "999999995"
      } ],
      "name": [ {
        "family": "Bertha",
        "given": [ "Betty" ]
      } ],
      "gender": "female",
      "birthDate": "2024-01-01"
    },
    "request": {
      "method": "PUT",
      "url": "Patient/46362f30-f48e-4839-a562-941e85cf55ea"
    }
  }, {
    "fullUrl": "https://madie.cms.gov/Encounter/ce28824a-0432-478b-abac-ea51b62a35a4",
    "resource": {
      "resourceType": "Encounter",
      "id": "ce28824a-0432-478b-abac-ea51b62a35a4",
      "meta": {
        "profile": [ "http://hl7.org/fhir/us/qicore/StructureDefinition/qicore-encounter" ]
      },
      "status": "finished",
      "class": {
        "system": "http://terminology.hl7.org/CodeSystem/v3-ActCode",
        "code": "AMB",
        "display": "ambulatory"
      },
      "type": [ {
        "coding": [ {
          "system": "http://snomed.info/sct",
          "code": "185317003",
          "display": "Telephone encounter (procedure)"
        } ]
      } ],
      "subject": {
        "reference": "Patient/46362f30-f48e-4839-a562-941e85cf55ea"
      },
      "period": {
        "start": "2026-01-01T01:00:00.000+00:00",
        "end": "2026-01-01T01:15:00.000+00:00"
      }
    },
    "request": {
      "method": "PUT",
      "url": "Encounter/ce28824a-0432-478b-abac-ea51b62a35a4"
    }
  }, {
    "fullUrl": "https://madie.cms.gov/Immunization/6b996acb-8502-4979-81dd-008cab82d29f",
    "resource": {
      "resourceType": "Immunization",
      "id": "6b996acb-8502-4979-81dd-008cab82d29f",
      "meta": {
        "profile": [ "http://hl7.org/fhir/us/qicore/StructureDefinition/qicore-immunization" ]
      },
      "status": "completed",
      "vaccineCode": {
        "coding": [ {
          "system": "http://hl7.org/fhir/sid/cvx",
          "code": "146",
          "display": "DTaP,IPV,Hib,HepB"
        } ]
      },
      "patient": {
        "reference": "Patient/46362f30-f48e-4839-a562-941e85cf55ea"
      },
      "occurrenceDateTime": "2025-01-02T00:00:00.000+00:00",
      "recorded": "2025-01-02T00:00:00.000+00:00",
      "primarySource": true
    },
    "request": {
      "method": "PUT",
      "url": "Immunization/6b996acb-8502-4979-81dd-008cab82d29f"
    }
  }, {
    "fullUrl": "https://madie.cms.gov/Immunization/a01e7266-fd8c-419c-b03b-e65eb76504bc",
    "resource": {
      "resourceType": "Immunization",
      "id": "a01e7266-fd8c-419c-b03b-e65eb76504bc",
      "meta": {
        "profile": [ "http://hl7.org/fhir/us/qicore/StructureDefinition/qicore-immunization" ]
      },
      "status": "completed",
      "vaccineCode": {
        "coding": [ {
          "system": "http://hl7.org/fhir/sid/cvx",
          "code": "146",
          "display": "DTaP,IPV,Hib,HepB"
        } ]
      },
      "patient": {
        "reference": "Patient/46362f30-f48e-4839-a562-941e85cf55ea"
      },
      "occurrenceDateTime": "2025-01-05T00:00:00.000+00:00",
      "recorded": "2025-01-02T00:00:00.000+00:00",
      "primarySource": true
    },
    "request": {
      "method": "PUT",
      "url": "Immunization/a01e7266-fd8c-419c-b03b-e65eb76504bc"
    }
  }, {
    "fullUrl": "https://madie.cms.gov/Immunization/080edf81-8ee7-40b6-a09f-ffec5229ab76",
    "resource": {
      "resourceType": "Immunization",
      "id": "080edf81-8ee7-40b6-a09f-ffec5229ab76",
      "meta": {
        "profile": [ "http://hl7.org/fhir/us/qicore/StructureDefinition/qicore-immunization" ]
      },
      "status": "completed",
      "vaccineCode": {
        "coding": [ {
          "system": "http://hl7.org/fhir/sid/cvx",
          "code": "146",
          "display": "DTaP,IPV,Hib,HepB"
        } ]
      },
      "patient": {
        "reference": "Patient/46362f30-f48e-4839-a562-941e85cf55ea"
      },
      "occurrenceDateTime": "2025-01-07T00:00:00.000+00:00",
      "recorded": "2025-01-02T00:00:00.000+00:00",
      "primarySource": true
    },
    "request": {
      "method": "PUT",
      "url": "Immunization/080edf81-8ee7-40b6-a09f-ffec5229ab76"
    }
  }, {
    "fullUrl": "https://madie.cms.gov/Immunization/2ff63d2f-e8b9-4b4c-a4fe-e69ccb9db005",
    "resource": {
      "resourceType": "Immunization",
      "id": "2ff63d2f-e8b9-4b4c-a4fe-e69ccb9db005",
      "meta": {
        "profile": [ "http://hl7.org/fhir/us/qicore/StructureDefinition/qicore-immunization" ]
      },
      "status": "completed",
      "vaccineCode": {
        "coding": [ {
          "system": "http://hl7.org/fhir/sid/cvx",
          "code": "146",
          "display": "DTaP,IPV,Hib,HepB"
        } ]
      },
      "patient": {
        "reference": "Patient/46362f30-f48e-4839-a562-941e85cf55ea"
      },
      "occurrenceDateTime": "2025-01-10T00:00:00.000+00:00",
      "recorded": "2025-01-02T00:00:00.000+00:00",
      "primarySource": true
    },
    "request": {
      "method": "PUT",
      "url": "Immunization/2ff63d2f-e8b9-4b4c-a4fe-e69ccb9db005"
    }
  }, {
    "fullUrl": "https://madie.cms.gov/Immunization/49128862-0496-4565-ba85-9da5a8266fa0",
    "resource": {
      "resourceType": "Immunization",
      "id": "49128862-0496-4565-ba85-9da5a8266fa0",
      "meta": {
        "profile": [ "http://hl7.org/fhir/us/qicore/StructureDefinition/qicore-immunization" ]
      },
      "status": "completed",
      "vaccineCode": {
        "coding": [ {
          "system": "http://hl7.org/fhir/sid/cvx",
          "code": "146",
          "display": "DTaP,IPV,Hib,HepB"
        } ]
      },
      "patient": {
        "reference": "Patient/46362f30-f48e-4839-a562-941e85cf55ea"
      },
      "occurrenceDateTime": "2025-01-02T00:00:00.000+00:00",
      "recorded": "2025-01-02T00:00:00.000+00:00",
      "primarySource": true
    },
    "request": {
      "method": "PUT",
      "url": "Immunization/49128862-0496-4565-ba85-9da5a8266fa0"
    }
  }, {
    "fullUrl": "https://madie.cms.gov/Immunization/a7d0258a-c91b-45a7-9f51-ffe079047f6f",
    "resource": {
      "resourceType": "Immunization",
      "id": "a7d0258a-c91b-45a7-9f51-ffe079047f6f",
      "meta": {
        "profile": [ "http://hl7.org/fhir/us/qicore/StructureDefinition/qicore-immunization" ]
      },
      "status": "completed",
      "vaccineCode": {
        "coding": [ {
          "system": "http://hl7.org/fhir/sid/cvx",
          "code": "146",
          "display": "DTaP,IPV,Hib,HepB"
        } ]
      },
      "patient": {
        "reference": "Patient/46362f30-f48e-4839-a562-941e85cf55ea"
      },
      "occurrenceDateTime": "2025-01-06T00:00:00.000+00:00",
      "recorded": "2025-01-02T00:00:00.000+00:00",
      "primarySource": true
    },
    "request": {
      "method": "PUT",
      "url": "Immunization/a7d0258a-c91b-45a7-9f51-ffe079047f6f"
    }
  }, {
    "fullUrl": "https://madie.cms.gov/Immunization/26de6549-e97a-42a6-8024-f160b6c573f4",
    "resource": {
      "resourceType": "Immunization",
      "id": "26de6549-e97a-42a6-8024-f160b6c573f4",
      "meta": {
        "profile": [ "http://hl7.org/fhir/us/qicore/StructureDefinition/qicore-immunization" ]
      },
      "status": "completed",
      "vaccineCode": {
        "coding": [ {
          "system": "http://hl7.org/fhir/sid/cvx",
          "code": "146",
          "display": "DTaP,IPV,Hib,HepB"
        } ]
      },
      "patient": {
        "reference": "Patient/46362f30-f48e-4839-a562-941e85cf55ea"
      },
      "occurrenceDateTime": "2025-01-09T00:00:00.000+00:00",
      "recorded": "2025-01-02T00:00:00.000+00:00",
      "primarySource": true
    },
    "request": {
      "method": "PUT",
      "url": "Immunization/26de6549-e97a-42a6-8024-f160b6c573f4"
    }
  }, {
    "fullUrl": "https://madie.cms.gov/Immunization/75493d12-9da7-4aa6-82de-af3618fb8cdf",
    "resource": {
      "resourceType": "Immunization",
      "id": "75493d12-9da7-4aa6-82de-af3618fb8cdf",
      "meta": {
        "profile": [ "http://hl7.org/fhir/us/qicore/StructureDefinition/qicore-immunization" ]
      },
      "status": "completed",
      "vaccineCode": {
        "coding": [ {
          "system": "http://hl7.org/fhir/sid/cvx",
          "code": "94",
          "display": "measles, mumps, rubella, and varicella virus vaccine"
        } ]
      },
      "patient": {
        "reference": "Patient/46362f30-f48e-4839-a562-941e85cf55ea"
      },
      "occurrenceDateTime": "2025-01-02T00:00:00.000+00:00",
      "recorded": "2025-01-02T00:00:00.000+00:00",
      "primarySource": true
    },
    "request": {
      "method": "PUT",
      "url": "Immunization/75493d12-9da7-4aa6-82de-af3618fb8cdf"
    }
  }, {
    "fullUrl": "https://madie.cms.gov/Immunization/ed65433e-f7fd-4f91-a109-c43426c44ba8",
    "resource": {
      "resourceType": "Immunization",
      "id": "ed65433e-f7fd-4f91-a109-c43426c44ba8",
      "meta": {
        "profile": [ "http://hl7.org/fhir/us/qicore/StructureDefinition/qicore-immunization" ]
      },
      "status": "completed",
      "vaccineCode": {
        "coding": [ {
          "system": "http://hl7.org/fhir/sid/cvx",
          "code": "49",
          "display": "Haemophilus influenzae type b vaccine, PRP-OMP conjugate"
        } ]
      },
      "patient": {
        "reference": "Patient/46362f30-f48e-4839-a562-941e85cf55ea"
      },
      "occurrenceDateTime": "2025-01-02T00:00:00.000+00:00",
      "recorded": "2025-01-02T00:00:00.000+00:00",
      "primarySource": true
    },
    "request": {
      "method": "PUT",
      "url": "Immunization/ed65433e-f7fd-4f91-a109-c43426c44ba8"
    }
  }, {
    "fullUrl": "https://madie.cms.gov/Immunization/e5602ca5-b1a4-49e9-8223-ced8158967dd",
    "resource": {
      "resourceType": "Immunization",
      "id": "e5602ca5-b1a4-49e9-8223-ced8158967dd",
      "meta": {
        "profile": [ "http://hl7.org/fhir/us/qicore/StructureDefinition/qicore-immunization" ]
      },
      "status": "completed",
      "vaccineCode": {
        "coding": [ {
          "system": "http://hl7.org/fhir/sid/cvx",
          "code": "49",
          "display": "Haemophilus influenzae type b vaccine, PRP-OMP conjugate"
        } ]
      },
      "patient": {
        "reference": "Patient/46362f30-f48e-4839-a562-941e85cf55ea"
      },
      "occurrenceDateTime": "2025-01-02T00:00:00.000+00:00",
      "recorded": "2025-01-02T00:00:00.000+00:00",
      "primarySource": true
    },
    "request": {
      "method": "PUT",
      "url": "Immunization/e5602ca5-b1a4-49e9-8223-ced8158967dd"
    }
  }, {
    "fullUrl": "https://madie.cms.gov/Immunization/6d700a41-4696-446c-a701-09818ea4a06c",
    "resource": {
      "resourceType": "Immunization",
      "id": "6d700a41-4696-446c-a701-09818ea4a06c",
      "meta": {
        "profile": [ "http://hl7.org/fhir/us/qicore/StructureDefinition/qicore-immunization" ]
      },
      "status": "completed",
      "vaccineCode": {
        "coding": [ {
          "system": "http://hl7.org/fhir/sid/cvx",
          "code": "49",
          "display": "Haemophilus influenzae type b vaccine, PRP-OMP conjugate"
        } ]
      },
      "patient": {
        "reference": "Patient/46362f30-f48e-4839-a562-941e85cf55ea"
      },
      "occurrenceDateTime": "2025-01-02T00:00:00.000+00:00",
      "recorded": "2025-01-02T00:00:00.000+00:00",
      "primarySource": true
    },
    "request": {
      "method": "PUT",
      "url": "Immunization/6d700a41-4696-446c-a701-09818ea4a06c"
    }
  }, {
    "fullUrl": "https://madie.cms.gov/Immunization/719b5c93-126e-493e-9e54-9c61ee689a68",
    "resource": {
      "resourceType": "Immunization",
      "id": "719b5c93-126e-493e-9e54-9c61ee689a68",
      "meta": {
        "profile": [ "http://hl7.org/fhir/us/qicore/StructureDefinition/qicore-immunization" ]
      },
      "status": "completed",
      "vaccineCode": {
        "coding": [ {
          "system": "http://hl7.org/fhir/sid/cvx",
          "code": "51",
          "display": "Haemophilus influenzae type b conjugate and Hepatitis B vaccine"
        } ]
      },
      "patient": {
        "reference": "Patient/46362f30-f48e-4839-a562-941e85cf55ea"
      },
      "occurrenceDateTime": "2025-01-02T00:00:00.000+00:00",
      "recorded": "2025-01-02T00:00:00.000+00:00",
      "primarySource": true
    },
    "request": {
      "method": "PUT",
      "url": "Immunization/719b5c93-126e-493e-9e54-9c61ee689a68"
    }
  }, {
    "fullUrl": "https://madie.cms.gov/Immunization/868d56a6-59ed-4c1e-9828-176860ce8678",
    "resource": {
      "resourceType": "Immunization",
      "id": "868d56a6-59ed-4c1e-9828-176860ce8678",
      "meta": {
        "profile": [ "http://hl7.org/fhir/us/qicore/StructureDefinition/qicore-immunization" ]
      },
      "status": "completed",
      "vaccineCode": {
        "coding": [ {
          "system": "http://hl7.org/fhir/sid/cvx",
          "code": "51",
          "display": "Haemophilus influenzae type b conjugate and Hepatitis B vaccine"
        } ]
      },
      "patient": {
        "reference": "Patient/46362f30-f48e-4839-a562-941e85cf55ea"
      },
      "occurrenceDateTime": "2025-01-10T00:00:00.000+00:00",
      "recorded": "2025-01-02T00:00:00.000+00:00",
      "primarySource": true
    },
    "request": {
      "method": "PUT",
      "url": "Immunization/868d56a6-59ed-4c1e-9828-176860ce8678"
    }
  }, {
    "fullUrl": "https://madie.cms.gov/Immunization/d349274b-b380-4267-8561-ff041a2a0bbd",
    "resource": {
      "resourceType": "Immunization",
      "id": "d349274b-b380-4267-8561-ff041a2a0bbd",
      "meta": {
        "profile": [ "http://hl7.org/fhir/us/qicore/StructureDefinition/qicore-immunization" ]
      },
      "status": "completed",
      "vaccineCode": {
        "coding": [ {
          "system": "http://hl7.org/fhir/sid/cvx",
          "code": "51",
          "display": "Haemophilus influenzae type b conjugate and Hepatitis B vaccine"
        } ]
      },
      "patient": {
        "reference": "Patient/46362f30-f48e-4839-a562-941e85cf55ea"
      },
      "occurrenceDateTime": "2025-01-12T00:00:00.000+00:00",
      "recorded": "2025-01-02T00:00:00.000+00:00",
      "primarySource": true
    },
    "request": {
      "method": "PUT",
      "url": "Immunization/d349274b-b380-4267-8561-ff041a2a0bbd"
    }
  }, {
    "fullUrl": "https://madie.cms.gov/Immunization/5c3af672-9f96-4601-adbc-793c2866ca27",
    "resource": {
      "resourceType": "Immunization",
      "id": "5c3af672-9f96-4601-adbc-793c2866ca27",
      "meta": {
        "profile": [ "http://hl7.org/fhir/us/qicore/StructureDefinition/qicore-immunization" ]
      },
      "status": "completed",
      "vaccineCode": {
        "coding": [ {
          "system": "http://hl7.org/fhir/sid/cvx",
          "code": "94",
          "display": "measles, mumps, rubella, and varicella virus vaccine"
        } ]
      },
      "patient": {
        "reference": "Patient/46362f30-f48e-4839-a562-941e85cf55ea"
      },
      "occurrenceDateTime": "2025-01-02T00:00:00.000+00:00",
      "recorded": "2025-01-02T00:00:00.000+00:00",
      "primarySource": true
    },
    "request": {
      "method": "PUT",
      "url": "Immunization/5c3af672-9f96-4601-adbc-793c2866ca27"
    }
  }, {
    "fullUrl": "https://madie.cms.gov/Immunization/47efad37-38ab-4f96-9684-0770128f5896",
    "resource": {
      "resourceType": "Immunization",
      "id": "47efad37-38ab-4f96-9684-0770128f5896",
      "meta": {
        "profile": [ "http://hl7.org/fhir/us/qicore/StructureDefinition/qicore-immunization" ]
      },
      "status": "completed",
      "vaccineCode": {
        "coding": [ {
          "system": "http://hl7.org/fhir/sid/cvx",
          "code": "215",
          "display": "Pneumococcal conjugate vaccine 15-valent (PCV15), polysaccharide CRM197 conjugate, adjuvant, preservative free"
        } ]
      },
      "patient": {
        "reference": "Patient/46362f30-f48e-4839-a562-941e85cf55ea"
      },
      "occurrenceDateTime": "2025-01-12T00:00:00.000+00:00",
      "recorded": "2025-01-02T00:00:00.000+00:00",
      "primarySource": true
    },
    "request": {
      "method": "PUT",
      "url": "Immunization/47efad37-38ab-4f96-9684-0770128f5896"
    }
  }, {
    "fullUrl": "https://madie.cms.gov/Immunization/8d62503d-46a3-4117-b03f-515314fd01a2",
    "resource": {
      "resourceType": "Immunization",
      "id": "8d62503d-46a3-4117-b03f-515314fd01a2",
      "meta": {
        "profile": [ "http://hl7.org/fhir/us/qicore/StructureDefinition/qicore-immunization" ]
      },
      "status": "completed",
      "vaccineCode": {
        "coding": [ {
          "system": "http://hl7.org/fhir/sid/cvx",
          "code": "215",
          "display": "Pneumococcal conjugate vaccine 15-valent (PCV15), polysaccharide CRM197 conjugate, adjuvant, preservative free"
        } ]
      },
      "patient": {
        "reference": "Patient/46362f30-f48e-4839-a562-941e85cf55ea"
      },
      "occurrenceDateTime": "2025-01-14T00:00:00.000+00:00",
      "recorded": "2025-01-02T00:00:00.000+00:00",
      "primarySource": true
    },
    "request": {
      "method": "PUT",
      "url": "Immunization/8d62503d-46a3-4117-b03f-515314fd01a2"
    }
  }, {
    "fullUrl": "https://madie.cms.gov/Immunization/35674294-c68a-4d72-8466-4b18b682c32e",
    "resource": {
      "resourceType": "Immunization",
      "id": "35674294-c68a-4d72-8466-4b18b682c32e",
      "meta": {
        "profile": [ "http://hl7.org/fhir/us/qicore/StructureDefinition/qicore-immunization" ]
      },
      "status": "completed",
      "vaccineCode": {
        "coding": [ {
          "system": "http://hl7.org/fhir/sid/cvx",
          "code": "215",
          "display": "Pneumococcal conjugate vaccine 15-valent (PCV15), polysaccharide CRM197 conjugate, adjuvant, preservative free"
        } ]
      },
      "patient": {
        "reference": "Patient/46362f30-f48e-4839-a562-941e85cf55ea"
      },
      "occurrenceDateTime": "2025-01-20T00:00:00.000+00:00",
      "recorded": "2025-01-02T00:00:00.000+00:00",
      "primarySource": true
    },
    "request": {
      "method": "PUT",
      "url": "Immunization/35674294-c68a-4d72-8466-4b18b682c32e"
    }
  }, {
    "fullUrl": "https://madie.cms.gov/Immunization/093dddfc-24bb-4f0e-a8e7-b300cb3bed23",
    "resource": {
      "resourceType": "Immunization",
      "id": "093dddfc-24bb-4f0e-a8e7-b300cb3bed23",
      "meta": {
        "profile": [ "http://hl7.org/fhir/us/qicore/StructureDefinition/qicore-immunization" ]
      },
      "status": "completed",
      "vaccineCode": {
        "coding": [ {
          "system": "http://hl7.org/fhir/sid/cvx",
          "code": "215",
          "display": "Pneumococcal conjugate vaccine 15-valent (PCV15), polysaccharide CRM197 conjugate, adjuvant, preservative free"
        } ]
      },
      "patient": {
        "reference": "Patient/46362f30-f48e-4839-a562-941e85cf55ea"
      },
      "occurrenceDateTime": "2025-01-22T00:00:00.000+00:00",
      "recorded": "2025-01-02T00:00:00.000+00:00",
      "primarySource": true
    },
    "request": {
      "method": "PUT",
      "url": "Immunization/093dddfc-24bb-4f0e-a8e7-b300cb3bed23"
    }
  }, {
    "fullUrl": "https://madie.cms.gov/Immunization/99738b03-fb1e-4af4-816c-da9babfa01d7",
    "resource": {
      "resourceType": "Immunization",
      "id": "99738b03-fb1e-4af4-816c-da9babfa01d7",
      "meta": {
        "profile": [ "http://hl7.org/fhir/us/qicore/StructureDefinition/qicore-immunization" ]
      },
      "status": "completed",
      "vaccineCode": {
        "coding": [ {
          "system": "http://hl7.org/fhir/sid/cvx",
          "code": "85",
          "display": "hepatitis A vaccine, unspecified formulation"
        } ]
      },
      "patient": {
        "reference": "Patient/46362f30-f48e-4839-a562-941e85cf55ea"
      },
      "occurrenceDateTime": "2025-01-02T00:00:00.000+00:00",
      "recorded": "2025-01-02T00:00:00.000+00:00",
      "primarySource": true
    },
    "request": {
      "method": "PUT",
      "url": "Immunization/99738b03-fb1e-4af4-816c-da9babfa01d7"
    }
  }, {
    "fullUrl": "https://madie.cms.gov/Immunization/290c1b75-32ab-4fe4-b605-35da1dff4715",
    "resource": {
      "resourceType": "Immunization",
      "id": "290c1b75-32ab-4fe4-b605-35da1dff4715",
      "meta": {
        "profile": [ "http://hl7.org/fhir/us/qicore/StructureDefinition/qicore-immunization" ]
      },
      "status": "completed",
      "vaccineCode": {
        "coding": [ {
          "system": "http://hl7.org/fhir/sid/cvx",
          "code": "119",
          "display": "rotavirus, live, monovalent vaccine"
        } ]
      },
      "patient": {
        "reference": "Patient/46362f30-f48e-4839-a562-941e85cf55ea"
      },
      "occurrenceDateTime": "2025-01-02T00:00:00.000+00:00",
      "recorded": "2025-01-02T00:00:00.000+00:00",
      "primarySource": true
    },
    "request": {
      "method": "PUT",
      "url": "Immunization/290c1b75-32ab-4fe4-b605-35da1dff4715"
    }
  }, {
    "fullUrl": "https://madie.cms.gov/Immunization/0d63b9ff-b8a0-43b0-8b2f-d1d5427b5d88",
    "resource": {
      "resourceType": "Immunization",
      "id": "0d63b9ff-b8a0-43b0-8b2f-d1d5427b5d88",
      "meta": {
        "profile": [ "http://hl7.org/fhir/us/qicore/StructureDefinition/qicore-immunization" ]
      },
      "status": "completed",
      "vaccineCode": {
        "coding": [ {
          "system": "http://hl7.org/fhir/sid/cvx",
          "code": "119",
          "display": "rotavirus, live, monovalent vaccine"
        } ]
      },
      "patient": {
        "reference": "Patient/46362f30-f48e-4839-a562-941e85cf55ea"
      },
      "occurrenceDateTime": "2025-01-07T00:00:00.000+00:00",
      "recorded": "2025-01-02T00:00:00.000+00:00",
      "primarySource": true
    },
    "request": {
      "method": "PUT",
      "url": "Immunization/0d63b9ff-b8a0-43b0-8b2f-d1d5427b5d88"
    }
  }, {
    "fullUrl": "https://madie.cms.gov/Immunization/1d2796a6-3dd5-4cb1-a221-11771583f5fa",
    "resource": {
      "resourceType": "Immunization",
      "id": "1d2796a6-3dd5-4cb1-a221-11771583f5fa",
      "meta": {
        "profile": [ "http://hl7.org/fhir/us/qicore/StructureDefinition/qicore-immunization" ]
      },
      "status": "completed",
      "vaccineCode": {
        "coding": [ {
          "system": "http://hl7.org/fhir/sid/cvx",
          "code": "153",
          "display": "Influenza, injectable, MDCK, preservative free"
        } ]
      },
      "patient": {
        "reference": "Patient/46362f30-f48e-4839-a562-941e85cf55ea"
      },
      "occurrenceDateTime": "2025-01-02T00:00:00.000+00:00",
      "recorded": "2025-01-02T00:00:00.000+00:00",
      "primarySource": true
    },
    "request": {
      "method": "PUT",
      "url": "Immunization/1d2796a6-3dd5-4cb1-a221-11771583f5fa"
    }
  }, {
    "fullUrl": "https://madie.cms.gov/Immunization/c8064bfe-b885-4e97-94b6-21308a4cf72a",
    "resource": {
      "resourceType": "Immunization",
      "id": "c8064bfe-b885-4e97-94b6-21308a4cf72a",
      "meta": {
        "profile": [ "http://hl7.org/fhir/us/qicore/StructureDefinition/qicore-immunization" ]
      },
      "status": "completed",
      "vaccineCode": {
        "coding": [ {
          "system": "http://hl7.org/fhir/sid/cvx",
          "code": "149",
          "display": "influenza, live, intranasal, quadrivalent"
        } ]
      },
      "patient": {
        "reference": "Patient/46362f30-f48e-4839-a562-941e85cf55ea"
      },
      "occurrenceDateTime": "2026-01-01T00:00:00.000+00:00",
      "recorded": "2026-01-01T00:00:00.000+00:00",
      "primarySource": true
    },
    "request": {
      "method": "PUT",
      "url": "Immunization/c8064bfe-b885-4e97-94b6-21308a4cf72a"
    }
  }, {
    "fullUrl": "https://madie.cms.gov/MeasureReport/86fd5b59-6084-4e13-8ac6-de0122fb59c0",
    "resource": {
      "resourceType": "MeasureReport",
      "id": "86fd5b59-6084-4e13-8ac6-de0122fb59c0",
      "meta": {
        "profile": [ "http://hl7.org/fhir/us/cqfmeasures/StructureDefinition/test-case-cqfm" ]
      },
      "contained": [ {
        "resourceType": "Parameters",
        "id": "b9531cc0-538d-494b-beee-ecb5ef9e1413-parameters",
        "parameter": [ {
          "name": "subject",
          "valueString": "46362f30-f48e-4839-a562-941e85cf55ea"
        } ]
      } ],
      "extension": [ {
        "url": "http://hl7.org/fhir/StructureDefinition/cqf-inputParameters",
        "valueReference": {
          "reference": "#b9531cc0-538d-494b-beee-ecb5ef9e1413-parameters"
        }
      }, {
        "url": "http://hl7.org/fhir/us/cqfmeasures/StructureDefinition/cqfm-testCaseDescription",
        "valueMarkdown": "Patient has LAIV"
      } ],
      "modifierExtension": [ {
        "url": "http://hl7.org/fhir/us/cqfmeasures/StructureDefinition/cqfm-isTestCase",
        "valueBoolean": true
      } ],
      "status": "complete",
      "type": "individual",
      "measure": "https://madie.cms.gov/Measure/CMS117FHIRChildImmunStatus",
      "period": {
        "start": "2026-01-01",
        "end": "2026-12-31"
      },
      "group": [ {
        "id": "Group_1",
        "population": [ {
          "id": "InitialPopulation_1",
          "code": {
            "coding": [ {
              "system": "http://terminology.hl7.org/CodeSystem/measure-population",
              "code": "initial-population",
              "display": "Initial Population"
            } ]
          },
          "count": 1
        }, {
          "id": "Denominator_1",
          "code": {
            "coding": [ {
              "system": "http://terminology.hl7.org/CodeSystem/measure-population",
              "code": "denominator",
              "display": "Denominator"
            } ]
          },
          "count": 1
        }, {
          "id": "DenominatorExclusion_1",
          "code": {
            "coding": [ {
              "system": "http://terminology.hl7.org/CodeSystem/measure-population",
              "code": "denominator-exclusion",
              "display": "Denominator Exclusion"
            } ]
          },
          "count": 0
        }, {
          "id": "Numerator_1",
          "code": {
            "coding": [ {
              "system": "http://terminology.hl7.org/CodeSystem/measure-population",
              "code": "numerator",
              "display": "Numerator"
            } ]
          },
          "count": 1
        } ],
        "measureScore": {
          "value": 1.0
        }
      } ],
      "evaluatedResource": [ {
        "reference": "Patient/46362f30-f48e-4839-a562-941e85cf55ea"
      }, {
        "reference": "Encounter/ce28824a-0432-478b-abac-ea51b62a35a4"
      }, {
        "reference": "Immunization/6b996acb-8502-4979-81dd-008cab82d29f"
      }, {
        "reference": "Immunization/a01e7266-fd8c-419c-b03b-e65eb76504bc"
      }, {
        "reference": "Immunization/080edf81-8ee7-40b6-a09f-ffec5229ab76"
      }, {
        "reference": "Immunization/2ff63d2f-e8b9-4b4c-a4fe-e69ccb9db005"
      }, {
        "reference": "Immunization/49128862-0496-4565-ba85-9da5a8266fa0"
      }, {
        "reference": "Immunization/a7d0258a-c91b-45a7-9f51-ffe079047f6f"
      }, {
        "reference": "Immunization/26de6549-e97a-42a6-8024-f160b6c573f4"
      }, {
        "reference": "Immunization/75493d12-9da7-4aa6-82de-af3618fb8cdf"
      }, {
        "reference": "Immunization/ed65433e-f7fd-4f91-a109-c43426c44ba8"
      }, {
        "reference": "Immunization/e5602ca5-b1a4-49e9-8223-ced8158967dd"
      }, {
        "reference": "Immunization/6d700a41-4696-446c-a701-09818ea4a06c"
      }, {
        "reference": "Immunization/719b5c93-126e-493e-9e54-9c61ee689a68"
      }, {
        "reference": "Immunization/868d56a6-59ed-4c1e-9828-176860ce8678"
      }, {
        "reference": "Immunization/d349274b-b380-4267-8561-ff041a2a0bbd"
      }, {
        "reference": "Immunization/5c3af672-9f96-4601-adbc-793c2866ca27"
      }, {
        "reference": "Immunization/47efad37-38ab-4f96-9684-0770128f5896"
      }, {
        "reference": "Immunization/8d62503d-46a3-4117-b03f-515314fd01a2"
      }, {
        "reference": "Immunization/35674294-c68a-4d72-8466-4b18b682c32e"
      }, {
        "reference": "Immunization/093dddfc-24bb-4f0e-a8e7-b300cb3bed23"
      }, {
        "reference": "Immunization/99738b03-fb1e-4af4-816c-da9babfa01d7"
      }, {
        "reference": "Immunization/290c1b75-32ab-4fe4-b605-35da1dff4715"
      }, {
        "reference": "Immunization/0d63b9ff-b8a0-43b0-8b2f-d1d5427b5d88"
      }, {
        "reference": "Immunization/1d2796a6-3dd5-4cb1-a221-11771583f5fa"
      }, {
        "reference": "Immunization/c8064bfe-b885-4e97-94b6-21308a4cf72a"
      } ]
    },
    "request": {
      "method": "PUT",
      "url": "MeasureReport/86fd5b59-6084-4e13-8ac6-de0122fb59c0"
    }
  } ]
}