{
  "resourceType": "Bundle",
  "id": "612e6b3a02c62a011f2ecf6d",
  "type": "transaction",
  "entry": [ {
    "fullUrl": "https://madie.cms.gov/Patient/e193ed34-00f9-4da1-b347-20d720b30517",
    "resource": {
      "resourceType": "Patient",
      "id": "e193ed34-00f9-4da1-b347-20d720b30517",
      "meta": {
        "profile": [ "http://hl7.org/fhir/us/qicore/StructureDefinition/qicore-patient" ]
      },
      "text": {
        "status": "generated",
        "div": "<div xmlns=\"http://www.w3.org/1999/xhtml\"><div class=\"hapiHeaderText\">ICUDayAfterAdmit <b>DENEXPASS </b></div><table class=\"hapiPropertyTable\"><tbody><tr><td>Identifier</td><td>11bb5362fa7c7b63061d0c716b7b8ddb</td></tr><tr><td>Date of birth</td><td><span>02 January 1974</span></td></tr></tbody></table></div>"
      },
      "extension": [ {
        "url": "http://hl7.org/fhir/us/core/StructureDefinition/us-core-race",
        "extension": [ {
          "url": "ombCategory",
          "valueCoding": {
            "system": "urn:oid:2.16.840.1.113883.6.238",
            "code": "1002-5",
            "display": "American Indian or Alaska Native",
            "userSelected": true
          }
        }, {
          "url": "text",
          "valueString": "American Indian or Alaska Native"
        } ]
      }, {
        "url": "http://hl7.org/fhir/us/core/StructureDefinition/us-core-ethnicity",
        "extension": [ {
          "url": "ombCategory",
          "valueCoding": {
            "system": "urn:oid:2.16.840.1.113883.6.238",
            "code": "2135-2",
            "display": "Hispanic or Latino",
            "userSelected": true
          }
        }, {
          "url": "text",
          "valueString": "Hispanic or Latino"
        } ]
      } ],
      "identifier": [ {
        "type": {
          "coding": [ {
            "system": "http://terminology.hl7.org/CodeSystem/v2-0203",
            "code": "MR"
          } ]
        },
        "system": "https://bonnie-fhir.healthit.gov/",
        "value": "612e6b3a02c62a011f2ecf6d"
      } ],
      "active": true,
      "name": [ {
        "use": "usual",
        "family": "DENEXPass",
        "given": [ "ICUDayAfterAdmit" ]
      } ],
      "gender": "male",
      "birthDate": "1975-01-02"
    },
    "request": {
      "method": "PUT",
      "url": "Patient/e193ed34-00f9-4da1-b347-20d720b30517"
    }
  }, {
    "fullUrl": "https://madie.cms.gov/Encounter/9730f3c8-ff35-4054-b907-f45abba17f8b",
    "resource": {
      "resourceType": "Encounter",
      "id": "9730f3c8-ff35-4054-b907-f45abba17f8b",
      "meta": {
        "profile": [ "http://hl7.org/fhir/us/qicore/StructureDefinition/qicore-encounter" ]
      },
      "status": "finished",
      "class": {
        "system": "http://terminology.hl7.org/CodeSystem/v3-ActCode",
        "code": "IMP",
        "display": "inpatient encounter"
      },
      "type": [ {
        "coding": [ {
          "system": "http://snomed.info/sct",
          "code": "8715000"
        } ]
      } ],
      "subject": {
        "reference": "Patient/e193ed34-00f9-4da1-b347-20d720b30517"
      },
      "period": {
        "start": "2026-11-01T08:00:00.000+00:00",
        "end": "2026-11-26T08:15:00.000+00:00"
      },
      "length": {
        "value": 25.0,
        "unit": "days"
      },
      "location": [ {
        "location": {
          "reference": "Location/6a65f9e2-e8e5-43bc-97cd-027d3dbd1bc7"
        },
        "period": {
          "start": "2026-11-02T08:30:00.000+00:00",
          "end": "2026-11-03T18:15:00.000+00:00"
        }
      } ]
    },
    "request": {
      "method": "PUT",
      "url": "Encounter/9730f3c8-ff35-4054-b907-f45abba17f8b"
    }
  }, {
    "fullUrl": "https://madie.cms.gov/Coverage/17597ee5-2834-44be-85dd-036fb028ca8c",
    "resource": {
      "resourceType": "Coverage",
      "id": "17597ee5-2834-44be-85dd-036fb028ca8c",
      "status": "active",
      "beneficiary": {
        "reference": "Patient/e193ed34-00f9-4da1-b347-20d720b30517"
      },
      "period": {
        "start": "1975-01-02T08:00:00.000+00:00"
      },
      "payor": [ {
        "reference": "Organization/86d519ce-0b6e-4b5a-8869-bdb1f4723c65"
      } ]
    },
    "request": {
      "method": "PUT",
      "url": "Coverage/17597ee5-2834-44be-85dd-036fb028ca8c"
    }
  }, {
    "fullUrl": "https://madie.cms.gov/Location/6a65f9e2-e8e5-43bc-97cd-027d3dbd1bc7",
    "resource": {
      "resourceType": "Location",
      "id": "6a65f9e2-e8e5-43bc-97cd-027d3dbd1bc7",
      "meta": {
        "profile": [ "http://hl7.org/fhir/us/qicore/StructureDefinition/qicore-location" ]
      },
      "identifier": [ {
        "use": "usual",
        "system": "http://exampleoflocation.com",
        "value": "B1-S.F2"
      } ],
      "name": "Medical Surgical East, first floor",
      "type": [ {
        "coding": [ {
          "system": "https://www.cdc.gov/nhsn/cdaportal/terminology/codesystem/hsloc.html",
          "version": "2020",
          "code": "1025-6",
          "display": "Trauma Critical Care",
          "userSelected": true
        } ]
      } ]
    },
    "request": {
      "method": "PUT",
      "url": "Location/6a65f9e2-e8e5-43bc-97cd-027d3dbd1bc7"
    }
  }, {
    "fullUrl": "https://madie.cms.gov/Organization/86d519ce-0b6e-4b5a-8869-bdb1f4723c65",
    "resource": {
      "resourceType": "Organization",
      "id": "86d519ce-0b6e-4b5a-8869-bdb1f4723c65",
      "meta": {
        "profile": [ "http://hl7.org/fhir/us/qicore/StructureDefinition/qicore-organization" ]
      },
      "identifier": [ {
        "use": "temp",
        "system": "urn:oid:2.16.840.1.113883.4.4",
        "value": "21-3259825"
      } ],
      "active": true,
      "type": [ {
        "coding": [ {
          "system": "http://terminology.hl7.org/CodeSystem/organization-type",
          "code": "pay",
          "display": "Payer"
        } ]
      } ],
      "name": "Blue Cross Blue Shield of Texas",
      "telecom": [ {
        "system": "phone",
        "value": "(+1) 972-766-6900"
      } ],
      "address": [ {
        "use": "billing",
        "type": "postal",
        "line": [ "P.O. Box 660044" ],
        "city": "Dallas",
        "state": "TX",
        "postalCode": "75266-0044",
        "country": "USA"
      } ]
    },
    "request": {
      "method": "PUT",
      "url": "Organization/86d519ce-0b6e-4b5a-8869-bdb1f4723c65"
    }
  }, {
    "fullUrl": "https://madie.cms.gov/Practitioner/e7aba520-5e87-4cc9-a465-e321ded4415a",
    "resource": {
      "resourceType": "Practitioner",
      "id": "e7aba520-5e87-4cc9-a465-e321ded4415a",
      "identifier": [ {
        "system": "http://hl7.org/fhir/sid/us-npi",
        "value": "123456"
      } ],
      "name": [ {
        "family": "Evil",
        "prefix": [ "Dr" ]
      } ]
    },
    "request": {
      "method": "PUT",
      "url": "Practitioner/e7aba520-5e87-4cc9-a465-e321ded4415a"
    }
  }, {
    "fullUrl": "https://madie.cms.gov/MeasureReport/60348b72-4356-481f-a0b9-c525d602af49",
    "resource": {
      "resourceType": "MeasureReport",
      "id": "60348b72-4356-481f-a0b9-c525d602af49",
      "meta": {
        "profile": [ "http://hl7.org/fhir/us/cqfmeasures/StructureDefinition/test-case-cqfm" ]
      },
      "contained": [ {
        "resourceType": "Parameters",
        "id": "0a78befc-4bdf-4a63-b4d7-8d58f8dce1d8-parameters",
        "parameter": [ {
          "name": "subject",
          "valueString": "e193ed34-00f9-4da1-b347-20d720b30517"
        } ]
      } ],
      "extension": [ {
        "url": "http://hl7.org/fhir/StructureDefinition/cqf-inputParameters",
        "valueReference": {
          "reference": "#0a78befc-4bdf-4a63-b4d7-8d58f8dce1d8-parameters"
        }
      }, {
        "url": "http://hl7.org/fhir/us/cqfmeasures/StructureDefinition/cqfm-testCaseDescription",
        "valueMarkdown": "ICU admission with LOS >= 1 day; = 1 day starts after or concurrent with start of IP encounter\n"
      } ],
      "modifierExtension": [ {
        "url": "http://hl7.org/fhir/us/cqfmeasures/StructureDefinition/cqfm-isTestCase",
        "valueBoolean": true
      } ],
      "status": "complete",
      "type": "individual",
      "measure": "https://madie.cms.gov/Measure/CMS108FHIRVTEProphylaxis",
      "period": {
        "start": "2026-01-01",
        "end": "2026-12-31"
      },
      "group": [ {
        "id": "Group_1",
        "population": [ {
          "id": "InitialPopulation_1",
          "code": {
            "coding": [ {
              "system": "http://terminology.hl7.org/CodeSystem/measure-population",
              "code": "initial-population",
              "display": "Initial Population"
            } ]
          },
          "count": 1
        }, {
          "id": "Denominator_1",
          "code": {
            "coding": [ {
              "system": "http://terminology.hl7.org/CodeSystem/measure-population",
              "code": "denominator",
              "display": "Denominator"
            } ]
          },
          "count": 1
        }, {
          "id": "DenominatorExclusion_1",
          "code": {
            "coding": [ {
              "system": "http://terminology.hl7.org/CodeSystem/measure-population",
              "code": "denominator-exclusion",
              "display": "Denominator Exclusion"
            } ]
          },
          "count": 1
        }, {
          "id": "Numerator_1",
          "code": {
            "coding": [ {
              "system": "http://terminology.hl7.org/CodeSystem/measure-population",
              "code": "numerator",
              "display": "Numerator"
            } ]
          },
          "count": 0
        } ],
        "measureScore": {
          "value": 0.0
        }
      } ],
      "evaluatedResource": [ {
        "reference": "Patient/e193ed34-00f9-4da1-b347-20d720b30517"
      }, {
        "reference": "Encounter/9730f3c8-ff35-4054-b907-f45abba17f8b"
      }, {
        "reference": "Coverage/17597ee5-2834-44be-85dd-036fb028ca8c"
      }, {
        "reference": "Location/6a65f9e2-e8e5-43bc-97cd-027d3dbd1bc7"
      }, {
        "reference": "Organization/86d519ce-0b6e-4b5a-8869-bdb1f4723c65"
      }, {
        "reference": "Practitioner/e7aba520-5e87-4cc9-a465-e321ded4415a"
      } ]
    },
    "request": {
      "method": "PUT",
      "url": "MeasureReport/60348b72-4356-481f-a0b9-c525d602af49"
    }
  } ]
}