{
  "resourceType": "Bundle",
  "id": "641376734b11b147841ab8e8",
  "type": "transaction",
  "entry": [ {
    "fullUrl": "https://madie.cms.gov/Patient/f2b74f6e-1b67-49ca-b9b1-bb6752287935",
    "resource": {
      "resourceType": "Patient",
      "id": "f2b74f6e-1b67-49ca-b9b1-bb6752287935",
      "meta": {
        "profile": [ "http://hl7.org/fhir/us/qicore/StructureDefinition/qicore-patient" ]
      },
      "extension": [ {
        "url": "http://hl7.org/fhir/us/core/StructureDefinition/us-core-race",
        "extension": [ {
          "url": "ombCategory",
          "valueCoding": {
            "system": "urn:oid:2.16.840.1.113883.6.238",
            "code": "1002-5",
            "display": "American Indian or Alaska Native",
            "userSelected": true
          }
        }, {
          "url": "text",
          "valueString": "American Indian or Alaska Native"
        } ]
      }, {
        "url": "http://hl7.org/fhir/us/core/StructureDefinition/us-core-ethnicity",
        "extension": [ {
          "url": "ombCategory",
          "valueCoding": {
            "system": "urn:oid:2.16.840.1.113883.6.238",
            "code": "2186-5",
            "display": "Not Hispanic or Latino",
            "userSelected": true
          }
        }, {
          "url": "text",
          "valueString": "Not Hispanic or Latino"
        } ]
      } ],
      "identifier": [ {
        "type": {
          "coding": [ {
            "system": "http://terminology.hl7.org/CodeSystem/v2-0203",
            "code": "MR"
          } ]
        },
        "system": "https://bonnie-fhir.healthit.gov/",
        "value": "641376734b11b147841ab8e8"
      } ],
      "name": [ {
        "family": "DENOMFail",
        "given": [ "EncounterOutofMP" ]
      } ],
      "gender": "female",
      "birthDate": "2005-07-12"
    },
    "request": {
      "method": "PUT",
      "url": "Patient/f2b74f6e-1b67-49ca-b9b1-bb6752287935"
    }
  }, {
    "fullUrl": "https://madie.cms.gov/Condition/53e4289f-6bb3-4aac-939e-0b919275633d",
    "resource": {
      "resourceType": "Condition",
      "id": "53e4289f-6bb3-4aac-939e-0b919275633d",
      "meta": {
        "profile": [ "http://hl7.org/fhir/us/qicore/StructureDefinition/qicore-condition-encounter-diagnosis" ]
      },
      "clinicalStatus": {
        "coding": [ {
          "system": "http://terminology.hl7.org/CodeSystem/condition-clinical",
          "code": "active",
          "display": "active",
          "userSelected": true
        } ]
      },
      "category": [ {
        "coding": [ {
          "system": "http://terminology.hl7.org/CodeSystem/condition-category",
          "code": "encounter-diagnosis",
          "display": "Encounter Diagnosis",
          "userSelected": true
        } ]
      } ],
      "code": {
        "coding": [ {
          "system": "http://snomed.info/sct",
          "version": "2021-09",
          "code": "102781000119107",
          "display": "Sensory neuropathy due to type 1 diabetes mellitus (disorder)",
          "userSelected": true
        } ]
      },
      "subject": {
        "reference": "Patient/f2b74f6e-1b67-49ca-b9b1-bb6752287935"
      },
      "onsetDateTime": "2026-03-16T08:00:00.000+00:00"
    },
    "request": {
      "method": "PUT",
      "url": "Condition/53e4289f-6bb3-4aac-939e-0b919275633d"
    }
  }, {
    "fullUrl": "https://madie.cms.gov/Encounter/cfaf6a95-8d69-4d4e-aa48-200b535ee589",
    "resource": {
      "resourceType": "Encounter",
      "id": "cfaf6a95-8d69-4d4e-aa48-200b535ee589",
      "meta": {
        "profile": [ "http://hl7.org/fhir/us/qicore/StructureDefinition/qicore-encounter" ]
      },
      "status": "finished",
      "class": {
        "system": "http://terminology.hl7.org/CodeSystem/v3-ActCode",
        "code": "AMB",
        "display": "ambulatory",
        "userSelected": true
      },
      "type": [ {
        "coding": [ {
          "system": "http://snomed.info/sct",
          "version": "2021-09",
          "code": "444971000124105",
          "display": "Annual wellness visit (procedure)",
          "userSelected": true
        } ]
      } ],
      "subject": {
        "reference": "Patient/f2b74f6e-1b67-49ca-b9b1-bb6752287935"
      },
      "period": {
        "start": "2027-02-01T08:00:00.000+00:00",
        "end": "2027-02-01T08:15:00.000+00:00"
      }
    },
    "request": {
      "method": "PUT",
      "url": "Encounter/cfaf6a95-8d69-4d4e-aa48-200b535ee589"
    }
  }, {
    "fullUrl": "https://madie.cms.gov/MeasureReport/1ed0775c-dadd-4750-97ea-017a799d5176",
    "resource": {
      "resourceType": "MeasureReport",
      "id": "1ed0775c-dadd-4750-97ea-017a799d5176",
      "meta": {
        "profile": [ "http://hl7.org/fhir/us/cqfmeasures/StructureDefinition/test-case-cqfm" ]
      },
      "contained": [ {
        "resourceType": "Parameters",
        "id": "7f4e0a69-ecf4-4c4c-acfa-bb24d678ceff-parameters",
        "parameter": [ {
          "name": "subject",
          "valueString": "f2b74f6e-1b67-49ca-b9b1-bb6752287935"
        } ]
      } ],
      "extension": [ {
        "url": "http://hl7.org/fhir/StructureDefinition/cqf-inputParameters",
        "valueReference": {
          "reference": "#7f4e0a69-ecf4-4c4c-acfa-bb24d678ceff-parameters"
        }
      }, {
        "url": "http://hl7.org/fhir/us/cqfmeasures/StructureDefinition/cqfm-testCaseDescription",
        "valueMarkdown": "This patient is 20 years old, and with active diabetes diagnosis but no qualifying encounter. This case tests the encounter criteria of the Denom. "
      } ],
      "modifierExtension": [ {
        "url": "http://hl7.org/fhir/us/cqfmeasures/StructureDefinition/cqfm-isTestCase",
        "valueBoolean": true
      } ],
      "status": "complete",
      "type": "individual",
      "measure": "https://madie.cms.gov/Measure/CMS951FHIRKidneyHealthEval",
      "period": {
        "start": "2026-01-01",
        "end": "2026-12-31"
      },
      "group": [ {
        "id": "Group_1",
        "population": [ {
          "id": "InitialPopulation_1",
          "code": {
            "coding": [ {
              "system": "http://terminology.hl7.org/CodeSystem/measure-population",
              "code": "initial-population",
              "display": "Initial Population"
            } ]
          },
          "count": 0
        }, {
          "id": "Denominator_1",
          "code": {
            "coding": [ {
              "system": "http://terminology.hl7.org/CodeSystem/measure-population",
              "code": "denominator",
              "display": "Denominator"
            } ]
          },
          "count": 0
        }, {
          "id": "DenominatorExclusion_1",
          "code": {
            "coding": [ {
              "system": "http://terminology.hl7.org/CodeSystem/measure-population",
              "code": "denominator-exclusion",
              "display": "Denominator Exclusion"
            } ]
          },
          "count": 0
        }, {
          "id": "Numerator_1",
          "code": {
            "coding": [ {
              "system": "http://terminology.hl7.org/CodeSystem/measure-population",
              "code": "numerator",
              "display": "Numerator"
            } ]
          },
          "count": 0
        } ],
        "measureScore": {
          "value": 1.0
        }
      } ],
      "evaluatedResource": [ {
        "reference": "Patient/f2b74f6e-1b67-49ca-b9b1-bb6752287935"
      }, {
        "reference": "Condition/53e4289f-6bb3-4aac-939e-0b919275633d"
      }, {
        "reference": "Encounter/cfaf6a95-8d69-4d4e-aa48-200b535ee589"
      } ]
    },
    "request": {
      "method": "PUT",
      "url": "MeasureReport/1ed0775c-dadd-4750-97ea-017a799d5176"
    }
  } ]
}