{
  "resourceType": "Bundle",
  "id": "62df233e0056b6e23ec6759e",
  "type": "collection",
  "entry": [ {
    "fullUrl": "https://madie.cms.gov/Patient/d3054ffa-e17b-4611-b7e0-4523fb0f9e1d",
    "resource": {
      "resourceType": "Patient",
      "id": "d3054ffa-e17b-4611-b7e0-4523fb0f9e1d",
      "meta": {
        "profile": [ "http://hl7.org/fhir/us/qicore/StructureDefinition/qicore-patient" ]
      },
      "extension": [ {
        "url": "http://hl7.org/fhir/us/core/StructureDefinition/us-core-race",
        "extension": [ {
          "url": "ombCategory",
          "valueCoding": {
            "system": "urn:oid:2.16.840.1.113883.6.238",
            "code": "2106-3",
            "display": "White",
            "userSelected": true
          }
        }, {
          "url": "text",
          "valueString": "White"
        } ]
      }, {
        "url": "http://hl7.org/fhir/us/core/StructureDefinition/us-core-ethnicity",
        "extension": [ {
          "url": "ombCategory",
          "valueCoding": {
            "system": "urn:oid:2.16.840.1.113883.6.238",
            "code": "2186-5",
            "display": "Not Hispanic or Latino",
            "userSelected": true
          }
        }, {
          "url": "text",
          "valueString": "Not Hispanic or Latino"
        } ]
      } ],
      "identifier": [ {
        "type": {
          "coding": [ {
            "system": "http://terminology.hl7.org/CodeSystem/v2-0203",
            "code": "MR"
          } ]
        },
        "system": "https://bonnie-fhir.healthit.gov/",
        "value": "62df233e0056b6e23ec6759e"
      } ],
      "name": [ {
        "family": "NUMERFail",
        "given": [ "LowBMIAndInterventionOrderedFollowUpConditionEndsB4InterventionOrder" ]
      } ],
      "gender": "unknown",
      "birthDate": "1957-11-07"
    }
  }, {
    "fullUrl": "https://madie.cms.gov/Encounter/e4c16fcc-e665-445b-aafe-df7cbfeaa7f7",
    "resource": {
      "resourceType": "Encounter",
      "id": "e4c16fcc-e665-445b-aafe-df7cbfeaa7f7",
      "meta": {
        "profile": [ "http://hl7.org/fhir/us/qicore/StructureDefinition/qicore-encounter" ]
      },
      "status": "finished",
      "class": {
        "system": "http://terminology.hl7.org/CodeSystem/v3-ActCode",
        "code": "AMB",
        "display": "ambulatory"
      },
      "type": [ {
        "coding": [ {
          "system": "http://snomed.info/sct",
          "code": "10197000",
          "display": "Psychiatric interview and evaluation (procedure)",
          "userSelected": true
        } ]
      } ],
      "subject": {
        "reference": "Patient/d3054ffa-e17b-4611-b7e0-4523fb0f9e1d"
      },
      "period": {
        "start": "2026-12-31T23:30:00.000+00:00",
        "end": "2026-12-31T23:59:00.000+00:00"
      }
    }
  }, {
    "fullUrl": "https://madie.cms.gov/Observation/00cbb750-1b99-4332-81b3-6939d1cceed4",
    "resource": {
      "resourceType": "Observation",
      "id": "00cbb750-1b99-4332-81b3-6939d1cceed4",
      "meta": {
        "profile": [ "http://hl7.org/fhir/us/core/StructureDefinition/us-core-bmi" ]
      },
      "status": "amended",
      "category": [ {
        "coding": [ {
          "system": "http://terminology.hl7.org/CodeSystem/observation-category",
          "code": "vital-signs",
          "display": "Vital Signs"
        } ]
      } ],
      "code": {
        "coding": [ {
          "system": "http://loinc.org",
          "code": "39156-5",
          "display": "Body mass index (BMI) [Ratio]",
          "userSelected": true
        } ]
      },
      "subject": {
        "reference": "Patient/d3054ffa-e17b-4611-b7e0-4523fb0f9e1d"
      },
      "effectiveDateTime": "2026-12-31T23:59:00.000+00:00",
      "valueQuantity": {
        "value": 17,
        "unit": "kg/m2",
        "system": "http://unitsofmeasure.org",
        "code": "kg/m2"
      }
    }
  }, {
    "fullUrl": "https://madie.cms.gov/Condition/2320f037-b7f2-420a-9843-56e60853c59b",
    "resource": {
      "resourceType": "Condition",
      "id": "2320f037-b7f2-420a-9843-56e60853c59b",
      "meta": {
        "profile": [ "http://hl7.org/fhir/us/qicore/StructureDefinition/qicore-condition-problems-health-concerns" ]
      },
      "clinicalStatus": {
        "coding": [ {
          "system": "http://terminology.hl7.org/CodeSystem/condition-clinical",
          "code": "inactive",
          "display": "Inactive",
          "userSelected": true
        } ]
      },
      "category": [ {
        "coding": [ {
          "system": "http://terminology.hl7.org/CodeSystem/condition-category",
          "code": "problem-list-item",
          "display": "Problem List Item"
        }, {
          "system": "http://snomed.info/sct",
          "code": "439401001",
          "display": "Diagnosis"
        } ]
      } ],
      "code": {
        "coding": [ {
          "system": "http://snomed.info/sct",
          "code": "248342006",
          "display": "Underweight (finding)",
          "userSelected": true
        } ]
      },
      "subject": {
        "reference": "Patient/d3054ffa-e17b-4611-b7e0-4523fb0f9e1d"
      },
      "abatementPeriod": {
        "start": "2024-01-01T08:00:00.000+00:00",
        "end": "2025-07-24T08:15:00.000+00:00"
      }
    }
  }, {
    "fullUrl": "https://madie.cms.gov/ServiceRequest/dbb2866a-7a7b-4c37-83eb-93a63e9ab4bd",
    "resource": {
      "resourceType": "ServiceRequest",
      "id": "dbb2866a-7a7b-4c37-83eb-93a63e9ab4bd",
      "meta": {
        "profile": [ "http://hl7.org/fhir/us/qicore/StructureDefinition/qicore-servicerequest" ]
      },
      "status": "active",
      "intent": "order",
      "code": {
        "coding": [ {
          "system": "http://snomed.info/sct",
          "code": "182922004",
          "display": "Dietary regime (regime/therapy)",
          "userSelected": true
        } ]
      },
      "subject": {
        "reference": "Patient/d3054ffa-e17b-4611-b7e0-4523fb0f9e1d"
      },
      "authoredOn": "2025-07-25T08:00:00.000+00:00"
    }
  }, {
    "fullUrl": "https://madie.cms.gov/Coverage/950e9ee8-685e-4505-b3b8-45c74e17f365",
    "resource": {
      "resourceType": "Coverage",
      "id": "950e9ee8-685e-4505-b3b8-45c74e17f365",
      "meta": {
        "profile": [ "http://hl7.org/fhir/us/qicore/StructureDefinition/qicore-coverage" ]
      },
      "status": "active",
      "subscriberId": "123456",
      "beneficiary": {
        "reference": "Patient/d3054ffa-e17b-4611-b7e0-4523fb0f9e1d"
      },
      "relationship": {
        "coding": [ {
          "system": "http://terminology.hl7.org/CodeSystem/subscriber-relationship",
          "code": "self",
          "display": "Self",
          "userSelected": true
        } ]
      },
      "payor": [ {
        "reference": "Organization/b56a5131-ed9e-40f5-b413-09a87da64416"
      } ]
    }
  }, {
    "fullUrl": "https://madie.cms.gov/Organization/b56a5131-ed9e-40f5-b413-09a87da64416",
    "resource": {
      "resourceType": "Organization",
      "id": "b56a5131-ed9e-40f5-b413-09a87da64416",
      "meta": {
        "profile": [ "http://hl7.org/fhir/us/qicore/StructureDefinition/qicore-organization" ]
      },
      "identifier": [ {
        "use": "temp",
        "system": "urn:oid:2.16.840.1.113883.4.4",
        "value": "21-3259825"
      } ],
      "active": true,
      "type": [ {
        "coding": [ {
          "system": "http://terminology.hl7.org/CodeSystem/organization-type",
          "code": "pay",
          "display": "Payer"
        } ]
      } ],
      "name": "Blue Cross Blue Shield of Texas",
      "telecom": [ {
        "system": "phone",
        "value": "(+1) 972-766-6900"
      } ],
      "address": [ {
        "use": "billing",
        "type": "postal",
        "line": [ "P.O. Box 660044" ],
        "city": "Dallas",
        "state": "TX",
        "postalCode": "75266-0044",
        "country": "USA"
      } ]
    }
  }, {
    "fullUrl": "https://madie.cms.gov/MeasureReport/9d596b56-44ad-48b7-9666-7b91ad3377d7",
    "resource": {
      "resourceType": "MeasureReport",
      "id": "9d596b56-44ad-48b7-9666-7b91ad3377d7",
      "meta": {
        "profile": [ "http://hl7.org/fhir/us/cqfmeasures/StructureDefinition/test-case-cqfm" ]
      },
      "contained": [ {
        "resourceType": "Parameters",
        "id": "04a47210-0660-4a89-85f6-e1d62005980a-parameters",
        "parameter": [ {
          "name": "subject",
          "valueString": "d3054ffa-e17b-4611-b7e0-4523fb0f9e1d"
        } ]
      } ],
      "extension": [ {
        "url": "http://hl7.org/fhir/StructureDefinition/cqf-inputParameters",
        "valueReference": {
          "reference": "#04a47210-0660-4a89-85f6-e1d62005980a-parameters"
        }
      }, {
        "url": "http://hl7.org/fhir/us/cqfmeasures/StructureDefinition/cqfm-testCaseDescription",
        "valueMarkdown": "Enc last day of MP as well as BMI which results 16 kg/m2, dx underweight onset 1/2023 now \"inactive\" 7/24/2024, dietary order 7/25/2024, expected to fail numer d/t intervention after the fact."
      } ],
      "modifierExtension": [ {
        "url": "http://hl7.org/fhir/us/cqfmeasures/StructureDefinition/cqfm-isTestCase",
        "valueBoolean": true
      } ],
      "status": "complete",
      "type": "individual",
      "measure": "https://madie.cms.gov/Measure/CMS69FHIRPCSBMIScreenAndFollowUp",
      "period": {
        "start": "2026-01-01",
        "end": "2026-12-31"
      },
      "group": [ {
        "id": "Group_1",
        "population": [ {
          "id": "InitialPopulation_1",
          "code": {
            "coding": [ {
              "system": "http://terminology.hl7.org/CodeSystem/measure-population",
              "code": "initial-population",
              "display": "Initial Population"
            } ]
          },
          "count": 1
        }, {
          "id": "Denominator_1",
          "code": {
            "coding": [ {
              "system": "http://terminology.hl7.org/CodeSystem/measure-population",
              "code": "denominator",
              "display": "Denominator"
            } ]
          },
          "count": 1
        }, {
          "id": "DenominatorExclusion_1",
          "code": {
            "coding": [ {
              "system": "http://terminology.hl7.org/CodeSystem/measure-population",
              "code": "denominator-exclusion",
              "display": "Denominator Exclusion"
            } ]
          },
          "count": 0
        }, {
          "id": "Numerator_1",
          "code": {
            "coding": [ {
              "system": "http://terminology.hl7.org/CodeSystem/measure-population",
              "code": "numerator",
              "display": "Numerator"
            } ]
          },
          "count": 0
        }, {
          "id": "DenominatorException_1",
          "code": {
            "coding": [ {
              "system": "http://terminology.hl7.org/CodeSystem/measure-population",
              "code": "denominator-exception",
              "display": "Denominator Exception"
            } ]
          },
          "count": 0
        } ],
        "measureScore": {
          "value": 1.0
        }
      } ],
      "evaluatedResource": [ {
        "reference": "Patient/d3054ffa-e17b-4611-b7e0-4523fb0f9e1d"
      }, {
        "reference": "Encounter/e4c16fcc-e665-445b-aafe-df7cbfeaa7f7"
      }, {
        "reference": "Observation/00cbb750-1b99-4332-81b3-6939d1cceed4"
      }, {
        "reference": "Condition/2320f037-b7f2-420a-9843-56e60853c59b"
      }, {
        "reference": "ServiceRequest/dbb2866a-7a7b-4c37-83eb-93a63e9ab4bd"
      }, {
        "reference": "Coverage/950e9ee8-685e-4505-b3b8-45c74e17f365"
      }, {
        "reference": "Organization/b56a5131-ed9e-40f5-b413-09a87da64416"
      } ]
    }
  } ]
}