{
  "resourceType": "Bundle",
  "id": "63487c2d0968f8012254015b",
  "type": "transaction",
  "entry": [ {
    "fullUrl": "https://madie.cms.gov/Patient/75e27496-6999-4aa6-942e-285335503512",
    "resource": {
      "resourceType": "Patient",
      "id": "75e27496-6999-4aa6-942e-285335503512",
      "meta": {
        "profile": [ "http://hl7.org/fhir/us/qicore/StructureDefinition/qicore-patient" ]
      },
      "text": {
        "status": "generated",
        "div": "<div xmlns=\"http://www.w3.org/1999/xhtml\"><div class=\"hapiHeaderText\">AssessTerm1<b>DENOMFail</b></div><table class=\"hapiPropertyTable\"><tbody><tr><td>Identifier</td><td>3d741787aa738fa636b1082e91ae1904963d7b4c579cafa8ea4afffc8342b0a3</td></tr><tr><td>Date of birth</td><td><span>14 February 1985</span></td></tr></tbody></table></div>"
      },
      "extension": [ {
        "url": "http://hl7.org/fhir/us/core/StructureDefinition/us-core-race",
        "extension": [ {
          "url": "ombCategory",
          "valueCoding": {
            "system": "urn:oid:2.16.840.1.113883.6.238",
            "code": "1002-5",
            "display": "American Indian or Alaska Native",
            "userSelected": true
          }
        }, {
          "url": "text",
          "valueString": "American Indian or Alaska Native"
        } ]
      }, {
        "url": "http://hl7.org/fhir/us/core/StructureDefinition/us-core-ethnicity",
        "extension": [ {
          "url": "ombCategory",
          "valueCoding": {
            "system": "urn:oid:2.16.840.1.113883.6.238",
            "code": "2135-2",
            "display": "Hispanic or Latino",
            "userSelected": true
          }
        }, {
          "url": "text",
          "valueString": "Hispanic or Latino"
        } ]
      } ],
      "identifier": [ {
        "type": {
          "coding": [ {
            "system": "http://terminology.hl7.org/CodeSystem/v2-0203",
            "code": "MR"
          } ]
        },
        "system": "https://bonnie-fhir.healthit.gov/",
        "value": "63487c2d0968f8012254015b"
      } ],
      "active": true,
      "name": [ {
        "use": "usual",
        "family": "DENOMFail",
        "given": [ "AssessTerm1" ]
      } ],
      "gender": "female",
      "birthDate": "1998-02-14"
    },
    "request": {
      "method": "PUT",
      "url": "Patient/75e27496-6999-4aa6-942e-285335503512"
    }
  }, {
    "fullUrl": "https://madie.cms.gov/Observation/db6b1d8d-30cd-4f97-82d3-5bda12988ae2",
    "resource": {
      "resourceType": "Observation",
      "id": "db6b1d8d-30cd-4f97-82d3-5bda12988ae2",
      "meta": {
        "profile": [ "http://hl7.org/fhir/us/qicore/StructureDefinition/qicore-simple-observation" ]
      },
      "status": "final",
      "category": [ {
        "coding": [ {
          "system": "http://terminology.hl7.org/CodeSystem/observation-category",
          "code": "exam",
          "display": "exam",
          "userSelected": true
        } ]
      } ],
      "code": {
        "coding": [ {
          "system": "http://loinc.org",
          "code": "11637-6"
        } ]
      },
      "subject": {
        "reference": "Patient/75e27496-6999-4aa6-942e-285335503512"
      },
      "effectiveDateTime": "2025-09-19T09:00:00.000+00:00",
      "valueInteger": 0
    },
    "request": {
      "method": "PUT",
      "url": "Observation/db6b1d8d-30cd-4f97-82d3-5bda12988ae2"
    }
  }, {
    "fullUrl": "https://madie.cms.gov/Observation/00c636d9-60c8-4051-a6f9-beaaae0368f0",
    "resource": {
      "resourceType": "Observation",
      "id": "00c636d9-60c8-4051-a6f9-beaaae0368f0",
      "meta": {
        "profile": [ "http://hl7.org/fhir/us/qicore/StructureDefinition/qicore-simple-observation" ]
      },
      "status": "final",
      "category": [ {
        "coding": [ {
          "system": "http://terminology.hl7.org/CodeSystem/observation-category",
          "code": "exam",
          "display": "exam",
          "userSelected": true
        } ]
      } ],
      "code": {
        "coding": [ {
          "system": "http://loinc.org",
          "code": "11639-2"
        } ]
      },
      "subject": {
        "reference": "Patient/75e27496-6999-4aa6-942e-285335503512"
      },
      "effectiveDateTime": "2025-09-19T09:00:00.000+00:00",
      "valueInteger": 1
    },
    "request": {
      "method": "PUT",
      "url": "Observation/00c636d9-60c8-4051-a6f9-beaaae0368f0"
    }
  }, {
    "fullUrl": "https://madie.cms.gov/Observation/7ee558bd-2b46-4632-99ac-6e071dfbfbc6",
    "resource": {
      "resourceType": "Observation",
      "id": "7ee558bd-2b46-4632-99ac-6e071dfbfbc6",
      "meta": {
        "profile": [ "http://hl7.org/fhir/us/qicore/StructureDefinition/qicore-simple-observation" ]
      },
      "status": "final",
      "category": [ {
        "coding": [ {
          "system": "http://terminology.hl7.org/CodeSystem/observation-category",
          "code": "exam",
          "display": "exam",
          "userSelected": true
        } ]
      } ],
      "code": {
        "coding": [ {
          "system": "http://loinc.org",
          "code": "11884-4"
        } ]
      },
      "subject": {
        "reference": "Patient/75e27496-6999-4aa6-942e-285335503512"
      },
      "effectiveDateTime": "2026-06-08T20:00:00.000+00:00",
      "valueQuantity": {
        "value": 37,
        "system": "http://unitsofmeasure.org",
        "code": "wk"
      }
    },
    "request": {
      "method": "PUT",
      "url": "Observation/7ee558bd-2b46-4632-99ac-6e071dfbfbc6"
    }
  }, {
    "fullUrl": "https://madie.cms.gov/Observation/a9c44345-1615-4d60-85d9-fb1d22eaffb2",
    "resource": {
      "resourceType": "Observation",
      "id": "a9c44345-1615-4d60-85d9-fb1d22eaffb2",
      "meta": {
        "profile": [ "http://hl7.org/fhir/us/qicore/StructureDefinition/qicore-simple-observation" ]
      },
      "status": "final",
      "category": [ {
        "coding": [ {
          "system": "http://terminology.hl7.org/CodeSystem/observation-category",
          "code": "exam",
          "display": "exam",
          "userSelected": true
        } ]
      } ],
      "code": {
        "coding": [ {
          "system": "http://loinc.org",
          "code": "93857-1"
        } ]
      },
      "subject": {
        "reference": "Patient/75e27496-6999-4aa6-942e-285335503512"
      },
      "effectiveDateTime": "2026-06-08T20:00:00.000+00:00",
      "valueDateTime": "2026-06-08T20:00:00.000+00:00"
    },
    "request": {
      "method": "PUT",
      "url": "Observation/a9c44345-1615-4d60-85d9-fb1d22eaffb2"
    }
  }, {
    "fullUrl": "https://madie.cms.gov/Encounter/697be7a8-74a9-4efe-b971-d61259c3659b",
    "resource": {
      "resourceType": "Encounter",
      "id": "697be7a8-74a9-4efe-b971-d61259c3659b",
      "meta": {
        "profile": [ "http://hl7.org/fhir/us/qicore/StructureDefinition/qicore-encounter" ]
      },
      "status": "finished",
      "class": {
        "system": "http://terminology.hl7.org/CodeSystem/v3-ActCode",
        "code": "IMP",
        "display": "inpatient encounter"
      },
      "type": [ {
        "coding": [ {
          "system": "http://snomed.info/sct",
          "code": "8715000"
        } ]
      } ],
      "subject": {
        "reference": "Patient/75e27496-6999-4aa6-942e-285335503512"
      },
      "period": {
        "start": "2026-06-08T08:00:00.000+00:00",
        "end": "2026-06-10T08:15:00.000+00:00"
      },
      "length": {
        "value": 2,
        "unit": "days"
      },
      "reasonReference": [ {
        "reference": "Condition/delivery-of-singleton-df6a"
      } ]
    },
    "request": {
      "method": "PUT",
      "url": "Encounter/697be7a8-74a9-4efe-b971-d61259c3659b"
    }
  }, {
    "fullUrl": "https://madie.cms.gov/Procedure/8858c17b-cca0-43ef-b9a5-56adda1073c1",
    "resource": {
      "resourceType": "Procedure",
      "id": "8858c17b-cca0-43ef-b9a5-56adda1073c1",
      "meta": {
        "profile": [ "http://hl7.org/fhir/us/qicore/StructureDefinition/qicore-procedure" ]
      },
      "extension": [ {
        "url": "http://hl7.org/fhir/us/qicore/StructureDefinition/qicore-recorded",
        "valueDateTime": "2014-04-05T13:35:00.000+00:00"
      } ],
      "status": "completed",
      "code": {
        "coding": [ {
          "system": "http://www.cms.gov/Medicare/Coding/ICD10",
          "code": "10D00Z0"
        }, {
          "system": "http://snomed.info/sct",
          "code": "4504004"
        } ]
      },
      "subject": {
        "reference": "Patient/75e27496-6999-4aa6-942e-285335503512"
      },
      "performedPeriod": {
        "start": "2026-06-08T20:00:00.000+00:00",
        "end": "2026-06-08T20:15:00.000+00:00"
      }
    },
    "request": {
      "method": "PUT",
      "url": "Procedure/8858c17b-cca0-43ef-b9a5-56adda1073c1"
    }
  }, {
    "fullUrl": "https://madie.cms.gov/Condition/a9929fcb-6449-439f-830c-5f059b95ca44",
    "resource": {
      "resourceType": "Condition",
      "id": "a9929fcb-6449-439f-830c-5f059b95ca44",
      "meta": {
        "profile": [ "http://hl7.org/fhir/us/qicore/StructureDefinition/qicore-condition-encounter-diagnosis" ]
      },
      "category": [ {
        "coding": [ {
          "system": "http://terminology.hl7.org/CodeSystem/condition-category",
          "code": "encounter-diagnosis",
          "display": "Encounter Diagnosis"
        } ]
      } ],
      "code": {
        "coding": [ {
          "system": "http://snomed.info/sct",
          "version": "2022-09",
          "code": "169826009",
          "display": "Single live birth from singleton pregnancy (finding)",
          "userSelected": true
        } ]
      },
      "subject": {
        "reference": "Patient/75e27496-6999-4aa6-942e-285335503512"
      },
      "encounter": {
        "reference": "Encounter/697be7a8-74a9-4efe-b971-d61259c3659b"
      },
      "recordedDate": "2026-10-21T08:00:00.000+00:00"
    },
    "request": {
      "method": "PUT",
      "url": "Condition/a9929fcb-6449-439f-830c-5f059b95ca44"
    }
  }, {
    "fullUrl": "https://madie.cms.gov/Coverage/8f028cb3-a9df-4acb-81ae-77aa9dc850af",
    "resource": {
      "resourceType": "Coverage",
      "id": "8f028cb3-a9df-4acb-81ae-77aa9dc850af",
      "meta": {
        "profile": [ "http://hl7.org/fhir/us/qicore/StructureDefinition/qicore-coverage" ]
      },
      "status": "active",
      "subscriberId": "523435",
      "beneficiary": {
        "reference": "Patient/75e27496-6999-4aa6-942e-285335503512"
      },
      "relationship": {
        "coding": [ {
          "system": "http://terminology.hl7.org/CodeSystem/subscriber-relationship",
          "code": "self"
        } ]
      },
      "payor": [ {
        "reference": "Organization/33f1efdf-55ba-4813-b8c9-fff261931c42"
      } ]
    },
    "request": {
      "method": "PUT",
      "url": "Coverage/8f028cb3-a9df-4acb-81ae-77aa9dc850af"
    }
  }, {
    "fullUrl": "https://madie.cms.gov/Organization/33f1efdf-55ba-4813-b8c9-fff261931c42",
    "resource": {
      "resourceType": "Organization",
      "id": "33f1efdf-55ba-4813-b8c9-fff261931c42",
      "meta": {
        "profile": [ "http://hl7.org/fhir/us/qicore/StructureDefinition/qicore-organization" ]
      },
      "identifier": [ {
        "use": "temp",
        "system": "urn:oid:2.16.840.1.113883.4.4",
        "value": "21-3259825"
      } ],
      "active": true,
      "type": [ {
        "coding": [ {
          "system": "http://terminology.hl7.org/CodeSystem/organization-type",
          "code": "pay",
          "display": "Payer"
        } ]
      } ],
      "name": "Blue Cross Blue Shield of Texas",
      "telecom": [ {
        "system": "phone",
        "value": "(+1) 972-766-6900"
      } ],
      "address": [ {
        "use": "billing",
        "type": "postal",
        "line": [ "P.O. Box 660044" ],
        "city": "Dallas",
        "state": "TX",
        "postalCode": "75266-0044",
        "country": "USA"
      } ]
    },
    "request": {
      "method": "PUT",
      "url": "Organization/33f1efdf-55ba-4813-b8c9-fff261931c42"
    }
  }, {
    "fullUrl": "https://madie.cms.gov/Practitioner/e4a41519-407f-436d-9b5d-df4342437282",
    "resource": {
      "resourceType": "Practitioner",
      "id": "e4a41519-407f-436d-9b5d-df4342437282",
      "meta": {
        "profile": [ "http://hl7.org/fhir/us/qicore/StructureDefinition/qicore-practitioner" ]
      },
      "identifier": [ {
        "system": "http://hl7.org/fhir/sid/us-npi",
        "value": "1234567890"
      } ],
      "name": [ {
        "family": "Evil",
        "prefix": [ "Dr" ]
      } ]
    },
    "request": {
      "method": "PUT",
      "url": "Practitioner/e4a41519-407f-436d-9b5d-df4342437282"
    }
  }, {
    "fullUrl": "https://madie.cms.gov/MeasureReport/1bcf38de-b96d-405a-8289-2fa98c2a26d8",
    "resource": {
      "resourceType": "MeasureReport",
      "id": "1bcf38de-b96d-405a-8289-2fa98c2a26d8",
      "meta": {
        "profile": [ "http://hl7.org/fhir/us/cqfmeasures/StructureDefinition/test-case-cqfm" ]
      },
      "contained": [ {
        "resourceType": "Parameters",
        "id": "4d755bee-6cc2-4a92-be16-94a10184eae4-parameters",
        "parameter": [ {
          "name": "subject",
          "valueString": "75e27496-6999-4aa6-942e-285335503512"
        } ]
      } ],
      "extension": [ {
        "url": "http://hl7.org/fhir/StructureDefinition/cqf-inputParameters",
        "valueReference": {
          "reference": "#4d755bee-6cc2-4a92-be16-94a10184eae4-parameters"
        }
      }, {
        "url": "http://hl7.org/fhir/us/cqfmeasures/StructureDefinition/cqfm-testCaseDescription",
        "valueMarkdown": "\"Term Newborn=1, Relevant Date/time < 42weeks prior to delivery and DENOM fail\nPreterm Births=0, Relevant Date/time < 42weeks prior to delivery\n\"\n"
      } ],
      "modifierExtension": [ {
        "url": "http://hl7.org/fhir/us/cqfmeasures/StructureDefinition/cqfm-isTestCase",
        "valueBoolean": true
      } ],
      "status": "complete",
      "type": "individual",
      "measure": "https://madie.cms.gov/Measure/CMS0334FHIRPCCesareanBirth",
      "period": {
        "start": "2026-01-01",
        "end": "2026-12-31"
      },
      "group": [ {
        "id": "Group_1",
        "population": [ {
          "id": "InitialPopulation_1",
          "code": {
            "coding": [ {
              "system": "http://terminology.hl7.org/CodeSystem/measure-population",
              "code": "initial-population",
              "display": "Initial Population"
            } ]
          },
          "count": 1
        }, {
          "id": "Denominator_1",
          "code": {
            "coding": [ {
              "system": "http://terminology.hl7.org/CodeSystem/measure-population",
              "code": "denominator",
              "display": "Denominator"
            } ]
          },
          "count": 0
        }, {
          "id": "DenominatorExclusion_1",
          "code": {
            "coding": [ {
              "system": "http://terminology.hl7.org/CodeSystem/measure-population",
              "code": "denominator-exclusion",
              "display": "Denominator Exclusion"
            } ]
          },
          "count": 0
        }, {
          "id": "Numerator_1",
          "code": {
            "coding": [ {
              "system": "http://terminology.hl7.org/CodeSystem/measure-population",
              "code": "numerator",
              "display": "Numerator"
            } ]
          },
          "count": 0
        } ],
        "measureScore": {
          "value": 0.0
        }
      } ],
      "evaluatedResource": [ {
        "reference": "Patient/75e27496-6999-4aa6-942e-285335503512"
      }, {
        "reference": "Observation/db6b1d8d-30cd-4f97-82d3-5bda12988ae2"
      }, {
        "reference": "Observation/00c636d9-60c8-4051-a6f9-beaaae0368f0"
      }, {
        "reference": "Observation/7ee558bd-2b46-4632-99ac-6e071dfbfbc6"
      }, {
        "reference": "Observation/a9c44345-1615-4d60-85d9-fb1d22eaffb2"
      }, {
        "reference": "Encounter/697be7a8-74a9-4efe-b971-d61259c3659b"
      }, {
        "reference": "Procedure/8858c17b-cca0-43ef-b9a5-56adda1073c1"
      }, {
        "reference": "Condition/a9929fcb-6449-439f-830c-5f059b95ca44"
      }, {
        "reference": "Coverage/8f028cb3-a9df-4acb-81ae-77aa9dc850af"
      }, {
        "reference": "Organization/33f1efdf-55ba-4813-b8c9-fff261931c42"
      }, {
        "reference": "Practitioner/e4a41519-407f-436d-9b5d-df4342437282"
      } ]
    },
    "request": {
      "method": "PUT",
      "url": "MeasureReport/1bcf38de-b96d-405a-8289-2fa98c2a26d8"
    }
  } ]
}