{
  "resourceType": "Bundle",
  "id": "62a89f7131a203bdc723752b",
  "type": "collection",
  "entry": [ {
    "fullUrl": "https://madie.cms.gov/Patient/7bdb16f0-8b33-4a95-b990-8a96f9d4ab53",
    "resource": {
      "resourceType": "Patient",
      "id": "7bdb16f0-8b33-4a95-b990-8a96f9d4ab53",
      "meta": {
        "profile": [ "http://hl7.org/fhir/us/qicore/StructureDefinition/qicore-patient" ]
      },
      "extension": [ {
        "url": "http://hl7.org/fhir/us/core/StructureDefinition/us-core-race",
        "extension": [ {
          "url": "ombCategory",
          "valueCoding": {
            "system": "urn:oid:2.16.840.1.113883.6.238",
            "code": "2028-9",
            "display": "Asian"
          }
        }, {
          "url": "text",
          "valueString": "Asian"
        } ]
      }, {
        "url": "http://hl7.org/fhir/us/core/StructureDefinition/us-core-ethnicity",
        "extension": [ {
          "url": "ombCategory",
          "valueCoding": {
            "system": "urn:oid:2.16.840.1.113883.6.238",
            "code": "2186-5",
            "display": "Not Hispanic or Latino"
          }
        }, {
          "url": "text",
          "valueString": "Not Hispanic or Latino"
        } ]
      } ],
      "identifier": [ {
        "type": {
          "coding": [ {
            "system": "http://terminology.hl7.org/CodeSystem/v2-0203",
            "code": "MR"
          } ]
        },
        "system": "https://bonnie-fhir.healthit.gov/",
        "value": "41654161684974312"
      } ],
      "name": [ {
        "family": "IPFail",
        "given": [ "OVHasNoStartDt" ]
      } ],
      "gender": "male",
      "birthDate": "1974-04-12"
    }
  }, {
    "fullUrl": "https://madie.cms.gov/Encounter/863df5b8-7c99-4f86-9bcb-9d11f889bd9d",
    "resource": {
      "resourceType": "Encounter",
      "id": "863df5b8-7c99-4f86-9bcb-9d11f889bd9d",
      "meta": {
        "profile": [ "http://hl7.org/fhir/us/qicore/StructureDefinition/qicore-encounter" ]
      },
      "status": "finished",
      "class": {
        "system": "http://terminology.hl7.org/CodeSystem/v3-ActCode",
        "code": "AMB",
        "display": "ambulatory"
      },
      "type": [ {
        "coding": [ {
          "system": "http://www.ama-assn.org/go/cpt",
          "version": "2024",
          "code": "99212"
        } ]
      } ],
      "subject": {
        "reference": "Patient/7bdb16f0-8b33-4a95-b990-8a96f9d4ab53"
      },
      "period": {
        "start": "2026-02-01T09:30:00.000+00:00"
      }
    }
  }, {
    "fullUrl": "https://madie.cms.gov/Condition/84bbd292-3d07-4a3a-a0d6-ce3d0d12c043",
    "resource": {
      "resourceType": "Condition",
      "id": "84bbd292-3d07-4a3a-a0d6-ce3d0d12c043",
      "meta": {
        "profile": [ "http://hl7.org/fhir/us/qicore/StructureDefinition/qicore-condition-problems-health-concerns" ]
      },
      "clinicalStatus": {
        "coding": [ {
          "system": "http://terminology.hl7.org/CodeSystem/condition-clinical",
          "code": "active",
          "display": "active"
        } ]
      },
      "verificationStatus": {
        "coding": [ {
          "system": "http://terminology.hl7.org/CodeSystem/condition-ver-status",
          "code": "confirmed",
          "display": "Confirmed"
        } ]
      },
      "category": [ {
        "coding": [ {
          "system": "http://terminology.hl7.org/CodeSystem/condition-category",
          "code": "problem-list-item",
          "display": "Problem List Item"
        } ]
      } ],
      "code": {
        "coding": [ {
          "system": "http://hl7.org/fhir/sid/icd-10-cm",
          "version": "2024",
          "code": "N40.1",
          "display": "Benign prostatic hyperplasia with lower urinary tract symptoms"
        } ]
      },
      "subject": {
        "reference": "Patient/7bdb16f0-8b33-4a95-b990-8a96f9d4ab53"
      },
      "onsetPeriod": {
        "start": "2025-09-01T08:00:00.000+00:00"
      }
    }
  }, {
    "fullUrl": "https://madie.cms.gov/Observation/1ec094f4-55b8-40cc-afa1-4ab9a05ec0a8",
    "resource": {
      "resourceType": "Observation",
      "id": "1ec094f4-55b8-40cc-afa1-4ab9a05ec0a8",
      "meta": {
        "profile": [ "http://hl7.org/fhir/us/qicore/StructureDefinition/qicore-observation-screening-assessment" ]
      },
      "status": "final",
      "category": [ {
        "coding": [ {
          "system": "http://terminology.hl7.org/CodeSystem/observation-category",
          "code": "survey",
          "display": "Survey"
        } ]
      } ],
      "code": {
        "coding": [ {
          "system": "http://loinc.org",
          "version": "2.76",
          "code": "80976-4",
          "display": "International Prostate Symptom Score [IPSS]"
        } ]
      },
      "subject": {
        "reference": "Patient/7bdb16f0-8b33-4a95-b990-8a96f9d4ab53"
      },
      "effectiveDateTime": "2025-10-01T08:00:00.000+00:00",
      "valueInteger": 2
    }
  }, {
    "fullUrl": "https://madie.cms.gov/Observation/d4ec9ddc-0961-4c43-b4f9-4b088288a2e2",
    "resource": {
      "resourceType": "Observation",
      "id": "d4ec9ddc-0961-4c43-b4f9-4b088288a2e2",
      "meta": {
        "profile": [ "http://hl7.org/fhir/us/qicore/StructureDefinition/qicore-observation-screening-assessment" ]
      },
      "status": "final",
      "category": [ {
        "coding": [ {
          "system": "http://terminology.hl7.org/CodeSystem/observation-category",
          "code": "survey",
          "display": "Survey"
        } ]
      } ],
      "code": {
        "coding": [ {
          "system": "http://loinc.org",
          "version": "2.76",
          "code": "80976-4",
          "display": "International Prostate Symptom Score [IPSS]"
        } ]
      },
      "subject": {
        "reference": "Patient/7bdb16f0-8b33-4a95-b990-8a96f9d4ab53"
      },
      "effectiveDateTime": "2026-07-01T08:00:00.000+00:00",
      "valueInteger": 2
    }
  }, {
    "fullUrl": "https://madie.cms.gov/MeasureReport/23fad2db-5d76-406e-b766-2ae81395236d",
    "resource": {
      "resourceType": "MeasureReport",
      "id": "23fad2db-5d76-406e-b766-2ae81395236d",
      "meta": {
        "profile": [ "http://hl7.org/fhir/us/cqfmeasures/StructureDefinition/test-case-cqfm" ]
      },
      "contained": [ {
        "resourceType": "Parameters",
        "id": "7ed82f7b-23e3-4dd4-ad24-8733b993f404-parameters",
        "parameter": [ {
          "name": "subject",
          "valueString": "7bdb16f0-8b33-4a95-b990-8a96f9d4ab53"
        } ]
      } ],
      "extension": [ {
        "url": "http://hl7.org/fhir/StructureDefinition/cqf-inputParameters",
        "valueReference": {
          "reference": "#7ed82f7b-23e3-4dd4-ad24-8733b993f404-parameters"
        }
      }, {
        "url": "http://hl7.org/fhir/us/cqfmeasures/StructureDefinition/cqfm-testCaseDescription",
        "valueMarkdown": "Patient with BPH Dx, Initial and Followup USS and Office Visit with no End Date"
      } ],
      "modifierExtension": [ {
        "url": "http://hl7.org/fhir/us/cqfmeasures/StructureDefinition/cqfm-isTestCase",
        "valueBoolean": true
      } ],
      "status": "complete",
      "type": "individual",
      "measure": "https://madie.cms.gov/Measure/CMS771FHIRUrinarySymptomScoreBPH",
      "period": {
        "start": "2026-01-01",
        "end": "2026-12-31"
      },
      "group": [ {
        "id": "Group_1",
        "population": [ {
          "id": "InitialPopulation_1",
          "code": {
            "coding": [ {
              "system": "http://terminology.hl7.org/CodeSystem/measure-population",
              "code": "initial-population",
              "display": "Initial Population"
            } ]
          },
          "count": 0
        }, {
          "id": "Denominator_1",
          "code": {
            "coding": [ {
              "system": "http://terminology.hl7.org/CodeSystem/measure-population",
              "code": "denominator",
              "display": "Denominator"
            } ]
          },
          "count": 0
        }, {
          "id": "DenominatorExclusion_1",
          "code": {
            "coding": [ {
              "system": "http://terminology.hl7.org/CodeSystem/measure-population",
              "code": "denominator-exclusion",
              "display": "Denominator Exclusion"
            } ]
          },
          "count": 0
        }, {
          "id": "Numerator_1",
          "code": {
            "coding": [ {
              "system": "http://terminology.hl7.org/CodeSystem/measure-population",
              "code": "numerator",
              "display": "Numerator"
            } ]
          },
          "count": 0
        } ],
        "measureScore": {
          "value": 1.0
        }
      } ],
      "evaluatedResource": [ {
        "reference": "Patient/7bdb16f0-8b33-4a95-b990-8a96f9d4ab53"
      }, {
        "reference": "Encounter/863df5b8-7c99-4f86-9bcb-9d11f889bd9d"
      }, {
        "reference": "Condition/84bbd292-3d07-4a3a-a0d6-ce3d0d12c043"
      }, {
        "reference": "Observation/1ec094f4-55b8-40cc-afa1-4ab9a05ec0a8"
      }, {
        "reference": "Observation/d4ec9ddc-0961-4c43-b4f9-4b088288a2e2"
      } ]
    }
  } ]
}