{
  "resourceType": "Bundle",
  "id": "NUMFail-RetinalExamDec31OfYrB4MPRetinoDxDec31B4MP",
  "type": "transaction",
  "entry": [ {
    "fullUrl": "https://madie.cms.gov/Patient/7a38f99c-a713-4631-9a05-13cfe1a21e5a",
    "resource": {
      "resourceType": "Patient",
      "id": "7a38f99c-a713-4631-9a05-13cfe1a21e5a",
      "meta": {
        "profile": [ "http://hl7.org/fhir/us/qicore/StructureDefinition/qicore-patient" ]
      },
      "extension": [ {
        "url": "http://hl7.org/fhir/us/core/StructureDefinition/us-core-race",
        "extension": [ {
          "url": "ombCategory",
          "valueCoding": {
            "system": "urn:oid:2.16.840.1.113883.6.238",
            "code": "2028-9",
            "display": "Asian",
            "userSelected": true
          }
        }, {
          "url": "text",
          "valueString": "Asian"
        } ]
      }, {
        "url": "http://hl7.org/fhir/us/core/StructureDefinition/us-core-ethnicity",
        "extension": [ {
          "url": "ombCategory",
          "valueCoding": {
            "system": "urn:oid:2.16.840.1.113883.6.238",
            "code": "2135-2",
            "display": "Hispanic or Latino",
            "userSelected": true
          }
        }, {
          "url": "text",
          "valueString": "Hispanic or Latino"
        } ]
      } ],
      "identifier": [ {
        "type": {
          "coding": [ {
            "system": "http://terminology.hl7.org/CodeSystem/v2-0203",
            "code": "MR"
          } ]
        },
        "system": "http://hospital.smarthealthit.org",
        "value": "999999995"
      } ],
      "name": [ {
        "family": "Bertha",
        "given": [ "Betty" ]
      } ],
      "gender": "female",
      "birthDate": "2007-12-31"
    },
    "request": {
      "method": "PUT",
      "url": "Patient/7a38f99c-a713-4631-9a05-13cfe1a21e5a"
    }
  }, {
    "fullUrl": "https://madie.cms.gov/Encounter/daf09d4c-c42c-4b73-ba4d-8f62c1e3acc4",
    "resource": {
      "resourceType": "Encounter",
      "id": "daf09d4c-c42c-4b73-ba4d-8f62c1e3acc4",
      "meta": {
        "profile": [ "http://hl7.org/fhir/us/qicore/StructureDefinition/qicore-encounter" ]
      },
      "status": "finished",
      "class": {
        "system": "http://terminology.hl7.org/CodeSystem/v3-ActCode",
        "code": "AMB",
        "display": "ambulatory"
      },
      "type": [ {
        "coding": [ {
          "system": "http://snomed.info/sct",
          "code": "185463005",
          "display": "Visit out of hours (procedure)"
        } ]
      } ],
      "subject": {
        "reference": "Patient/7a38f99c-a713-4631-9a05-13cfe1a21e5a"
      },
      "period": {
        "start": "2026-01-01T00:00:00.000+00:00",
        "end": "2026-01-01T00:00:00.000+00:00"
      }
    },
    "request": {
      "method": "PUT",
      "url": "Encounter/daf09d4c-c42c-4b73-ba4d-8f62c1e3acc4"
    }
  }, {
    "fullUrl": "https://madie.cms.gov/Condition/3af967ea-6d16-4d71-8249-4b0d428aea07",
    "resource": {
      "resourceType": "Condition",
      "id": "3af967ea-6d16-4d71-8249-4b0d428aea07",
      "meta": {
        "profile": [ "http://hl7.org/fhir/us/qicore/StructureDefinition/qicore-condition-encounter-diagnosis" ]
      },
      "clinicalStatus": {
        "coding": [ {
          "system": "http://terminology.hl7.org/CodeSystem/condition-clinical",
          "code": "active"
        } ]
      },
      "category": [ {
        "coding": [ {
          "system": "http://terminology.hl7.org/CodeSystem/condition-category",
          "code": "encounter-diagnosis",
          "display": "Encounter Diagnosis"
        } ]
      } ],
      "code": {
        "coding": [ {
          "system": "http://snomed.info/sct",
          "code": "102781000119107",
          "display": "Sensory neuropathy due to type 1 diabetes mellitus (disorder)"
        } ]
      },
      "subject": {
        "reference": "Patient/7a38f99c-a713-4631-9a05-13cfe1a21e5a"
      },
      "onsetDateTime": "2026-01-01T00:00:00.000+00:00"
    },
    "request": {
      "method": "PUT",
      "url": "Condition/3af967ea-6d16-4d71-8249-4b0d428aea07"
    }
  }, {
    "fullUrl": "https://madie.cms.gov/Condition/3af967ea-6d16-4d71-8249-4b0d428aea07.1",
    "resource": {
      "resourceType": "Condition",
      "id": "3af967ea-6d16-4d71-8249-4b0d428aea07.1",
      "meta": {
        "profile": [ "http://hl7.org/fhir/us/qicore/StructureDefinition/qicore-condition-encounter-diagnosis" ]
      },
      "clinicalStatus": {
        "coding": [ {
          "system": "http://terminology.hl7.org/CodeSystem/condition-clinical",
          "code": "active"
        } ]
      },
      "category": [ {
        "coding": [ {
          "system": "http://terminology.hl7.org/CodeSystem/condition-category",
          "code": "encounter-diagnosis",
          "display": "Encounter Diagnosis"
        } ]
      } ],
      "code": {
        "coding": [ {
          "system": "http://snomed.info/sct",
          "code": "193349004",
          "display": "Preproliferative retinopathy due to diabetes mellitus (disorder)"
        } ]
      },
      "subject": {
        "reference": "Patient/7a38f99c-a713-4631-9a05-13cfe1a21e5a"
      },
      "onsetDateTime": "2024-12-31T23:59:59.000+00:00"
    },
    "request": {
      "method": "PUT",
      "url": "Condition/3af967ea-6d16-4d71-8249-4b0d428aea07.1"
    }
  }, {
    "fullUrl": "https://madie.cms.gov/Observation/382724e5-4506-4f3f-979a-b9cbe0561c5d",
    "resource": {
      "resourceType": "Observation",
      "id": "382724e5-4506-4f3f-979a-b9cbe0561c5d",
      "meta": {
        "profile": [ "http://hl7.org/fhir/us/qicore/StructureDefinition-qicore-observation-clinical-result" ]
      },
      "status": "final",
      "category": [ {
        "coding": [ {
          "system": "http://terminology.hl7.org/CodeSystem/observation-category",
          "code": "exam"
        } ]
      } ],
      "code": {
        "coding": [ {
          "system": "http://snomed.info/sct",
          "code": "252779009",
          "display": "Single bright white flash electroretinography (procedure)"
        } ]
      },
      "subject": {
        "reference": "Patient/7a38f99c-a713-4631-9a05-13cfe1a21e5a"
      },
      "effectivePeriod": {
        "start": "2024-12-31T23:59:59.000+00:00",
        "end": "2024-12-31T23:59:59.000+00:00"
      }
    },
    "request": {
      "method": "PUT",
      "url": "Observation/382724e5-4506-4f3f-979a-b9cbe0561c5d"
    }
  }, {
    "fullUrl": "https://madie.cms.gov/MeasureReport/b4acc6e6-7c22-408f-a435-f9b76739b51d",
    "resource": {
      "resourceType": "MeasureReport",
      "id": "b4acc6e6-7c22-408f-a435-f9b76739b51d",
      "meta": {
        "profile": [ "http://hl7.org/fhir/us/cqfmeasures/StructureDefinition/test-case-cqfm" ]
      },
      "contained": [ {
        "resourceType": "Parameters",
        "id": "dacc5520-4a0b-4a07-bac3-2453870e6fcc-parameters",
        "parameter": [ {
          "name": "subject",
          "valueString": "7a38f99c-a713-4631-9a05-13cfe1a21e5a"
        } ]
      } ],
      "extension": [ {
        "url": "http://hl7.org/fhir/StructureDefinition/cqf-inputParameters",
        "valueReference": {
          "reference": "#dacc5520-4a0b-4a07-bac3-2453870e6fcc-parameters"
        }
      }, {
        "url": "http://hl7.org/fhir/us/cqfmeasures/StructureDefinition/cqfm-testCaseDescription",
        "valueMarkdown": "Patient 18yo w/ an Office Visit Encounter, Diabetes Condition ending 1/1 during the MP, and Retinopathy Condition 12/31 of the year before the MP, with an Eye Exam Observation 12/31 of year before the MP."
      } ],
      "modifierExtension": [ {
        "url": "http://hl7.org/fhir/us/cqfmeasures/StructureDefinition/cqfm-isTestCase",
        "valueBoolean": true
      } ],
      "status": "complete",
      "type": "individual",
      "measure": "https://madie.cms.gov/Measure/CMS131FHIRDiabetesEyeExam",
      "period": {
        "start": "2026-01-01",
        "end": "2026-12-31"
      },
      "group": [ {
        "id": "Group_1",
        "population": [ {
          "id": "InitialPopulation_1",
          "code": {
            "coding": [ {
              "system": "http://terminology.hl7.org/CodeSystem/measure-population",
              "code": "initial-population",
              "display": "Initial Population"
            } ]
          },
          "count": 1
        }, {
          "id": "Denominator_1",
          "code": {
            "coding": [ {
              "system": "http://terminology.hl7.org/CodeSystem/measure-population",
              "code": "denominator",
              "display": "Denominator"
            } ]
          },
          "count": 1
        }, {
          "id": "DenominatorExclusion_1",
          "code": {
            "coding": [ {
              "system": "http://terminology.hl7.org/CodeSystem/measure-population",
              "code": "denominator-exclusion",
              "display": "Denominator Exclusion"
            } ]
          },
          "count": 0
        }, {
          "id": "Numerator_1",
          "code": {
            "coding": [ {
              "system": "http://terminology.hl7.org/CodeSystem/measure-population",
              "code": "numerator",
              "display": "Numerator"
            } ]
          },
          "count": 0
        } ],
        "measureScore": {
          "value": 1.0
        }
      } ],
      "evaluatedResource": [ {
        "reference": "Patient/7a38f99c-a713-4631-9a05-13cfe1a21e5a"
      }, {
        "reference": "Encounter/daf09d4c-c42c-4b73-ba4d-8f62c1e3acc4"
      }, {
        "reference": "Condition/3af967ea-6d16-4d71-8249-4b0d428aea07"
      }, {
        "reference": "Condition/3af967ea-6d16-4d71-8249-4b0d428aea07.1"
      }, {
        "reference": "Observation/382724e5-4506-4f3f-979a-b9cbe0561c5d"
      } ]
    },
    "request": {
      "method": "PUT",
      "url": "MeasureReport/b4acc6e6-7c22-408f-a435-f9b76739b51d"
    }
  } ]
}