{
  "resourceType": "Bundle",
  "id": "612e6b1102c62a011f2ec4c4",
  "type": "transaction",
  "entry": [ {
    "fullUrl": "https://madie.cms.gov/Patient/4b739978-837b-4de8-a137-6388cfce6a5f",
    "resource": {
      "resourceType": "Patient",
      "id": "4b739978-837b-4de8-a137-6388cfce6a5f",
      "meta": {
        "profile": [ "http://hl7.org/fhir/us/qicore/StructureDefinition/qicore-patient" ]
      },
      "text": {
        "status": "generated",
        "div": "<div xmlns=\"http://www.w3.org/1999/xhtml\"><div class=\"hapiHeaderText\">RixDuringED_EDGT1hr1minAdm <b>NUMERFAIL </b></div><table class=\"hapiPropertyTable\"><tbody><tr><td>Identifier</td><td>9ac41bff10ef3353d0742df1f73dc984</td></tr><tr><td>Date of birth</td><td><span>02 January 1974</span></td></tr></tbody></table></div>"
      },
      "extension": [ {
        "url": "http://hl7.org/fhir/us/core/StructureDefinition/us-core-race",
        "extension": [ {
          "url": "ombCategory",
          "valueCoding": {
            "system": "urn:oid:2.16.840.1.113883.6.238",
            "code": "1002-5",
            "display": "American Indian or Alaska Native",
            "userSelected": true
          }
        }, {
          "url": "text",
          "valueString": "American Indian or Alaska Native"
        } ]
      }, {
        "url": "http://hl7.org/fhir/us/core/StructureDefinition/us-core-ethnicity",
        "extension": [ {
          "url": "ombCategory",
          "valueCoding": {
            "system": "urn:oid:2.16.840.1.113883.6.238",
            "code": "2135-2",
            "display": "Hispanic or Latino",
            "userSelected": true
          }
        }, {
          "url": "text",
          "valueString": "Hispanic or Latino"
        } ]
      } ],
      "identifier": [ {
        "type": {
          "coding": [ {
            "system": "http://terminology.hl7.org/CodeSystem/v2-0203",
            "code": "MR"
          } ]
        },
        "system": "https://bonnie-fhir.healthit.gov/",
        "value": "612e6b1102c62a011f2ec4c4"
      } ],
      "active": true,
      "name": [ {
        "use": "usual",
        "family": "NUMERFail",
        "given": [ "RixDuringED_EDGT1hr1minAdm" ]
      } ],
      "gender": "male",
      "birthDate": "1975-01-02"
    },
    "request": {
      "method": "PUT",
      "url": "Patient/4b739978-837b-4de8-a137-6388cfce6a5f"
    }
  }, {
    "fullUrl": "https://madie.cms.gov/Encounter/d68def5e-35e5-4846-9e93-e5bd0fa2cb70",
    "resource": {
      "resourceType": "Encounter",
      "id": "d68def5e-35e5-4846-9e93-e5bd0fa2cb70",
      "meta": {
        "profile": [ "http://hl7.org/fhir/us/qicore/StructureDefinition/qicore-encounter" ]
      },
      "status": "finished",
      "class": {
        "system": "http://terminology.hl7.org/CodeSystem/v3-ActCode",
        "code": "IMP",
        "display": "inpatient encounter"
      },
      "type": [ {
        "coding": [ {
          "system": "http://snomed.info/sct",
          "code": "8715000"
        } ]
      } ],
      "subject": {
        "reference": "Patient/4b739978-837b-4de8-a137-6388cfce6a5f"
      },
      "period": {
        "start": "2026-11-01T08:00:00.000+00:00",
        "end": "2026-11-26T08:15:00.000+00:00"
      },
      "length": {
        "value": 25,
        "unit": "days"
      }
    },
    "request": {
      "method": "PUT",
      "url": "Encounter/d68def5e-35e5-4846-9e93-e5bd0fa2cb70"
    }
  }, {
    "fullUrl": "https://madie.cms.gov/Encounter/00ba17d9-9e7b-4238-9259-587b5e952f2b",
    "resource": {
      "resourceType": "Encounter",
      "id": "00ba17d9-9e7b-4238-9259-587b5e952f2b",
      "meta": {
        "profile": [ "http://hl7.org/fhir/us/qicore/StructureDefinition/qicore-encounter" ]
      },
      "status": "finished",
      "class": {
        "system": "http://terminology.hl7.org/CodeSystem/v3-ActCode",
        "code": "EMER",
        "display": "emergency"
      },
      "type": [ {
        "coding": [ {
          "system": "http://snomed.info/sct",
          "code": "4525004"
        } ]
      } ],
      "subject": {
        "reference": "Patient/4b739978-837b-4de8-a137-6388cfce6a5f"
      },
      "period": {
        "start": "2026-10-31T20:00:00.000+00:00",
        "end": "2026-11-01T06:59:00.000+00:00"
      }
    },
    "request": {
      "method": "PUT",
      "url": "Encounter/00ba17d9-9e7b-4238-9259-587b5e952f2b"
    }
  }, {
    "fullUrl": "https://madie.cms.gov/Coverage/f4aa9c77-b8da-422b-a444-a41f4b1b595c",
    "resource": {
      "resourceType": "Coverage",
      "id": "f4aa9c77-b8da-422b-a444-a41f4b1b595c",
      "status": "active",
      "beneficiary": {
        "reference": "Patient/4b739978-837b-4de8-a137-6388cfce6a5f"
      },
      "period": {
        "start": "1975-01-02T08:00:00.000+00:00"
      },
      "payor": [ {
        "reference": "Organization/f0140ae3-cf26-47b8-9f84-f64ed3cddfaf"
      } ]
    },
    "request": {
      "method": "PUT",
      "url": "Coverage/f4aa9c77-b8da-422b-a444-a41f4b1b595c"
    }
  }, {
    "fullUrl": "https://madie.cms.gov/MedicationAdministration/a47d8e76-79a8-44d3-896a-db386def2383",
    "resource": {
      "resourceType": "MedicationAdministration",
      "id": "a47d8e76-79a8-44d3-896a-db386def2383",
      "meta": {
        "profile": [ "http://hl7.org/fhir/us/qicore/StructureDefinition/qicore-medicationadministration" ]
      },
      "status": "completed",
      "medicationCodeableConcept": {
        "coding": [ {
          "system": "http://www.nlm.nih.gov/research/umls/rxnorm",
          "code": "1114198"
        } ]
      },
      "subject": {
        "reference": "Patient/4b739978-837b-4de8-a137-6388cfce6a5f"
      },
      "effectivePeriod": {
        "start": "2026-10-31T09:00:00.000+00:00",
        "end": "2026-10-31T09:15:00.000+00:00"
      }
    },
    "request": {
      "method": "PUT",
      "url": "MedicationAdministration/a47d8e76-79a8-44d3-896a-db386def2383"
    }
  }, {
    "fullUrl": "https://madie.cms.gov/Organization/f0140ae3-cf26-47b8-9f84-f64ed3cddfaf",
    "resource": {
      "resourceType": "Organization",
      "id": "f0140ae3-cf26-47b8-9f84-f64ed3cddfaf",
      "meta": {
        "profile": [ "http://hl7.org/fhir/us/qicore/StructureDefinition/qicore-organization" ]
      },
      "identifier": [ {
        "use": "temp",
        "system": "urn:oid:2.16.840.1.113883.4.4",
        "value": "21-3259825"
      } ],
      "active": true,
      "type": [ {
        "coding": [ {
          "system": "http://terminology.hl7.org/CodeSystem/organization-type",
          "code": "pay",
          "display": "Payer"
        } ]
      } ],
      "name": "Blue Cross Blue Shield of Texas",
      "telecom": [ {
        "system": "phone",
        "value": "(+1) 972-766-6900"
      } ],
      "address": [ {
        "use": "billing",
        "type": "postal",
        "line": [ "P.O. Box 660044" ],
        "city": "Dallas",
        "state": "TX",
        "postalCode": "75266-0044",
        "country": "USA"
      } ]
    },
    "request": {
      "method": "PUT",
      "url": "Organization/f0140ae3-cf26-47b8-9f84-f64ed3cddfaf"
    }
  }, {
    "fullUrl": "https://madie.cms.gov/Practitioner/bb3a4855-cc9d-4c0a-9f1a-f7ec0fc2c1be",
    "resource": {
      "resourceType": "Practitioner",
      "id": "bb3a4855-cc9d-4c0a-9f1a-f7ec0fc2c1be",
      "identifier": [ {
        "system": "http://hl7.org/fhir/sid/us-npi",
        "value": "123456"
      } ],
      "name": [ {
        "family": "Evil",
        "prefix": [ "Dr" ]
      } ]
    },
    "request": {
      "method": "PUT",
      "url": "Practitioner/bb3a4855-cc9d-4c0a-9f1a-f7ec0fc2c1be"
    }
  }, {
    "fullUrl": "https://madie.cms.gov/MeasureReport/af360d09-9e9f-4e9b-b7a5-e1cdd8a1b5c3",
    "resource": {
      "resourceType": "MeasureReport",
      "id": "af360d09-9e9f-4e9b-b7a5-e1cdd8a1b5c3",
      "meta": {
        "profile": [ "http://hl7.org/fhir/us/cqfmeasures/StructureDefinition/test-case-cqfm" ]
      },
      "contained": [ {
        "resourceType": "Parameters",
        "id": "cf4ed762-e39a-445e-ae37-3a6f5f85ac12-parameters",
        "parameter": [ {
          "name": "subject",
          "valueString": "4b739978-837b-4de8-a137-6388cfce6a5f"
        } ]
      } ],
      "extension": [ {
        "url": "http://hl7.org/fhir/StructureDefinition/cqf-inputParameters",
        "valueReference": {
          "reference": "#cf4ed762-e39a-445e-ae37-3a6f5f85ac12-parameters"
        }
      }, {
        "url": "http://hl7.org/fhir/us/cqfmeasures/StructureDefinition/cqfm-testCaseDescription",
        "valueMarkdown": "Rivaroxaban  for VTE Prophylaxis Med Administered during ED which ED >1 hr ends Adm\n"
      } ],
      "modifierExtension": [ {
        "url": "http://hl7.org/fhir/us/cqfmeasures/StructureDefinition/cqfm-isTestCase",
        "valueBoolean": true
      } ],
      "status": "complete",
      "type": "individual",
      "measure": "https://madie.cms.gov/Measure/CMS108FHIRVTEProphylaxis",
      "period": {
        "start": "2026-01-01",
        "end": "2026-12-31"
      },
      "group": [ {
        "id": "Group_1",
        "population": [ {
          "id": "InitialPopulation_1",
          "code": {
            "coding": [ {
              "system": "http://terminology.hl7.org/CodeSystem/measure-population",
              "code": "initial-population",
              "display": "Initial Population"
            } ]
          },
          "count": 1
        }, {
          "id": "Denominator_1",
          "code": {
            "coding": [ {
              "system": "http://terminology.hl7.org/CodeSystem/measure-population",
              "code": "denominator",
              "display": "Denominator"
            } ]
          },
          "count": 1
        }, {
          "id": "DenominatorExclusion_1",
          "code": {
            "coding": [ {
              "system": "http://terminology.hl7.org/CodeSystem/measure-population",
              "code": "denominator-exclusion",
              "display": "Denominator Exclusion"
            } ]
          },
          "count": 0
        }, {
          "id": "Numerator_1",
          "code": {
            "coding": [ {
              "system": "http://terminology.hl7.org/CodeSystem/measure-population",
              "code": "numerator",
              "display": "Numerator"
            } ]
          },
          "count": 0
        } ],
        "measureScore": {
          "value": 0.0
        }
      } ],
      "evaluatedResource": [ {
        "reference": "Patient/4b739978-837b-4de8-a137-6388cfce6a5f"
      }, {
        "reference": "Encounter/d68def5e-35e5-4846-9e93-e5bd0fa2cb70"
      }, {
        "reference": "Encounter/00ba17d9-9e7b-4238-9259-587b5e952f2b"
      }, {
        "reference": "Coverage/f4aa9c77-b8da-422b-a444-a41f4b1b595c"
      }, {
        "reference": "MedicationAdministration/a47d8e76-79a8-44d3-896a-db386def2383"
      }, {
        "reference": "Organization/f0140ae3-cf26-47b8-9f84-f64ed3cddfaf"
      }, {
        "reference": "Practitioner/bb3a4855-cc9d-4c0a-9f1a-f7ec0fc2c1be"
      } ]
    },
    "request": {
      "method": "PUT",
      "url": "MeasureReport/af360d09-9e9f-4e9b-b7a5-e1cdd8a1b5c3"
    }
  } ]
}