{
  "resourceType": "Bundle",
  "id": "6298e96c5c5f0f80c3806878",
  "type": "collection",
  "entry": [ {
    "fullUrl": "https://madie.cms.gov/Patient/24a5102c-7e6e-4ec6-8433-737b0fe8c854",
    "resource": {
      "resourceType": "Patient",
      "id": "24a5102c-7e6e-4ec6-8433-737b0fe8c854",
      "meta": {
        "profile": [ "http://hl7.org/fhir/us/qicore/StructureDefinition/qicore-patient" ]
      },
      "extension": [ {
        "url": "http://hl7.org/fhir/us/core/StructureDefinition/us-core-race",
        "extension": [ {
          "url": "ombCategory",
          "valueCoding": {
            "system": "urn:oid:2.16.840.1.113883.6.238",
            "code": "1002-5",
            "display": "American Indian or Alaska Native",
            "userSelected": true
          }
        }, {
          "url": "text",
          "valueString": "American Indian or Alaska Native"
        } ]
      }, {
        "url": "http://hl7.org/fhir/us/core/StructureDefinition/us-core-ethnicity",
        "extension": [ {
          "url": "ombCategory",
          "valueCoding": {
            "system": "urn:oid:2.16.840.1.113883.6.238",
            "code": "2135-2",
            "display": "Hispanic or Latino",
            "userSelected": true
          }
        }, {
          "url": "text",
          "valueString": "Hispanic or Latino"
        } ]
      } ],
      "identifier": [ {
        "type": {
          "coding": [ {
            "system": "http://terminology.hl7.org/CodeSystem/v2-0203",
            "code": "MR"
          } ]
        },
        "system": "https://bonnie-fhir.healthit.gov/",
        "value": "6298e96c5c5f0f80c3806878"
      } ],
      "name": [ {
        "family": "DENOMFail",
        "given": [ "LastGleasonOf3HighBefore1stTreatment" ]
      } ],
      "gender": "male",
      "birthDate": "1980-12-31"
    }
  }, {
    "fullUrl": "https://madie.cms.gov/Condition/ea5dfdf7-9ca8-4f81-92f5-237b72eb1f5b",
    "resource": {
      "resourceType": "Condition",
      "id": "ea5dfdf7-9ca8-4f81-92f5-237b72eb1f5b",
      "meta": {
        "profile": [ "http://hl7.org/fhir/us/qicore/StructureDefinition/qicore-condition-problems-health-concerns" ]
      },
      "clinicalStatus": {
        "coding": [ {
          "system": "http://terminology.hl7.org/CodeSystem/condition-clinical",
          "code": "active",
          "display": "active",
          "userSelected": true
        } ]
      },
      "category": [ {
        "coding": [ {
          "system": "http://terminology.hl7.org/CodeSystem/condition-category",
          "code": "problem-list-item",
          "display": "Problem List Item"
        }, {
          "system": "http://snomed.info/sct",
          "code": "439401001",
          "display": "Diagnosis"
        } ]
      } ],
      "code": {
        "coding": [ {
          "system": "http://snomed.info/sct",
          "code": "254900004",
          "display": "Carcinoma of prostate (disorder)",
          "userSelected": true
        } ]
      },
      "subject": {
        "reference": "Patient/24a5102c-7e6e-4ec6-8433-737b0fe8c854"
      },
      "onsetPeriod": {
        "start": "2008-06-14T08:00:00.000+00:00"
      }
    }
  }, {
    "fullUrl": "https://madie.cms.gov/Procedure/dc3e7faa-248d-4371-b367-ef7555e30149",
    "resource": {
      "resourceType": "Procedure",
      "id": "dc3e7faa-248d-4371-b367-ef7555e30149",
      "meta": {
        "profile": [ "http://hl7.org/fhir/us/qicore/StructureDefinition/qicore-procedure" ]
      },
      "extension": [ {
        "url": "http://hl7.org/fhir/us/qicore/StructureDefinition/qicore-recorded",
        "valueDateTime": "2026-02-01T09:00:00.000+00:00"
      } ],
      "status": "completed",
      "code": {
        "coding": [ {
          "system": "http://snomed.info/sct",
          "code": "38915000",
          "display": "Radionuclide therapy for gland ablation (procedure)",
          "userSelected": true
        } ]
      },
      "subject": {
        "reference": "Patient/24a5102c-7e6e-4ec6-8433-737b0fe8c854"
      },
      "performedDateTime": "2026-04-28T08:00:00.000+00:00"
    }
  }, {
    "fullUrl": "https://madie.cms.gov/Observation/e4412dcb-d943-4fe3-b561-e54be87c5348",
    "resource": {
      "resourceType": "Observation",
      "id": "e4412dcb-d943-4fe3-b561-e54be87c5348",
      "meta": {
        "profile": [ "http://hl7.org/fhir/us/qicore/StructureDefinition/qicore-observation-lab" ]
      },
      "status": "final",
      "category": [ {
        "coding": [ {
          "system": "http://terminology.hl7.org/CodeSystem/observation-category",
          "code": "laboratory",
          "display": "Laboratory"
        } ]
      } ],
      "code": {
        "coding": [ {
          "system": "http://loinc.org",
          "version": "2.72",
          "code": "10508-0",
          "display": "Prostate specific Ag [Presence] in Tissue by Immune stain",
          "userSelected": true
        } ]
      },
      "subject": {
        "reference": "Patient/24a5102c-7e6e-4ec6-8433-737b0fe8c854"
      },
      "effectiveDateTime": "2026-04-24T08:00:00.000+00:00",
      "valueQuantity": {
        "value": 8.0,
        "system": "http://unitsofmeasure.org",
        "code": "ng/mL"
      }
    }
  }, {
    "fullUrl": "https://madie.cms.gov/Observation/c9874259-46cf-4043-8bcb-4891c7810651",
    "resource": {
      "resourceType": "Observation",
      "id": "c9874259-46cf-4043-8bcb-4891c7810651",
      "meta": {
        "profile": [ "http://hl7.org/fhir/us/qicore/StructureDefinition/qicore-observation-clinical-result" ]
      },
      "status": "final",
      "category": [ {
        "coding": [ {
          "system": "http://terminology.hl7.org/CodeSystem/observation-category",
          "code": "procedure",
          "display": "Procedure"
        } ]
      } ],
      "code": {
        "coding": [ {
          "system": "http://loinc.org",
          "code": "35266-6",
          "display": "Gleason score in Specimen Qualitative",
          "userSelected": true
        } ]
      },
      "subject": {
        "reference": "Patient/24a5102c-7e6e-4ec6-8433-737b0fe8c854"
      },
      "effectiveDateTime": "2026-01-02T08:00:00.000+00:00",
      "valueInteger": 10
    }
  }, {
    "fullUrl": "https://madie.cms.gov/Observation/7ec67692-0757-4aa2-8b8e-af994aec6c0e",
    "resource": {
      "resourceType": "Observation",
      "id": "7ec67692-0757-4aa2-8b8e-af994aec6c0e",
      "meta": {
        "profile": [ "http://hl7.org/fhir/us/qicore/StructureDefinition/qicore-observation-clinical-result" ]
      },
      "status": "corrected",
      "category": [ {
        "coding": [ {
          "system": "http://terminology.hl7.org/CodeSystem/observation-category",
          "code": "procedure",
          "display": "Procedure"
        } ]
      } ],
      "code": {
        "coding": [ {
          "system": "http://loinc.org",
          "code": "35266-6",
          "display": "Gleason score in Specimen Qualitative",
          "userSelected": true
        } ]
      },
      "subject": {
        "reference": "Patient/24a5102c-7e6e-4ec6-8433-737b0fe8c854"
      },
      "effectiveDateTime": "2026-04-02T08:00:00.000+00:00",
      "valueInteger": 4
    }
  }, {
    "fullUrl": "https://madie.cms.gov/Observation/6c67cd20-708a-4842-8d01-788c29394c03",
    "resource": {
      "resourceType": "Observation",
      "id": "6c67cd20-708a-4842-8d01-788c29394c03",
      "meta": {
        "profile": [ "http://hl7.org/fhir/us/qicore/StructureDefinition/qicore-observation-clinical-result" ]
      },
      "status": "amended",
      "category": [ {
        "coding": [ {
          "system": "http://terminology.hl7.org/CodeSystem/observation-category",
          "code": "procedure",
          "display": "Procedure"
        } ]
      } ],
      "code": {
        "coding": [ {
          "system": "http://loinc.org",
          "code": "35266-6",
          "display": "Gleason score in Specimen Qualitative",
          "userSelected": true
        } ]
      },
      "subject": {
        "reference": "Patient/24a5102c-7e6e-4ec6-8433-737b0fe8c854"
      },
      "effectiveDateTime": "2026-04-27T08:00:00.000+00:00",
      "valueInteger": 7
    }
  }, {
    "fullUrl": "https://madie.cms.gov/Observation/cf7494c0-4f21-496a-9a6f-4fc22aab336a",
    "resource": {
      "resourceType": "Observation",
      "id": "cf7494c0-4f21-496a-9a6f-4fc22aab336a",
      "meta": {
        "profile": [ "http://hl7.org/fhir/us/qicore/StructureDefinition/qicore-observation-clinical-result" ]
      },
      "status": "amended",
      "category": [ {
        "coding": [ {
          "system": "http://terminology.hl7.org/CodeSystem/observation-category",
          "code": "procedure",
          "display": "Procedure"
        } ]
      } ],
      "code": {
        "coding": [ {
          "system": "http://snomed.info/sct",
          "code": "254292007",
          "display": "Tumor staging (tumor staging)",
          "userSelected": true
        } ]
      },
      "subject": {
        "reference": "Patient/24a5102c-7e6e-4ec6-8433-737b0fe8c854"
      },
      "effectiveDateTime": "2026-04-26T08:00:00.000+00:00",
      "valueCodeableConcept": {
        "coding": [ {
          "system": "http://snomed.info/sct",
          "code": "1228931008",
          "display": "American Joint Committee on Cancer cT2a (qualifier value)",
          "userSelected": true
        } ]
      }
    }
  }, {
    "fullUrl": "https://madie.cms.gov/Observation/43caec94-1e76-487d-b55e-9f695eaa2607",
    "resource": {
      "resourceType": "Observation",
      "id": "43caec94-1e76-487d-b55e-9f695eaa2607",
      "meta": {
        "profile": [ "http://hl7.org/fhir/us/qicore/StructureDefinition/qicore-observation-clinical-result" ]
      },
      "status": "final",
      "category": [ {
        "coding": [ {
          "system": "http://terminology.hl7.org/CodeSystem/observation-category",
          "code": "procedure",
          "display": "Procedure"
        } ]
      } ],
      "code": {
        "coding": [ {
          "system": "http://loinc.org",
          "version": "2.72",
          "code": "25031-6",
          "display": "NM Bone Views",
          "userSelected": true
        } ]
      },
      "subject": {
        "reference": "Patient/24a5102c-7e6e-4ec6-8433-737b0fe8c854"
      },
      "effectiveDateTime": "2026-08-17T08:00:00.000+00:00",
      "issued": "2026-08-17T08:00:00.000+00:00",
      "valueString": "Normal results found"
    }
  }, {
    "fullUrl": "https://madie.cms.gov/Coverage/8474b949-dedf-425c-8158-3a8ac150a2e2",
    "resource": {
      "resourceType": "Coverage",
      "id": "8474b949-dedf-425c-8158-3a8ac150a2e2",
      "meta": {
        "profile": [ "http://hl7.org/fhir/us/qicore/StructureDefinition/qicore-coverage" ]
      },
      "status": "active",
      "subscriberId": "123456789",
      "beneficiary": {
        "reference": "Patient/24a5102c-7e6e-4ec6-8433-737b0fe8c854"
      },
      "relationship": {
        "coding": [ {
          "system": "http://terminology.hl7.org/CodeSystem/subscriber-relationship",
          "code": "self",
          "display": "Self",
          "userSelected": true
        } ]
      },
      "payor": [ {
        "reference": "Organization/ba49de3a-d18c-4af5-a1e5-bf93f76b40b0"
      } ]
    }
  }, {
    "fullUrl": "https://madie.cms.gov/Organization/ba49de3a-d18c-4af5-a1e5-bf93f76b40b0",
    "resource": {
      "resourceType": "Organization",
      "id": "ba49de3a-d18c-4af5-a1e5-bf93f76b40b0",
      "meta": {
        "profile": [ "http://hl7.org/fhir/us/qicore/StructureDefinition/qicore-organization" ]
      },
      "identifier": [ {
        "use": "temp",
        "system": "urn:oid:2.16.840.1.113883.4.4",
        "value": "21-3259825"
      } ],
      "active": true,
      "type": [ {
        "coding": [ {
          "system": "http://terminology.hl7.org/CodeSystem/organization-type",
          "code": "pay",
          "display": "Payer"
        } ]
      } ],
      "name": "Blue Cross Blue Shield of Texas",
      "telecom": [ {
        "system": "phone",
        "value": "(+1) 972-766-6900"
      } ],
      "address": [ {
        "use": "billing",
        "type": "postal",
        "line": [ "P.O. Box 660044" ],
        "city": "Dallas",
        "state": "TX",
        "postalCode": "75266-0044",
        "country": "USA"
      } ]
    }
  }, {
    "fullUrl": "https://madie.cms.gov/Practitioner/1b0d016b-d3ed-490b-a954-e25d91899aef",
    "resource": {
      "resourceType": "Practitioner",
      "id": "1b0d016b-d3ed-490b-a954-e25d91899aef",
      "meta": {
        "profile": [ "http://hl7.org/fhir/us/qicore/StructureDefinition/qicore-practitioner" ]
      },
      "identifier": [ {
        "system": "http://hl7.org/fhir/sid/us-npi",
        "value": "1234567893"
      } ],
      "name": [ {
        "family": "Evil",
        "prefix": [ "Dr" ]
      } ]
    }
  }, {
    "fullUrl": "https://madie.cms.gov/MeasureReport/ec44203b-8d8c-48be-832a-6893e4da9ab9",
    "resource": {
      "resourceType": "MeasureReport",
      "id": "ec44203b-8d8c-48be-832a-6893e4da9ab9",
      "meta": {
        "profile": [ "http://hl7.org/fhir/us/cqfmeasures/StructureDefinition/test-case-cqfm" ]
      },
      "contained": [ {
        "resourceType": "Parameters",
        "id": "22f7a5f8-2bff-4ec1-afd1-86b65f9f75a9-parameters",
        "parameter": [ {
          "name": "subject",
          "valueString": "24a5102c-7e6e-4ec6-8433-737b0fe8c854"
        } ]
      } ],
      "extension": [ {
        "url": "http://hl7.org/fhir/StructureDefinition/cqf-inputParameters",
        "valueReference": {
          "reference": "#22f7a5f8-2bff-4ec1-afd1-86b65f9f75a9-parameters"
        }
      }, {
        "url": "http://hl7.org/fhir/us/cqfmeasures/StructureDefinition/cqfm-testCaseDescription",
        "valueMarkdown": "1st Gleason high, 2nd Gleason low, 3rd Gleason high before 1st treatment =fail\n"
      } ],
      "modifierExtension": [ {
        "url": "http://hl7.org/fhir/us/cqfmeasures/StructureDefinition/cqfm-isTestCase",
        "valueBoolean": true
      } ],
      "status": "complete",
      "type": "individual",
      "measure": "https://madie.cms.gov/Measure/CMS129FHIRProstCaBoneScanUse",
      "period": {
        "start": "2026-01-01",
        "end": "2026-12-31"
      },
      "group": [ {
        "id": "Group_1",
        "population": [ {
          "id": "InitialPopulation_1",
          "code": {
            "coding": [ {
              "system": "http://terminology.hl7.org/CodeSystem/measure-population",
              "code": "initial-population",
              "display": "Initial Population"
            } ]
          },
          "count": 1
        }, {
          "id": "Denominator_1",
          "code": {
            "coding": [ {
              "system": "http://terminology.hl7.org/CodeSystem/measure-population",
              "code": "denominator",
              "display": "Denominator"
            } ]
          },
          "count": 0
        }, {
          "id": "Numerator_1",
          "code": {
            "coding": [ {
              "system": "http://terminology.hl7.org/CodeSystem/measure-population",
              "code": "numerator",
              "display": "Numerator"
            } ]
          },
          "count": 0
        }, {
          "id": "DenominatorException_1",
          "code": {
            "coding": [ {
              "system": "http://terminology.hl7.org/CodeSystem/measure-population",
              "code": "denominator-exception",
              "display": "Denominator Exception"
            } ]
          },
          "count": 0
        } ],
        "measureScore": {
          "value": 1.0
        }
      } ],
      "evaluatedResource": [ {
        "reference": "Patient/24a5102c-7e6e-4ec6-8433-737b0fe8c854"
      }, {
        "reference": "Condition/ea5dfdf7-9ca8-4f81-92f5-237b72eb1f5b"
      }, {
        "reference": "Procedure/dc3e7faa-248d-4371-b367-ef7555e30149"
      }, {
        "reference": "Observation/e4412dcb-d943-4fe3-b561-e54be87c5348"
      }, {
        "reference": "Observation/c9874259-46cf-4043-8bcb-4891c7810651"
      }, {
        "reference": "Observation/7ec67692-0757-4aa2-8b8e-af994aec6c0e"
      }, {
        "reference": "Observation/6c67cd20-708a-4842-8d01-788c29394c03"
      }, {
        "reference": "Observation/cf7494c0-4f21-496a-9a6f-4fc22aab336a"
      }, {
        "reference": "Observation/43caec94-1e76-487d-b55e-9f695eaa2607"
      }, {
        "reference": "Coverage/8474b949-dedf-425c-8158-3a8ac150a2e2"
      }, {
        "reference": "Organization/ba49de3a-d18c-4af5-a1e5-bf93f76b40b0"
      }, {
        "reference": "Practitioner/1b0d016b-d3ed-490b-a954-e25d91899aef"
      } ]
    }
  } ]
}