{
  "resourceType": "Bundle",
  "id": "612e6e7e02c62a011f2ee96c",
  "type": "transaction",
  "entry": [ {
    "fullUrl": "https://madie.cms.gov/Patient/6eba9c05-05eb-4337-811b-f5303159919f",
    "resource": {
      "resourceType": "Patient",
      "id": "6eba9c05-05eb-4337-811b-f5303159919f",
      "meta": {
        "profile": [ "http://hl7.org/fhir/us/qicore/StructureDefinition/qicore-patient" ]
      },
      "text": {
        "status": "generated",
        "div": "<div xmlns=\"http://www.w3.org/1999/xhtml\"><div class=\"hapiHeaderText\">ComfortMeasuresOnICUAfterAnes <b>DENEXPASS </b></div><table class=\"hapiPropertyTable\"><tbody><tr><td>Identifier</td><td>41ae90b5ce0802ca16fefff2109852a5</td></tr><tr><td>Date of birth</td><td><span>23 July 1947</span></td></tr></tbody></table></div>"
      },
      "extension": [ {
        "url": "http://hl7.org/fhir/us/core/StructureDefinition/us-core-race",
        "extension": [ {
          "url": "ombCategory",
          "valueCoding": {
            "system": "urn:oid:2.16.840.1.113883.6.238",
            "code": "1002-5",
            "display": "American Indian or Alaska Native",
            "userSelected": true
          }
        }, {
          "url": "text",
          "valueString": "American Indian or Alaska Native"
        } ]
      }, {
        "url": "http://hl7.org/fhir/us/core/StructureDefinition/us-core-ethnicity",
        "extension": [ {
          "url": "ombCategory",
          "valueCoding": {
            "system": "urn:oid:2.16.840.1.113883.6.238",
            "code": "2135-2",
            "display": "Hispanic or Latino",
            "userSelected": true
          }
        }, {
          "url": "text",
          "valueString": "Hispanic or Latino"
        } ]
      } ],
      "identifier": [ {
        "type": {
          "coding": [ {
            "system": "http://terminology.hl7.org/CodeSystem/v2-0203",
            "code": "MR"
          } ]
        },
        "system": "https://bonnie-fhir.healthit.gov/",
        "value": "612e6e7e02c62a011f2ee96c"
      } ],
      "active": true,
      "name": [ {
        "use": "usual",
        "family": "DENEXPass",
        "given": [ "ComfortMeasuresOnICUAfterAnes" ]
      } ],
      "gender": "female",
      "birthDate": "1948-07-23"
    },
    "request": {
      "method": "PUT",
      "url": "Patient/6eba9c05-05eb-4337-811b-f5303159919f"
    }
  }, {
    "fullUrl": "https://madie.cms.gov/Encounter/6661d267-f5dd-47e8-be2b-213b9abd94b9",
    "resource": {
      "resourceType": "Encounter",
      "id": "6661d267-f5dd-47e8-be2b-213b9abd94b9",
      "meta": {
        "profile": [ "http://hl7.org/fhir/us/qicore/StructureDefinition/qicore-encounter" ]
      },
      "status": "finished",
      "class": {
        "system": "http://terminology.hl7.org/CodeSystem/v3-ActCode",
        "code": "IMP",
        "display": "inpatient encounter"
      },
      "type": [ {
        "coding": [ {
          "system": "http://snomed.info/sct",
          "code": "8715000"
        } ]
      } ],
      "subject": {
        "reference": "Patient/6eba9c05-05eb-4337-811b-f5303159919f"
      },
      "period": {
        "start": "2026-12-04T08:00:00.000+00:00",
        "end": "2026-12-30T08:15:00.000+00:00"
      },
      "length": {
        "value": 26.0,
        "unit": "days"
      },
      "location": [ {
        "location": {
          "reference": "Location/a827e82f-5d49-4612-90e9-dd405365c88b"
        },
        "period": {
          "start": "2026-12-06T08:00:00.000+00:00",
          "end": "2026-12-12T08:12:00.000+00:00"
        }
      } ]
    },
    "request": {
      "method": "PUT",
      "url": "Encounter/6661d267-f5dd-47e8-be2b-213b9abd94b9"
    }
  }, {
    "fullUrl": "https://madie.cms.gov/ServiceRequest/1604b7b3-7c4b-4678-85e7-c5a7c1aadf4e",
    "resource": {
      "resourceType": "ServiceRequest",
      "id": "1604b7b3-7c4b-4678-85e7-c5a7c1aadf4e",
      "meta": {
        "profile": [ "http://hl7.org/fhir/us/qicore/StructureDefinition/qicore-servicerequest" ]
      },
      "status": "completed",
      "intent": "order",
      "code": {
        "coding": [ {
          "system": "http://snomed.info/sct",
          "code": "133918004"
        } ]
      },
      "subject": {
        "reference": "Patient/6eba9c05-05eb-4337-811b-f5303159919f"
      },
      "authoredOn": "2026-12-06T11:30:00.000+00:00"
    },
    "request": {
      "method": "PUT",
      "url": "ServiceRequest/1604b7b3-7c4b-4678-85e7-c5a7c1aadf4e"
    }
  }, {
    "fullUrl": "https://madie.cms.gov/Coverage/38610178-2b8d-440c-9316-f89cb4284d7f",
    "resource": {
      "resourceType": "Coverage",
      "id": "38610178-2b8d-440c-9316-f89cb4284d7f",
      "status": "active",
      "beneficiary": {
        "reference": "Patient/6eba9c05-05eb-4337-811b-f5303159919f"
      },
      "period": {
        "start": "1975-03-03T08:00:00.000+00:00"
      },
      "payor": [ {
        "reference": "Organization/768e858d-376e-4227-b33c-e76a2fa8df7e"
      } ]
    },
    "request": {
      "method": "PUT",
      "url": "Coverage/38610178-2b8d-440c-9316-f89cb4284d7f"
    }
  }, {
    "fullUrl": "https://madie.cms.gov/Procedure/a3249112-a982-4e7c-a98c-cb74a4c2d209",
    "resource": {
      "resourceType": "Procedure",
      "id": "a3249112-a982-4e7c-a98c-cb74a4c2d209",
      "meta": {
        "profile": [ "http://hl7.org/fhir/us/qicore/StructureDefinition/qicore-procedure" ]
      },
      "extension": [ {
        "url": "http://hl7.org/fhir/us/qicore/StructureDefinition/qicore-recorded",
        "valueDateTime": "2013-12-04T13:35:00.000+00:00"
      } ],
      "status": "completed",
      "code": {
        "coding": [ {
          "system": "http://www.cms.gov/Medicare/Coding/ICD10",
          "code": "3E030FZ"
        } ]
      },
      "subject": {
        "reference": "Patient/6eba9c05-05eb-4337-811b-f5303159919f"
      },
      "performedPeriod": {
        "start": "2026-12-04T11:00:00.000+00:00",
        "end": "2026-12-06T11:15:00.000+00:00"
      }
    },
    "request": {
      "method": "PUT",
      "url": "Procedure/a3249112-a982-4e7c-a98c-cb74a4c2d209"
    }
  }, {
    "fullUrl": "https://madie.cms.gov/Location/a827e82f-5d49-4612-90e9-dd405365c88b",
    "resource": {
      "resourceType": "Location",
      "id": "a827e82f-5d49-4612-90e9-dd405365c88b",
      "meta": {
        "profile": [ "http://hl7.org/fhir/us/qicore/StructureDefinition/qicore-location" ]
      },
      "identifier": [ {
        "use": "usual",
        "system": "http://exampleoflocation.com",
        "value": "B1-S.F2"
      } ],
      "name": "Medical Surgical East, first floor",
      "type": [ {
        "coding": [ {
          "system": "https://www.cdc.gov/nhsn/cdaportal/terminology/codesystem/hsloc.html",
          "code": "1025-6",
          "display": "Trauma Critical Care",
          "userSelected": true
        } ]
      } ]
    },
    "request": {
      "method": "PUT",
      "url": "Location/a827e82f-5d49-4612-90e9-dd405365c88b"
    }
  }, {
    "fullUrl": "https://madie.cms.gov/Organization/768e858d-376e-4227-b33c-e76a2fa8df7e",
    "resource": {
      "resourceType": "Organization",
      "id": "768e858d-376e-4227-b33c-e76a2fa8df7e",
      "meta": {
        "profile": [ "http://hl7.org/fhir/us/qicore/StructureDefinition/qicore-organization" ]
      },
      "identifier": [ {
        "use": "temp",
        "system": "urn:oid:2.16.840.1.113883.4.4",
        "value": "21-3259825"
      } ],
      "active": true,
      "type": [ {
        "coding": [ {
          "system": "http://terminology.hl7.org/CodeSystem/organization-type",
          "code": "pay",
          "display": "Payer"
        } ]
      } ],
      "name": "Blue Cross Blue Shield of Texas",
      "telecom": [ {
        "system": "phone",
        "value": "(+1) 972-766-6900"
      } ],
      "address": [ {
        "use": "billing",
        "type": "postal",
        "line": [ "P.O. Box 660044" ],
        "city": "Dallas",
        "state": "TX",
        "postalCode": "75266-0044",
        "country": "USA"
      } ]
    },
    "request": {
      "method": "PUT",
      "url": "Organization/768e858d-376e-4227-b33c-e76a2fa8df7e"
    }
  }, {
    "fullUrl": "https://madie.cms.gov/Practitioner/9d7896e8-25c4-4e3e-8ea1-1b82f54b76e6",
    "resource": {
      "resourceType": "Practitioner",
      "id": "9d7896e8-25c4-4e3e-8ea1-1b82f54b76e6",
      "identifier": [ {
        "system": "http://hl7.org/fhir/sid/us-npi",
        "value": "123456"
      } ],
      "name": [ {
        "family": "Evil",
        "prefix": [ "Dr" ]
      } ]
    },
    "request": {
      "method": "PUT",
      "url": "Practitioner/9d7896e8-25c4-4e3e-8ea1-1b82f54b76e6"
    }
  }, {
    "fullUrl": "https://madie.cms.gov/MeasureReport/56ba3b22-2986-4392-87c7-15e8e97fcf12",
    "resource": {
      "resourceType": "MeasureReport",
      "id": "56ba3b22-2986-4392-87c7-15e8e97fcf12",
      "meta": {
        "profile": [ "http://hl7.org/fhir/us/cqfmeasures/StructureDefinition/test-case-cqfm" ]
      },
      "contained": [ {
        "resourceType": "Parameters",
        "id": "1ad22efd-fc19-493d-8628-c5ace59b786a-parameters",
        "parameter": [ {
          "name": "subject",
          "valueString": "6eba9c05-05eb-4337-811b-f5303159919f"
        } ]
      } ],
      "extension": [ {
        "url": "http://hl7.org/fhir/StructureDefinition/cqf-inputParameters",
        "valueReference": {
          "reference": "#1ad22efd-fc19-493d-8628-c5ace59b786a-parameters"
        }
      }, {
        "url": "http://hl7.org/fhir/us/cqfmeasures/StructureDefinition/cqfm-testCaseDescription",
        "valueMarkdown": "comfort measures starts after end of neuraxial anesthesia and in ICU\n"
      } ],
      "modifierExtension": [ {
        "url": "http://hl7.org/fhir/us/cqfmeasures/StructureDefinition/cqfm-isTestCase",
        "valueBoolean": true
      } ],
      "status": "complete",
      "type": "individual",
      "measure": "https://madie.cms.gov/Measure/CMS190FHIRVTEProphylaxisICU",
      "period": {
        "start": "2026-01-01",
        "end": "2026-12-31"
      },
      "group": [ {
        "id": "Group_1",
        "population": [ {
          "id": "InitialPopulation_1",
          "code": {
            "coding": [ {
              "system": "http://terminology.hl7.org/CodeSystem/measure-population",
              "code": "initial-population",
              "display": "Initial Population"
            } ]
          },
          "count": 1
        }, {
          "id": "Denominator_1",
          "code": {
            "coding": [ {
              "system": "http://terminology.hl7.org/CodeSystem/measure-population",
              "code": "denominator",
              "display": "Denominator"
            } ]
          },
          "count": 1
        }, {
          "id": "DenominatorExclusion_1",
          "code": {
            "coding": [ {
              "system": "http://terminology.hl7.org/CodeSystem/measure-population",
              "code": "denominator-exclusion",
              "display": "Denominator Exclusion"
            } ]
          },
          "count": 1
        }, {
          "id": "Numerator_1",
          "code": {
            "coding": [ {
              "system": "http://terminology.hl7.org/CodeSystem/measure-population",
              "code": "numerator",
              "display": "Numerator"
            } ]
          },
          "count": 0
        }, {
          "id": "DenominatorException_1",
          "code": {
            "coding": [ {
              "system": "http://terminology.hl7.org/CodeSystem/measure-population",
              "code": "denominator-exception",
              "display": "Denominator Exception"
            } ]
          },
          "count": 0
        } ],
        "measureScore": {
          "value": 0.0
        }
      } ],
      "evaluatedResource": [ {
        "reference": "Patient/6eba9c05-05eb-4337-811b-f5303159919f"
      }, {
        "reference": "Encounter/6661d267-f5dd-47e8-be2b-213b9abd94b9"
      }, {
        "reference": "ServiceRequest/1604b7b3-7c4b-4678-85e7-c5a7c1aadf4e"
      }, {
        "reference": "Coverage/38610178-2b8d-440c-9316-f89cb4284d7f"
      }, {
        "reference": "Procedure/a3249112-a982-4e7c-a98c-cb74a4c2d209"
      }, {
        "reference": "Location/a827e82f-5d49-4612-90e9-dd405365c88b"
      }, {
        "reference": "Organization/768e858d-376e-4227-b33c-e76a2fa8df7e"
      }, {
        "reference": "Practitioner/9d7896e8-25c4-4e3e-8ea1-1b82f54b76e6"
      } ]
    },
    "request": {
      "method": "PUT",
      "url": "MeasureReport/56ba3b22-2986-4392-87c7-15e8e97fcf12"
    }
  } ]
}