{
  "resourceType": "Bundle",
  "id": "62cc347a67cd2f796b838aaf",
  "type": "collection",
  "entry": [ {
    "fullUrl": "https://madie.cms.gov/Patient/747b1de3-7e95-46b4-add2-29377e45cc4f",
    "resource": {
      "resourceType": "Patient",
      "id": "747b1de3-7e95-46b4-add2-29377e45cc4f",
      "meta": {
        "profile": [ "http://hl7.org/fhir/us/qicore/StructureDefinition/qicore-patient" ]
      },
      "extension": [ {
        "url": "http://hl7.org/fhir/us/core/StructureDefinition/us-core-race",
        "extension": [ {
          "url": "ombCategory",
          "valueCoding": {
            "system": "urn:oid:2.16.840.1.113883.6.238",
            "code": "2076-8",
            "display": "Native Hawaiian or Other Pacific Islander",
            "userSelected": true
          }
        }, {
          "url": "text",
          "valueString": "Native Hawaiian or Other Pacific Islander"
        } ]
      }, {
        "url": "http://hl7.org/fhir/us/core/StructureDefinition/us-core-ethnicity",
        "extension": [ {
          "url": "ombCategory",
          "valueCoding": {
            "system": "urn:oid:2.16.840.1.113883.6.238",
            "code": "2186-5",
            "display": "Not Hispanic or Latino",
            "userSelected": true
          }
        }, {
          "url": "text",
          "valueString": "Not Hispanic or Latino"
        } ]
      } ],
      "identifier": [ {
        "type": {
          "coding": [ {
            "system": "http://terminology.hl7.org/CodeSystem/v2-0203",
            "code": "MR"
          } ]
        },
        "system": "https://bonnie-fhir.healthit.gov/",
        "value": "62cc347a67cd2f796b838aaf"
      } ],
      "name": [ {
        "family": "NUMERPass",
        "given": [ "FirstHTNWeightFU" ]
      } ],
      "gender": "female",
      "birthDate": "2006-01-31"
    }
  }, {
    "fullUrl": "https://madie.cms.gov/Encounter/9cda944b-0a83-499d-8f02-42786b1dcf9f",
    "resource": {
      "resourceType": "Encounter",
      "id": "9cda944b-0a83-499d-8f02-42786b1dcf9f",
      "meta": {
        "profile": [ "http://hl7.org/fhir/us/qicore/StructureDefinition/qicore-encounter" ]
      },
      "status": "finished",
      "class": {
        "system": "http://terminology.hl7.org/CodeSystem/v3-ActCode",
        "code": "AMB",
        "display": "ambulatory"
      },
      "type": [ {
        "coding": [ {
          "system": "http://snomed.info/sct",
          "version": "2022-03",
          "code": "103705002",
          "display": "Patient status observation (procedure)",
          "userSelected": true
        } ]
      } ],
      "subject": {
        "reference": "Patient/747b1de3-7e95-46b4-add2-29377e45cc4f"
      },
      "period": {
        "start": "2026-01-01T08:00:00.000Z",
        "end": "2026-01-01T08:30:00.000Z"
      }
    }
  }, {
    "fullUrl": "https://madie.cms.gov/Observation/78ba0c16-871c-4311-9e9e-e68abbd5b992",
    "resource": {
      "resourceType": "Observation",
      "id": "78ba0c16-871c-4311-9e9e-e68abbd5b992",
      "meta": {
        "profile": [ "http://hl7.org/fhir/us/core/StructureDefinition/us-core-blood-pressure" ]
      },
      "status": "amended",
      "category": [ {
        "coding": [ {
          "system": "http://terminology.hl7.org/CodeSystem/observation-category",
          "code": "vital-signs",
          "display": "Vital Signs"
        } ],
        "text": "Vital Signs"
      } ],
      "code": {
        "coding": [ {
          "system": "http://loinc.org",
          "code": "85354-9",
          "display": "Blood pressure panel with all children optional"
        } ]
      },
      "subject": {
        "reference": "Patient/747b1de3-7e95-46b4-add2-29377e45cc4f"
      },
      "effectiveDateTime": "2026-01-01T08:01:00.000Z",
      "component": [ {
        "code": {
          "coding": [ {
            "system": "http://loinc.org",
            "code": "8480-6",
            "display": "Systolic blood pressure"
          } ]
        },
        "valueQuantity": {
          "value": 130,
          "unit": "mmHg",
          "system": "http://unitsofmeasure.org",
          "code": "mm[Hg]"
        }
      }, {
        "code": {
          "coding": [ {
            "system": "http://loinc.org",
            "code": "8462-4",
            "display": "Diastolic blood pressure"
          } ]
        },
        "valueQuantity": {
          "value": 80,
          "unit": "mmHg",
          "system": "http://unitsofmeasure.org",
          "code": "mm[Hg]"
        }
      } ]
    }
  }, {
    "fullUrl": "https://madie.cms.gov/ServiceRequest/f8911ad7-46b5-4854-85b7-6e3b5968cddf",
    "resource": {
      "resourceType": "ServiceRequest",
      "id": "f8911ad7-46b5-4854-85b7-6e3b5968cddf",
      "meta": {
        "profile": [ "http://hl7.org/fhir/us/qicore/StructureDefinition/qicore-servicerequest" ]
      },
      "status": "active",
      "intent": "order",
      "code": {
        "coding": [ {
          "system": "http://snomed.info/sct",
          "version": "2022-03",
          "code": "183617005",
          "display": "Follow-up 1 day (finding)",
          "userSelected": true
        } ]
      },
      "subject": {
        "reference": "Patient/747b1de3-7e95-46b4-add2-29377e45cc4f"
      },
      "authoredOn": "2026-01-01T08:29:00.000Z"
    }
  }, {
    "fullUrl": "https://madie.cms.gov/ServiceRequest/2f637c27-5fa1-486c-bddb-169b1d752f64",
    "resource": {
      "resourceType": "ServiceRequest",
      "id": "2f637c27-5fa1-486c-bddb-169b1d752f64",
      "meta": {
        "profile": [ "http://hl7.org/fhir/us/qicore/StructureDefinition/qicore-servicerequest" ]
      },
      "status": "active",
      "intent": "order",
      "code": {
        "coding": [ {
          "system": "http://snomed.info/sct",
          "version": "2022-03",
          "code": "1181000175107",
          "display": "Recommendation to lose weight (procedure)",
          "userSelected": true
        } ]
      },
      "subject": {
        "reference": "Patient/747b1de3-7e95-46b4-add2-29377e45cc4f"
      },
      "authoredOn": "2026-01-01T08:29:00.000Z"
    }
  }, {
    "fullUrl": "https://madie.cms.gov/Coverage/4c248d9d-98a8-44c4-ad38-9f073516abe2",
    "resource": {
      "resourceType": "Coverage",
      "id": "4c248d9d-98a8-44c4-ad38-9f073516abe2",
      "meta": {
        "profile": [ "http://hl7.org/fhir/us/qicore/StructureDefinition/qicore-coverage" ]
      },
      "status": "active",
      "subscriberId": "472013",
      "beneficiary": {
        "reference": "Patient/747b1de3-7e95-46b4-add2-29377e45cc4f"
      },
      "relationship": {
        "coding": [ {
          "system": "http://terminology.hl7.org/CodeSystem/subscriber-relationship",
          "code": "self",
          "display": "Self"
        } ]
      },
      "payor": [ {
        "reference": "Organization/0ec857b6-43ce-4a81-9812-7316b6d4c8af"
      } ]
    }
  }, {
    "fullUrl": "https://madie.cms.gov/Organization/0ec857b6-43ce-4a81-9812-7316b6d4c8af",
    "resource": {
      "resourceType": "Organization",
      "id": "0ec857b6-43ce-4a81-9812-7316b6d4c8af",
      "meta": {
        "profile": [ "http://hl7.org/fhir/us/qicore/StructureDefinition/qicore-organization" ]
      },
      "identifier": [ {
        "use": "temp",
        "system": "urn:oid:2.16.840.1.113883.4.4",
        "value": "21-3259825"
      } ],
      "active": true,
      "type": [ {
        "coding": [ {
          "system": "http://terminology.hl7.org/CodeSystem/organization-type",
          "code": "pay",
          "display": "Payer"
        } ]
      } ],
      "name": "Blue Cross Blue Shield of Texas",
      "telecom": [ {
        "system": "phone",
        "value": "(+1) 972-766-6900"
      } ],
      "address": [ {
        "use": "billing",
        "type": "postal",
        "line": [ "P.O. Box 660044" ],
        "city": "Dallas",
        "state": "TX",
        "postalCode": "75266-0044",
        "country": "USA"
      } ]
    }
  }, {
    "fullUrl": "https://madie.cms.gov/MeasureReport/f02a4caa-27ae-44a1-9927-2d3780b6d668",
    "resource": {
      "resourceType": "MeasureReport",
      "id": "f02a4caa-27ae-44a1-9927-2d3780b6d668",
      "meta": {
        "profile": [ "http://hl7.org/fhir/us/cqfmeasures/StructureDefinition/test-case-cqfm" ]
      },
      "contained": [ {
        "resourceType": "Parameters",
        "id": "ee0dff73-d353-403c-a2a7-bf26db825202-parameters",
        "parameter": [ {
          "name": "subject",
          "valueString": "747b1de3-7e95-46b4-add2-29377e45cc4f"
        } ]
      } ],
      "extension": [ {
        "url": "http://hl7.org/fhir/StructureDefinition/cqf-inputParameters",
        "valueReference": {
          "reference": "#ee0dff73-d353-403c-a2a7-bf26db825202-parameters"
        }
      }, {
        "url": "http://hl7.org/fhir/us/cqfmeasures/StructureDefinition/cqfm-testCaseDescription",
        "valueMarkdown": "Enc. 01/01 0800-0830 during MP, First HTN reading, 130/80 at 0801  (amended) with an intervention of follow up appt in 1 day authored at 0829 and recommendation to lose weight at 0829- should meet numerator criteria. "
      } ],
      "modifierExtension": [ {
        "url": "http://hl7.org/fhir/us/cqfmeasures/StructureDefinition/cqfm-isTestCase",
        "valueBoolean": true
      } ],
      "status": "complete",
      "type": "individual",
      "measure": "https://madie.cms.gov/Measure/CMS22FHIRPCSBPScreeningFollowUp",
      "period": {
        "start": "2026-01-01",
        "end": "2026-12-31"
      },
      "group": [ {
        "id": "Group_1",
        "population": [ {
          "id": "InitialPopulation_1",
          "code": {
            "coding": [ {
              "system": "http://terminology.hl7.org/CodeSystem/measure-population",
              "code": "initial-population",
              "display": "Initial Population"
            } ]
          },
          "count": 1
        }, {
          "id": "Denominator_1",
          "code": {
            "coding": [ {
              "system": "http://terminology.hl7.org/CodeSystem/measure-population",
              "code": "denominator",
              "display": "Denominator"
            } ]
          },
          "count": 1
        }, {
          "id": "DenominatorExclusion_1",
          "code": {
            "coding": [ {
              "system": "http://terminology.hl7.org/CodeSystem/measure-population",
              "code": "denominator-exclusion",
              "display": "Denominator Exclusion"
            } ]
          },
          "count": 0
        }, {
          "id": "Numerator_1",
          "code": {
            "coding": [ {
              "system": "http://terminology.hl7.org/CodeSystem/measure-population",
              "code": "numerator",
              "display": "Numerator"
            } ]
          },
          "count": 1
        }, {
          "id": "DenominatorException_1",
          "code": {
            "coding": [ {
              "system": "http://terminology.hl7.org/CodeSystem/measure-population",
              "code": "denominator-exception",
              "display": "Denominator Exception"
            } ]
          },
          "count": 0
        } ],
        "measureScore": {
          "value": 0.0
        }
      } ],
      "evaluatedResource": [ {
        "reference": "Patient/747b1de3-7e95-46b4-add2-29377e45cc4f"
      }, {
        "reference": "Encounter/9cda944b-0a83-499d-8f02-42786b1dcf9f"
      }, {
        "reference": "Observation/78ba0c16-871c-4311-9e9e-e68abbd5b992"
      }, {
        "reference": "ServiceRequest/f8911ad7-46b5-4854-85b7-6e3b5968cddf"
      }, {
        "reference": "ServiceRequest/2f637c27-5fa1-486c-bddb-169b1d752f64"
      }, {
        "reference": "Coverage/4c248d9d-98a8-44c4-ad38-9f073516abe2"
      }, {
        "reference": "Organization/0ec857b6-43ce-4a81-9812-7316b6d4c8af"
      } ]
    }
  } ]
}