{
  "resourceType": "Bundle",
  "id": "6495b0a7e06f07b7e1707809",
  "type": "collection",
  "entry": [ {
    "fullUrl": "https://madie.cms.gov/Patient/67fe9319-a486-463e-9e0f-346b17628e3c",
    "resource": {
      "resourceType": "Patient",
      "id": "67fe9319-a486-463e-9e0f-346b17628e3c",
      "meta": {
        "profile": [ "http://hl7.org/fhir/us/qicore/StructureDefinition/qicore-patient" ]
      },
      "extension": [ {
        "url": "http://hl7.org/fhir/us/core/StructureDefinition/us-core-race",
        "extension": [ {
          "url": "ombCategory",
          "valueCoding": {
            "system": "urn:oid:2.16.840.1.113883.6.238",
            "code": "2076-8",
            "display": "Native Hawaiian or Other Pacific Islander",
            "userSelected": true
          }
        }, {
          "url": "text",
          "valueString": "Native Hawaiian or Other Pacific Islander"
        } ]
      }, {
        "url": "http://hl7.org/fhir/us/core/StructureDefinition/us-core-ethnicity",
        "extension": [ {
          "url": "ombCategory",
          "valueCoding": {
            "system": "urn:oid:2.16.840.1.113883.6.238",
            "code": "2186-5",
            "display": "Not Hispanic or Latino",
            "userSelected": true
          }
        }, {
          "url": "text",
          "valueString": "Not Hispanic or Latino"
        } ]
      } ],
      "identifier": [ {
        "type": {
          "coding": [ {
            "system": "http://terminology.hl7.org/CodeSystem/v2-0203",
            "code": "MR"
          } ]
        },
        "system": "https://bonnie-fhir.healthit.gov/",
        "value": "6495b0a7e06f07b7e1707809"
      } ],
      "name": [ {
        "family": "IPPass",
        "given": [ "EncOn240DayEdgeofMP" ]
      } ],
      "gender": "male",
      "birthDate": "1987-05-25"
    }
  }, {
    "fullUrl": "https://madie.cms.gov/Condition/e0c9314d-3a7d-465e-9bde-f6fc42bcfd58",
    "resource": {
      "resourceType": "Condition",
      "id": "e0c9314d-3a7d-465e-9bde-f6fc42bcfd58",
      "meta": {
        "profile": [ "http://hl7.org/fhir/us/qicore/StructureDefinition/qicore-condition-problems-health-concerns" ]
      },
      "clinicalStatus": {
        "coding": [ {
          "system": "http://terminology.hl7.org/CodeSystem/condition-clinical",
          "code": "active",
          "display": "active",
          "userSelected": true
        } ]
      },
      "category": [ {
        "coding": [ {
          "system": "http://terminology.hl7.org/CodeSystem/condition-category",
          "code": "problem-list-item",
          "display": "Problem List Item"
        } ]
      } ],
      "code": {
        "coding": [ {
          "system": "http://hl7.org/fhir/sid/icd-9-cm",
          "version": "2013",
          "code": "042",
          "display": "Human immunodeficiency virus [HIV] disease",
          "userSelected": true
        }, {
          "system": "http://snomed.info/sct",
          "version": "http://snomed.info/sct/731000124108/version/20250301",
          "code": "165816005",
          "userSelected": true
        } ]
      },
      "subject": {
        "reference": "Patient/67fe9319-a486-463e-9e0f-346b17628e3c"
      },
      "onsetDateTime": "2020-12-02T12:00:00.000+00:00",
      "recordedDate": "2020-12-02T12:00:00.000+00:00"
    }
  }, {
    "fullUrl": "https://madie.cms.gov/Encounter/6c0c6003-f60d-47f2-8c11-beb41fd16150",
    "resource": {
      "resourceType": "Encounter",
      "id": "6c0c6003-f60d-47f2-8c11-beb41fd16150",
      "meta": {
        "profile": [ "http://hl7.org/fhir/us/qicore/StructureDefinition/qicore-encounter" ]
      },
      "status": "finished",
      "class": {
        "system": "http://terminology.hl7.org/CodeSystem/v3-ActCode",
        "code": "AMB",
        "display": "ambulatory"
      },
      "type": [ {
        "coding": [ {
          "system": "http://www.ama-assn.org/go/cpt",
          "code": "99386",
          "userSelected": true
        } ]
      } ],
      "subject": {
        "reference": "Patient/67fe9319-a486-463e-9e0f-346b17628e3c"
      },
      "period": {
        "start": "2026-08-29T15:02:00.000+00:00",
        "end": "2026-08-29T15:55:00.000+00:00"
      }
    }
  }, {
    "fullUrl": "https://madie.cms.gov/Coverage/8fa76ea4-93da-4096-aa18-acf417328bcd",
    "resource": {
      "resourceType": "Coverage",
      "id": "8fa76ea4-93da-4096-aa18-acf417328bcd",
      "meta": {
        "profile": [ "http://hl7.org/fhir/us/qicore/StructureDefinition/qicore-coverage" ]
      },
      "status": "active",
      "subscriberId": "123456",
      "beneficiary": {
        "reference": "Patient/67fe9319-a486-463e-9e0f-346b17628e3c"
      },
      "relationship": {
        "coding": [ {
          "system": "http://terminology.hl7.org/CodeSystem/subscriber-relationship",
          "code": "self",
          "display": "Self"
        } ]
      },
      "payor": [ {
        "reference": "Organization/c7923637-5e50-45c5-ad66-59f17ffff3a5"
      } ]
    }
  }, {
    "fullUrl": "https://madie.cms.gov/Organization/c7923637-5e50-45c5-ad66-59f17ffff3a5",
    "resource": {
      "resourceType": "Organization",
      "id": "c7923637-5e50-45c5-ad66-59f17ffff3a5",
      "meta": {
        "profile": [ "http://hl7.org/fhir/us/qicore/StructureDefinition/qicore-organization" ]
      },
      "identifier": [ {
        "use": "temp",
        "system": "urn:oid:2.16.840.1.113883.4.4",
        "value": "21-3259825"
      } ],
      "active": true,
      "type": [ {
        "coding": [ {
          "system": "http://terminology.hl7.org/CodeSystem/organization-type",
          "code": "pay",
          "display": "Payer"
        } ]
      } ],
      "name": "Blue Cross Blue Shield of Texas",
      "telecom": [ {
        "system": "phone",
        "value": "(+1) 972-766-6900"
      } ],
      "address": [ {
        "use": "billing",
        "type": "postal",
        "line": [ "P.O. Box 660044" ],
        "city": "Dallas",
        "state": "TX",
        "postalCode": "75266-0044",
        "country": "USA"
      } ]
    }
  }, {
    "fullUrl": "https://madie.cms.gov/Practitioner/d86454ef-fb81-4885-b13c-0614cf4c9e40",
    "resource": {
      "resourceType": "Practitioner",
      "id": "d86454ef-fb81-4885-b13c-0614cf4c9e40",
      "meta": {
        "profile": [ "http://hl7.org/fhir/us/qicore/StructureDefinition/qicore-practitioner" ]
      },
      "identifier": [ {
        "system": "http://hl7.org/fhir/sid/us-npi",
        "value": "1689411712"
      } ],
      "name": [ {
        "family": "Evil",
        "prefix": [ "Dr" ]
      } ]
    }
  }, {
    "fullUrl": "https://madie.cms.gov/MeasureReport/1372e550-bde9-4dcd-af61-535ca65b25b3",
    "resource": {
      "resourceType": "MeasureReport",
      "id": "1372e550-bde9-4dcd-af61-535ca65b25b3",
      "meta": {
        "profile": [ "http://hl7.org/fhir/us/cqfmeasures/StructureDefinition/test-case-cqfm" ]
      },
      "contained": [ {
        "resourceType": "Parameters",
        "id": "854337c2-8b23-481d-91f2-3522290eede6-parameters",
        "parameter": [ {
          "name": "subject",
          "valueString": "67fe9319-a486-463e-9e0f-346b17628e3c"
        } ]
      } ],
      "extension": [ {
        "url": "http://hl7.org/fhir/StructureDefinition/cqf-inputParameters",
        "valueReference": {
          "reference": "#854337c2-8b23-481d-91f2-3522290eede6-parameters"
        }
      }, {
        "url": "http://hl7.org/fhir/us/cqfmeasures/StructureDefinition/cqfm-testCaseDescription",
        "valueMarkdown": "Patient with a diagnosis of HIV years before start of the MP and a qualifying encounter on inside 240 day edge of the MP "
      } ],
      "modifierExtension": [ {
        "url": "http://hl7.org/fhir/us/cqfmeasures/StructureDefinition/cqfm-isTestCase",
        "valueBoolean": true
      } ],
      "status": "complete",
      "type": "individual",
      "measure": "https://madie.cms.gov/Measure/CMS314FHIRHIVViralSuppression",
      "period": {
        "start": "2026-01-01",
        "end": "2026-12-31"
      },
      "group": [ {
        "id": "Group_1",
        "population": [ {
          "id": "InitialPopulation_1",
          "code": {
            "coding": [ {
              "system": "http://terminology.hl7.org/CodeSystem/measure-population",
              "code": "initial-population",
              "display": "Initial Population"
            } ]
          },
          "count": 1
        }, {
          "id": "Denominator_1",
          "code": {
            "coding": [ {
              "system": "http://terminology.hl7.org/CodeSystem/measure-population",
              "code": "denominator",
              "display": "Denominator"
            } ]
          },
          "count": 1
        }, {
          "id": "Numerator_1",
          "code": {
            "coding": [ {
              "system": "http://terminology.hl7.org/CodeSystem/measure-population",
              "code": "numerator",
              "display": "Numerator"
            } ]
          },
          "count": 0
        } ],
        "measureScore": {
          "value": 1.0
        }
      } ],
      "evaluatedResource": [ {
        "reference": "Patient/67fe9319-a486-463e-9e0f-346b17628e3c"
      }, {
        "reference": "Condition/e0c9314d-3a7d-465e-9bde-f6fc42bcfd58"
      }, {
        "reference": "Encounter/6c0c6003-f60d-47f2-8c11-beb41fd16150"
      }, {
        "reference": "Coverage/8fa76ea4-93da-4096-aa18-acf417328bcd"
      }, {
        "reference": "Organization/c7923637-5e50-45c5-ad66-59f17ffff3a5"
      }, {
        "reference": "Practitioner/d86454ef-fb81-4885-b13c-0614cf4c9e40"
      } ]
    }
  } ]
}