{
  "resourceType": "Bundle",
  "id": "63487c2d0968f80122540161",
  "type": "transaction",
  "entry": [ {
    "fullUrl": "https://madie.cms.gov/Patient/446532f2-7a4c-43cd-91ab-44bcd198526c",
    "resource": {
      "resourceType": "Patient",
      "id": "446532f2-7a4c-43cd-91ab-44bcd198526c",
      "meta": {
        "profile": [ "http://hl7.org/fhir/us/qicore/StructureDefinition/qicore-patient" ]
      },
      "text": {
        "status": "generated",
        "div": "<div xmlns=\"http://www.w3.org/1999/xhtml\"><div class=\"hapiHeaderText\">AssessTerm0RelDtTimeEQTimeOfDeliv<b>DENOMFail</b></div><table class=\"hapiPropertyTable\"><tbody><tr><td>Identifier</td><td>6673ad2e7afdbe2b64b32198d497922374113f8e5685f7318cb6bb4ecc9fb9d7</td></tr><tr><td>Date of birth</td><td><span>14 February 1985</span></td></tr></tbody></table></div>"
      },
      "extension": [ {
        "url": "http://hl7.org/fhir/us/core/StructureDefinition/us-core-race",
        "extension": [ {
          "url": "ombCategory",
          "valueCoding": {
            "system": "urn:oid:2.16.840.1.113883.6.238",
            "code": "1002-5",
            "display": "American Indian or Alaska Native",
            "userSelected": true
          }
        }, {
          "url": "text",
          "valueString": "American Indian or Alaska Native"
        } ]
      }, {
        "url": "http://hl7.org/fhir/us/core/StructureDefinition/us-core-ethnicity",
        "extension": [ {
          "url": "ombCategory",
          "valueCoding": {
            "system": "urn:oid:2.16.840.1.113883.6.238",
            "code": "2135-2",
            "display": "Hispanic or Latino",
            "userSelected": true
          }
        }, {
          "url": "text",
          "valueString": "Hispanic or Latino"
        } ]
      } ],
      "identifier": [ {
        "type": {
          "coding": [ {
            "system": "http://terminology.hl7.org/CodeSystem/v2-0203",
            "code": "MR"
          } ]
        },
        "system": "https://bonnie-fhir.healthit.gov/",
        "value": "63487c2d0968f80122540161"
      } ],
      "active": true,
      "name": [ {
        "use": "usual",
        "family": "DENOMFail",
        "given": [ "AssessTerm0RelDtTimeEQTimeOfDeliv" ]
      } ],
      "gender": "female",
      "birthDate": "1998-02-14"
    },
    "request": {
      "method": "PUT",
      "url": "Patient/446532f2-7a4c-43cd-91ab-44bcd198526c"
    }
  }, {
    "fullUrl": "https://madie.cms.gov/Observation/84336a1a-ffc9-4b71-bd1e-47c036eb486c",
    "resource": {
      "resourceType": "Observation",
      "id": "84336a1a-ffc9-4b71-bd1e-47c036eb486c",
      "meta": {
        "profile": [ "http://hl7.org/fhir/us/qicore/StructureDefinition/qicore-simple-observation" ]
      },
      "status": "final",
      "category": [ {
        "coding": [ {
          "system": "http://terminology.hl7.org/CodeSystem/observation-category",
          "code": "exam",
          "display": "exam",
          "userSelected": true
        } ]
      } ],
      "code": {
        "coding": [ {
          "system": "http://loinc.org",
          "code": "11637-6"
        } ]
      },
      "subject": {
        "reference": "Patient/446532f2-7a4c-43cd-91ab-44bcd198526c"
      },
      "effectiveDateTime": "2025-09-19T09:00:00.000+00:00",
      "valueInteger": 0
    },
    "request": {
      "method": "PUT",
      "url": "Observation/84336a1a-ffc9-4b71-bd1e-47c036eb486c"
    }
  }, {
    "fullUrl": "https://madie.cms.gov/Observation/19a67047-6488-4bc6-98ba-586cd733acd9",
    "resource": {
      "resourceType": "Observation",
      "id": "19a67047-6488-4bc6-98ba-586cd733acd9",
      "meta": {
        "profile": [ "http://hl7.org/fhir/us/qicore/StructureDefinition/qicore-simple-observation" ]
      },
      "status": "final",
      "category": [ {
        "coding": [ {
          "system": "http://terminology.hl7.org/CodeSystem/observation-category",
          "code": "exam",
          "display": "exam",
          "userSelected": true
        } ]
      } ],
      "code": {
        "coding": [ {
          "system": "http://loinc.org",
          "code": "11639-2"
        } ]
      },
      "subject": {
        "reference": "Patient/446532f2-7a4c-43cd-91ab-44bcd198526c"
      },
      "effectiveDateTime": "2026-06-08T20:00:00.000+00:00",
      "valueInteger": 0
    },
    "request": {
      "method": "PUT",
      "url": "Observation/19a67047-6488-4bc6-98ba-586cd733acd9"
    }
  }, {
    "fullUrl": "https://madie.cms.gov/Observation/8e34b53e-02ef-4c00-9dbc-ced901c05bae",
    "resource": {
      "resourceType": "Observation",
      "id": "8e34b53e-02ef-4c00-9dbc-ced901c05bae",
      "meta": {
        "profile": [ "http://hl7.org/fhir/us/qicore/StructureDefinition/qicore-simple-observation" ]
      },
      "status": "final",
      "category": [ {
        "coding": [ {
          "system": "http://terminology.hl7.org/CodeSystem/observation-category",
          "code": "exam",
          "display": "exam",
          "userSelected": true
        } ]
      } ],
      "code": {
        "coding": [ {
          "system": "http://loinc.org",
          "code": "11884-4"
        } ]
      },
      "subject": {
        "reference": "Patient/446532f2-7a4c-43cd-91ab-44bcd198526c"
      },
      "effectiveDateTime": "2026-06-08T20:00:00.000+00:00",
      "valueQuantity": {
        "value": 37,
        "system": "http://unitsofmeasure.org",
        "code": "wk"
      }
    },
    "request": {
      "method": "PUT",
      "url": "Observation/8e34b53e-02ef-4c00-9dbc-ced901c05bae"
    }
  }, {
    "fullUrl": "https://madie.cms.gov/Observation/2dea6905-874b-4817-8cfc-bb884e388344",
    "resource": {
      "resourceType": "Observation",
      "id": "2dea6905-874b-4817-8cfc-bb884e388344",
      "meta": {
        "profile": [ "http://hl7.org/fhir/us/qicore/StructureDefinition/qicore-simple-observation" ]
      },
      "status": "final",
      "category": [ {
        "coding": [ {
          "system": "http://terminology.hl7.org/CodeSystem/observation-category",
          "code": "exam",
          "display": "exam",
          "userSelected": true
        } ]
      } ],
      "code": {
        "coding": [ {
          "system": "http://loinc.org",
          "code": "93857-1"
        } ]
      },
      "subject": {
        "reference": "Patient/446532f2-7a4c-43cd-91ab-44bcd198526c"
      },
      "effectiveDateTime": "2026-06-08T20:00:00.000+00:00",
      "valueDateTime": "2026-06-08T20:00:00.000+00:00"
    },
    "request": {
      "method": "PUT",
      "url": "Observation/2dea6905-874b-4817-8cfc-bb884e388344"
    }
  }, {
    "fullUrl": "https://madie.cms.gov/Encounter/2d224a47-3ab4-4100-80a1-1b6c62ac49d8",
    "resource": {
      "resourceType": "Encounter",
      "id": "2d224a47-3ab4-4100-80a1-1b6c62ac49d8",
      "meta": {
        "profile": [ "http://hl7.org/fhir/us/qicore/StructureDefinition/qicore-encounter" ]
      },
      "status": "finished",
      "class": {
        "system": "http://terminology.hl7.org/CodeSystem/v3-ActCode",
        "code": "IMP",
        "display": "inpatient encounter"
      },
      "type": [ {
        "coding": [ {
          "system": "http://snomed.info/sct",
          "code": "8715000"
        } ]
      } ],
      "subject": {
        "reference": "Patient/446532f2-7a4c-43cd-91ab-44bcd198526c"
      },
      "period": {
        "start": "2026-06-08T08:00:00.000+00:00",
        "end": "2026-06-10T08:15:00.000+00:00"
      },
      "length": {
        "value": 2,
        "unit": "days"
      },
      "reasonReference": [ {
        "reference": "Condition/e5f9209d-79db-4800-b8ec-344e0daac2b0"
      } ]
    },
    "request": {
      "method": "PUT",
      "url": "Encounter/2d224a47-3ab4-4100-80a1-1b6c62ac49d8"
    }
  }, {
    "fullUrl": "https://madie.cms.gov/Procedure/8c1582dc-dbca-453f-87c1-abe89d9a80d1",
    "resource": {
      "resourceType": "Procedure",
      "id": "8c1582dc-dbca-453f-87c1-abe89d9a80d1",
      "meta": {
        "profile": [ "http://hl7.org/fhir/us/qicore/StructureDefinition/qicore-procedure" ]
      },
      "extension": [ {
        "url": "http://hl7.org/fhir/us/qicore/StructureDefinition/qicore-recorded",
        "valueDateTime": "2014-04-05T13:35:00.000+00:00"
      } ],
      "status": "completed",
      "code": {
        "coding": [ {
          "system": "http://www.cms.gov/Medicare/Coding/ICD10",
          "code": "10D00Z0"
        }, {
          "system": "http://snomed.info/sct",
          "code": "4504004"
        } ]
      },
      "subject": {
        "reference": "Patient/446532f2-7a4c-43cd-91ab-44bcd198526c"
      },
      "performedPeriod": {
        "start": "2026-06-08T20:00:00.000+00:00",
        "end": "2026-06-08T20:15:00.000+00:00"
      }
    },
    "request": {
      "method": "PUT",
      "url": "Procedure/8c1582dc-dbca-453f-87c1-abe89d9a80d1"
    }
  }, {
    "fullUrl": "https://madie.cms.gov/Condition/e5f9209d-79db-4800-b8ec-344e0daac2b0",
    "resource": {
      "resourceType": "Condition",
      "id": "e5f9209d-79db-4800-b8ec-344e0daac2b0",
      "meta": {
        "profile": [ "http://hl7.org/fhir/us/qicore/StructureDefinition/qicore-condition-encounter-diagnosis" ]
      },
      "category": [ {
        "coding": [ {
          "system": "http://terminology.hl7.org/CodeSystem/condition-category",
          "code": "encounter-diagnosis",
          "display": "Encounter Diagnosis"
        } ]
      } ],
      "code": {
        "coding": [ {
          "system": "http://snomed.info/sct",
          "version": "2022-09",
          "code": "169826009",
          "display": "Single live birth from singleton pregnancy (finding)",
          "userSelected": true
        } ]
      },
      "subject": {
        "reference": "Patient/446532f2-7a4c-43cd-91ab-44bcd198526c"
      },
      "encounter": {
        "reference": "Encounter/2d224a47-3ab4-4100-80a1-1b6c62ac49d8"
      },
      "recordedDate": "2026-10-21T08:00:00.000+00:00"
    },
    "request": {
      "method": "PUT",
      "url": "Condition/e5f9209d-79db-4800-b8ec-344e0daac2b0"
    }
  }, {
    "fullUrl": "https://madie.cms.gov/Coverage/d58776a0-f906-4535-bfa3-16f0b05a659b",
    "resource": {
      "resourceType": "Coverage",
      "id": "d58776a0-f906-4535-bfa3-16f0b05a659b",
      "meta": {
        "profile": [ "http://hl7.org/fhir/us/qicore/StructureDefinition/qicore-coverage" ]
      },
      "status": "active",
      "subscriberId": "523435",
      "beneficiary": {
        "reference": "Patient/446532f2-7a4c-43cd-91ab-44bcd198526c"
      },
      "relationship": {
        "coding": [ {
          "system": "http://terminology.hl7.org/CodeSystem/subscriber-relationship",
          "code": "self"
        } ]
      },
      "payor": [ {
        "reference": "Organization/285d05e3-7dad-4ce3-b8ef-1fca94337328"
      } ]
    },
    "request": {
      "method": "PUT",
      "url": "Coverage/d58776a0-f906-4535-bfa3-16f0b05a659b"
    }
  }, {
    "fullUrl": "https://madie.cms.gov/Organization/285d05e3-7dad-4ce3-b8ef-1fca94337328",
    "resource": {
      "resourceType": "Organization",
      "id": "285d05e3-7dad-4ce3-b8ef-1fca94337328",
      "meta": {
        "profile": [ "http://hl7.org/fhir/us/qicore/StructureDefinition/qicore-organization" ]
      },
      "identifier": [ {
        "use": "temp",
        "system": "urn:oid:2.16.840.1.113883.4.4",
        "value": "21-3259825"
      } ],
      "active": true,
      "type": [ {
        "coding": [ {
          "system": "http://terminology.hl7.org/CodeSystem/organization-type",
          "code": "pay",
          "display": "Payer"
        } ]
      } ],
      "name": "Blue Cross Blue Shield of Texas",
      "telecom": [ {
        "system": "phone",
        "value": "(+1) 972-766-6900"
      } ],
      "address": [ {
        "use": "billing",
        "type": "postal",
        "line": [ "P.O. Box 660044" ],
        "city": "Dallas",
        "state": "TX",
        "postalCode": "75266-0044",
        "country": "USA"
      } ]
    },
    "request": {
      "method": "PUT",
      "url": "Organization/285d05e3-7dad-4ce3-b8ef-1fca94337328"
    }
  }, {
    "fullUrl": "https://madie.cms.gov/Practitioner/ef747770-cddb-43e7-ad83-da02cccdb9a7",
    "resource": {
      "resourceType": "Practitioner",
      "id": "ef747770-cddb-43e7-ad83-da02cccdb9a7",
      "meta": {
        "profile": [ "http://hl7.org/fhir/us/qicore/StructureDefinition/qicore-practitioner" ]
      },
      "identifier": [ {
        "system": "http://hl7.org/fhir/sid/us-npi",
        "value": "1234567890"
      } ],
      "name": [ {
        "family": "Evil",
        "prefix": [ "Dr" ]
      } ]
    },
    "request": {
      "method": "PUT",
      "url": "Practitioner/ef747770-cddb-43e7-ad83-da02cccdb9a7"
    }
  }, {
    "fullUrl": "https://madie.cms.gov/MeasureReport/ef6a1944-6f8c-46a5-b4f3-b6cbea376b82",
    "resource": {
      "resourceType": "MeasureReport",
      "id": "ef6a1944-6f8c-46a5-b4f3-b6cbea376b82",
      "meta": {
        "profile": [ "http://hl7.org/fhir/us/cqfmeasures/StructureDefinition/test-case-cqfm" ]
      },
      "contained": [ {
        "resourceType": "Parameters",
        "id": "0a05bf03-08f2-449c-8fb6-80b07667e004-parameters",
        "parameter": [ {
          "name": "subject",
          "valueString": "446532f2-7a4c-43cd-91ab-44bcd198526c"
        } ]
      } ],
      "extension": [ {
        "url": "http://hl7.org/fhir/StructureDefinition/cqf-inputParameters",
        "valueReference": {
          "reference": "#0a05bf03-08f2-449c-8fb6-80b07667e004-parameters"
        }
      }, {
        "url": "http://hl7.org/fhir/us/cqfmeasures/StructureDefinition/cqfm-testCaseDescription",
        "valueMarkdown": "\"Preterm Births=0, Relevant date/time < 42weeks prior to Asse delivery\nTerm Newborn=0, Relevant date/time same datetime as Asse delivery\"\n"
      } ],
      "modifierExtension": [ {
        "url": "http://hl7.org/fhir/us/cqfmeasures/StructureDefinition/cqfm-isTestCase",
        "valueBoolean": true
      } ],
      "status": "complete",
      "type": "individual",
      "measure": "https://madie.cms.gov/Measure/CMS0334FHIRPCCesareanBirth",
      "period": {
        "start": "2026-01-01",
        "end": "2026-12-31"
      },
      "group": [ {
        "id": "Group_1",
        "population": [ {
          "id": "InitialPopulation_1",
          "code": {
            "coding": [ {
              "system": "http://terminology.hl7.org/CodeSystem/measure-population",
              "code": "initial-population",
              "display": "Initial Population"
            } ]
          },
          "count": 1
        }, {
          "id": "Denominator_1",
          "code": {
            "coding": [ {
              "system": "http://terminology.hl7.org/CodeSystem/measure-population",
              "code": "denominator",
              "display": "Denominator"
            } ]
          },
          "count": 0
        }, {
          "id": "DenominatorExclusion_1",
          "code": {
            "coding": [ {
              "system": "http://terminology.hl7.org/CodeSystem/measure-population",
              "code": "denominator-exclusion",
              "display": "Denominator Exclusion"
            } ]
          },
          "count": 0
        }, {
          "id": "Numerator_1",
          "code": {
            "coding": [ {
              "system": "http://terminology.hl7.org/CodeSystem/measure-population",
              "code": "numerator",
              "display": "Numerator"
            } ]
          },
          "count": 0
        } ],
        "measureScore": {
          "value": 0.0
        }
      } ],
      "evaluatedResource": [ {
        "reference": "Patient/446532f2-7a4c-43cd-91ab-44bcd198526c"
      }, {
        "reference": "Observation/84336a1a-ffc9-4b71-bd1e-47c036eb486c"
      }, {
        "reference": "Observation/19a67047-6488-4bc6-98ba-586cd733acd9"
      }, {
        "reference": "Observation/8e34b53e-02ef-4c00-9dbc-ced901c05bae"
      }, {
        "reference": "Observation/2dea6905-874b-4817-8cfc-bb884e388344"
      }, {
        "reference": "Encounter/2d224a47-3ab4-4100-80a1-1b6c62ac49d8"
      }, {
        "reference": "Procedure/8c1582dc-dbca-453f-87c1-abe89d9a80d1"
      }, {
        "reference": "Condition/e5f9209d-79db-4800-b8ec-344e0daac2b0"
      }, {
        "reference": "Coverage/d58776a0-f906-4535-bfa3-16f0b05a659b"
      }, {
        "reference": "Organization/285d05e3-7dad-4ce3-b8ef-1fca94337328"
      }, {
        "reference": "Practitioner/ef747770-cddb-43e7-ad83-da02cccdb9a7"
      } ]
    },
    "request": {
      "method": "PUT",
      "url": "MeasureReport/ef6a1944-6f8c-46a5-b4f3-b6cbea376b82"
    }
  } ]
}