{
  "resourceType": "Bundle",
  "id": "60f82c2e98086b570510e28d",
  "type": "transaction",
  "entry": [ {
    "fullUrl": "https://madie.cms.gov/Patient/844d9440-ab79-4206-9893-bcf9a786970e",
    "resource": {
      "resourceType": "Patient",
      "id": "844d9440-ab79-4206-9893-bcf9a786970e",
      "meta": {
        "profile": [ "http://hl7.org/fhir/us/qicore/StructureDefinition/qicore-patient" ]
      },
      "text": {
        "status": "generated",
        "div": "<div xmlns=\"http://www.w3.org/1999/xhtml\"><div class=\"hapiHeaderText\">MedAntithromboticStart_eq1dayDuringEncIPwEd <b>NUMERPASS </b></div><table class=\"hapiPropertyTable\"><tbody><tr><td>Identifier</td><td>31f584b75330393256fa59b34c307941</td></tr><tr><td>Date of birth</td><td><span>26 September 1975</span></td></tr></tbody></table></div>"
      },
      "extension": [ {
        "url": "http://hl7.org/fhir/us/core/StructureDefinition/us-core-race",
        "extension": [ {
          "url": "ombCategory",
          "valueCoding": {
            "system": "urn:oid:2.16.840.1.113883.6.238",
            "code": "2054-5",
            "display": "Black or African American",
            "userSelected": true
          }
        }, {
          "url": "text",
          "valueString": "Black or African American"
        } ]
      }, {
        "url": "http://hl7.org/fhir/us/core/StructureDefinition/us-core-ethnicity",
        "extension": [ {
          "url": "ombCategory",
          "valueCoding": {
            "system": "urn:oid:2.16.840.1.113883.6.238",
            "code": "2186-5",
            "display": "Not Hispanic or Latino",
            "userSelected": true
          }
        }, {
          "url": "text",
          "valueString": "Not Hispanic or Latino"
        } ]
      }, {
        "url": "http://hl7.org/fhir/us/core/StructureDefinition/us-core-sex",
        "valueCode": "248152002"
      } ],
      "identifier": [ {
        "type": {
          "coding": [ {
            "system": "http://terminology.hl7.org/CodeSystem/v2-0203",
            "code": "MR"
          } ]
        },
        "system": "https://bonnie-fhir.healthit.gov/",
        "value": "60f82c2e98086b570510e28d"
      } ],
      "active": true,
      "name": [ {
        "use": "usual",
        "family": "NUMERPass",
        "given": [ "MedAntithromboticStarteq0dayDuringEncIPwEd" ]
      } ],
      "gender": "female",
      "birthDate": "1976-09-26"
    },
    "request": {
      "method": "PUT",
      "url": "Patient/844d9440-ab79-4206-9893-bcf9a786970e"
    }
  }, {
    "fullUrl": "https://madie.cms.gov/Encounter/5052f50e-111c-4019-9bd9-3a4aa01da8c0",
    "resource": {
      "resourceType": "Encounter",
      "id": "5052f50e-111c-4019-9bd9-3a4aa01da8c0",
      "meta": {
        "profile": [ "http://hl7.org/fhir/us/qicore/StructureDefinition/qicore-encounter" ]
      },
      "status": "finished",
      "class": {
        "system": "http://terminology.hl7.org/CodeSystem/v3-ActCode",
        "code": "EMER",
        "display": "emergency"
      },
      "type": [ {
        "coding": [ {
          "system": "http://snomed.info/sct",
          "code": "4525004"
        } ]
      } ],
      "subject": {
        "reference": "Patient/844d9440-ab79-4206-9893-bcf9a786970e"
      },
      "period": {
        "start": "2026-10-10T06:00:00.000+00:00",
        "end": "2026-10-10T08:30:00.000+00:00"
      },
      "length": {
        "value": 0,
        "unit": "days"
      }
    },
    "request": {
      "method": "PUT",
      "url": "Encounter/5052f50e-111c-4019-9bd9-3a4aa01da8c0"
    }
  }, {
    "fullUrl": "https://madie.cms.gov/Encounter/fba32cf6-8dcd-4aef-baac-024b37dac3d5",
    "resource": {
      "resourceType": "Encounter",
      "id": "fba32cf6-8dcd-4aef-baac-024b37dac3d5",
      "meta": {
        "profile": [ "http://hl7.org/fhir/us/qicore/StructureDefinition/qicore-encounter" ]
      },
      "status": "finished",
      "class": {
        "system": "http://terminology.hl7.org/CodeSystem/v3-ActCode",
        "code": "IMP",
        "display": "inpatient encounter"
      },
      "type": [ {
        "coding": [ {
          "system": "http://snomed.info/sct",
          "code": "32485007"
        } ]
      } ],
      "subject": {
        "reference": "Patient/844d9440-ab79-4206-9893-bcf9a786970e"
      },
      "period": {
        "start": "2026-10-10T09:00:00.000+00:00",
        "end": "2026-10-12T11:30:00.000+00:00"
      },
      "length": {
        "value": 2,
        "unit": "days"
      },
      "reasonReference": [ {
        "reference": "Condition/fc62b2a8-b404-4940-a1bf-8ac8e0a8db4f"
      } ]
    },
    "request": {
      "method": "PUT",
      "url": "Encounter/fba32cf6-8dcd-4aef-baac-024b37dac3d5"
    }
  }, {
    "fullUrl": "https://madie.cms.gov/claim/5ca62962b8484628b8de1ec5",
    "resource": {
      "resourceType": "Claim",
      "id": "5ca62962b8484628b8de1ec5",
      "meta": {
        "profile": [ "http://hl7.org/fhir/us/qicore/StructureDefinition/qicore-claim" ]
      },
      "status": "active",
      "type": {
        "coding": [ {
          "system": "http://terminology.hl7.org/CodeSystem/claim-type",
          "code": "institutional"
        } ]
      },
      "use": "claim",
      "patient": {
        "reference": "Patient/d170a0a8-b5ad-4303-b6df-e304dd5f92ad"
      },
      "created": "2026-12-01",
      "provider": {
        "reference": "Practitioner/4d00bf0c-69b3-4641-8871-77fae94bf5ed"
      },
      "priority": {
        "coding": [ {
          "system": "http://terminology.hl7.org/CodeSystem/processpriority",
          "code": "normal"
        } ]
      },
      "diagnosis": [ {
        "sequence": 1,
        "diagnosisCodeableConcept": {
          "coding": [ {
            "system": "http://hl7.org/fhir/sid/icd-10-cm",
            "code": "I63.00"
          } ]
        },
        "type": [ {
          "coding": [ {
            "system": "http://terminology.hl7.org/CodeSystem/ex-diagnosistype",
            "code": "principal"
          } ]
        } ]
      } ],
      "insurance": [ {
        "sequence": 1,
        "focal": true,
        "coverage": {
          "reference": "Coverage/5fa041661c76ba66d9959367"
        }
      } ],
      "item": [ {
        "sequence": 1,
        "diagnosisSequence": [ 1 ],
        "productOrService": {
          "coding": [ {
            "system": "http://terminology.hl7.org/CodeSystem/ex-USCLS",
            "code": "99555"
          } ]
        },
        "encounter": [ {
          "reference": "Encounter/fba32cf6-8dcd-4aef-baac-024b37dac3d5"
        } ]
      } ]
    },
    "request": {
      "method": "PUT",
      "url": "Claim/5ca62962b8484628b8de1ec5"
    }
  }, {
    "fullUrl": "https://madie.cms.gov/MedicationAdministration/09e99983-f16e-4d6d-b9f6-c589a0aa600e",
    "resource": {
      "resourceType": "MedicationAdministration",
      "id": "09e99983-f16e-4d6d-b9f6-c589a0aa600e",
      "meta": {
        "profile": [ "http://hl7.org/fhir/us/qicore/StructureDefinition/qicore-medicationadministration" ]
      },
      "status": "completed",
      "medicationCodeableConcept": {
        "coding": [ {
          "system": "http://www.nlm.nih.gov/research/umls/rxnorm",
          "code": "1037045"
        } ]
      },
      "subject": {
        "reference": "Patient/844d9440-ab79-4206-9893-bcf9a786970e"
      },
      "effectivePeriod": {
        "start": "2026-10-11T07:00:00.000+00:00",
        "end": "2026-10-11T08:20:00.000+00:00"
      }
    },
    "request": {
      "method": "PUT",
      "url": "MedicationAdministration/09e99983-f16e-4d6d-b9f6-c589a0aa600e"
    }
  }, {
    "fullUrl": "https://madie.cms.gov/Coverage/ffccea6a-3973-4cfd-adfc-41d0acde899e",
    "resource": {
      "resourceType": "Coverage",
      "id": "ffccea6a-3973-4cfd-adfc-41d0acde899e",
      "status": "active",
      "subscriberId": "523435",
      "beneficiary": {
        "reference": "Patient/844d9440-ab79-4206-9893-bcf9a786970e"
      },
      "relationship": {
        "coding": [ {
          "system": "http://terminology.hl7.org/CodeSystem/subscriber-relationship",
          "code": "self"
        } ]
      },
      "period": {
        "start": "1976-09-26T08:00:00.000+00:00"
      },
      "payor": [ {
        "reference": "Organization/3de5ef2b-ab06-4b34-a337-bb0201977407"
      } ]
    },
    "request": {
      "method": "PUT",
      "url": "Coverage/ffccea6a-3973-4cfd-adfc-41d0acde899e"
    }
  }, {
    "fullUrl": "https://madie.cms.gov/Condition/fc62b2a8-b404-4940-a1bf-8ac8e0a8db4f",
    "resource": {
      "resourceType": "Condition",
      "id": "fc62b2a8-b404-4940-a1bf-8ac8e0a8db4f",
      "meta": {
        "profile": [ "http://hl7.org/fhir/us/qicore/StructureDefinition/qicore-condition-problems-health-concerns" ]
      },
      "clinicalStatus": {
        "coding": [ {
          "system": "http://terminology.hl7.org/CodeSystem/condition-clinical",
          "code": "active"
        } ]
      },
      "verificationStatus": {
        "coding": [ {
          "system": "http://terminology.hl7.org/CodeSystem/condition-ver-status",
          "code": "confirmed"
        } ]
      },
      "category": [ {
        "coding": [ {
          "system": "http://terminology.hl7.org/CodeSystem/condition-category",
          "code": "encounter-diagnosis",
          "display": "Encounter Diagnosis"
        } ]
      } ],
      "code": {
        "coding": [ {
          "system": "http://snomed.info/sct",
          "version": "2020-09",
          "code": "111297002",
          "display": "Nonparalytic stroke (disorder)",
          "userSelected": true
        } ]
      },
      "subject": {
        "reference": "Patient/844d9440-ab79-4206-9893-bcf9a786970e"
      },
      "recordedDate": "2026-08-16T08:00:00.000+00:00"
    },
    "request": {
      "method": "PUT",
      "url": "Condition/fc62b2a8-b404-4940-a1bf-8ac8e0a8db4f"
    }
  }, {
    "fullUrl": "https://madie.cms.gov/Organization/3de5ef2b-ab06-4b34-a337-bb0201977407",
    "resource": {
      "resourceType": "Organization",
      "id": "3de5ef2b-ab06-4b34-a337-bb0201977407",
      "meta": {
        "profile": [ "http://hl7.org/fhir/us/qicore/StructureDefinition/qicore-organization" ]
      },
      "identifier": [ {
        "use": "temp",
        "system": "urn:oid:2.16.840.1.113883.4.4",
        "value": "21-3259825"
      } ],
      "active": true,
      "type": [ {
        "coding": [ {
          "system": "http://terminology.hl7.org/CodeSystem/organization-type",
          "code": "pay",
          "display": "Payer"
        } ]
      } ],
      "name": "Blue Cross Blue Shield of Texas",
      "telecom": [ {
        "system": "phone",
        "value": "(+1) 972-766-6900"
      } ],
      "address": [ {
        "use": "billing",
        "type": "postal",
        "line": [ "P.O. Box 660044" ],
        "city": "Dallas",
        "state": "TX",
        "postalCode": "75266-0044",
        "country": "USA"
      } ]
    },
    "request": {
      "method": "PUT",
      "url": "Organization/3de5ef2b-ab06-4b34-a337-bb0201977407"
    }
  }, {
    "fullUrl": "https://madie.cms.gov/Practitioner/4d00bf0c-69b3-4641-8871-77fae94bf5ed",
    "resource": {
      "resourceType": "Practitioner",
      "id": "4d00bf0c-69b3-4641-8871-77fae94bf5ed",
      "meta": {
        "profile": [ "http://hl7.org/fhir/us/qicore/StructureDefinition/qicore-practitioner" ]
      },
      "identifier": [ {
        "system": "http://hl7.org/fhir/sid/us-npi",
        "value": "9999999896"
      } ],
      "name": [ {
        "family": "Evil",
        "prefix": [ "Dr" ]
      } ]
    },
    "request": {
      "method": "PUT",
      "url": "Practitioner/4d00bf0c-69b3-4641-8871-77fae94bf5ed"
    }
  }, {
    "fullUrl": "https://madie.cms.gov/MeasureReport/ed106e9f-f0b5-43c5-aab4-829bd9c525f9",
    "resource": {
      "resourceType": "MeasureReport",
      "id": "ed106e9f-f0b5-43c5-aab4-829bd9c525f9",
      "meta": {
        "profile": [ "http://hl7.org/fhir/us/cqfmeasures/StructureDefinition/test-case-cqfm" ]
      },
      "contained": [ {
        "resourceType": "Parameters",
        "id": "9cc05020-4daa-4a5a-9f3f-f7cf952d13b4-parameters",
        "parameter": [ {
          "name": "subject",
          "valueString": "844d9440-ab79-4206-9893-bcf9a786970e"
        } ]
      } ],
      "extension": [ {
        "url": "http://hl7.org/fhir/StructureDefinition/cqf-inputParameters",
        "valueReference": {
          "reference": "#9cc05020-4daa-4a5a-9f3f-f7cf952d13b4-parameters"
        }
      }, {
        "url": "http://hl7.org/fhir/us/cqfmeasures/StructureDefinition/cqfm-testCaseDescription",
        "valueMarkdown": "\"Patient receives antithrombotic in the ED.\n global.\"\"Hospitalization\"\" =(Ed+IP)\"\n"
      } ],
      "modifierExtension": [ {
        "url": "http://hl7.org/fhir/us/cqfmeasures/StructureDefinition/cqfm-isTestCase",
        "valueBoolean": true
      } ],
      "status": "complete",
      "type": "individual",
      "measure": "https://madie.cms.gov/Measure/CMS72FHIRSTKAntithromboticDay2",
      "period": {
        "start": "2026-01-01",
        "end": "2026-12-31"
      },
      "group": [ {
        "id": "Group_1",
        "population": [ {
          "id": "InitialPopulation_1",
          "code": {
            "coding": [ {
              "system": "http://terminology.hl7.org/CodeSystem/measure-population",
              "code": "initial-population",
              "display": "Initial Population"
            } ]
          },
          "count": 1
        }, {
          "id": "Denominator_1",
          "code": {
            "coding": [ {
              "system": "http://terminology.hl7.org/CodeSystem/measure-population",
              "code": "denominator",
              "display": "Denominator"
            } ]
          },
          "count": 1
        }, {
          "id": "DenominatorExclusion_1",
          "code": {
            "coding": [ {
              "system": "http://terminology.hl7.org/CodeSystem/measure-population",
              "code": "denominator-exclusion",
              "display": "Denominator Exclusion"
            } ]
          },
          "count": 0
        }, {
          "id": "Numerator_1",
          "code": {
            "coding": [ {
              "system": "http://terminology.hl7.org/CodeSystem/measure-population",
              "code": "numerator",
              "display": "Numerator"
            } ]
          },
          "count": 1
        }, {
          "id": "DenominatorException_1",
          "code": {
            "coding": [ {
              "system": "http://terminology.hl7.org/CodeSystem/measure-population",
              "code": "denominator-exception",
              "display": "Denominator Exception"
            } ]
          },
          "count": 0
        } ],
        "measureScore": {
          "value": 0.0
        }
      } ],
      "evaluatedResource": [ {
        "reference": "Patient/844d9440-ab79-4206-9893-bcf9a786970e"
      }, {
        "reference": "Encounter/5052f50e-111c-4019-9bd9-3a4aa01da8c0"
      }, {
        "reference": "Encounter/fba32cf6-8dcd-4aef-baac-024b37dac3d5"
      }, {
        "reference": "Claim/5ca62962b8484628b8de1ec5"
      }, {
        "reference": "MedicationAdministration/09e99983-f16e-4d6d-b9f6-c589a0aa600e"
      }, {
        "reference": "Coverage/ffccea6a-3973-4cfd-adfc-41d0acde899e"
      }, {
        "reference": "Condition/fc62b2a8-b404-4940-a1bf-8ac8e0a8db4f"
      }, {
        "reference": "Organization/3de5ef2b-ab06-4b34-a337-bb0201977407"
      }, {
        "reference": "Practitioner/4d00bf0c-69b3-4641-8871-77fae94bf5ed"
      } ]
    },
    "request": {
      "method": "PUT",
      "url": "MeasureReport/ed106e9f-f0b5-43c5-aab4-829bd9c525f9"
    }
  } ]
}