{
  "resourceType": "Bundle",
  "id": "tests-055e466e-dd71-4a1f-b3d4-bc54ecf95721-bundle",
  "type": "transaction",
  "entry": [ {
    "fullUrl": "https://madie.cms.gov/Encounter/95b307f3-1f34-4b40-ac86-437318d8710b",
    "resource": {
      "resourceType": "Encounter",
      "id": "95b307f3-1f34-4b40-ac86-437318d8710b",
      "meta": {
        "profile": [ "http://hl7.org/fhir/us/qicore/StructureDefinition/qicore-encounter" ]
      },
      "status": "finished",
      "class": {
        "system": "http://terminology.hl7.org/CodeSystem/v3-ActCode",
        "code": "EMER",
        "display": "emergency"
      },
      "type": [ {
        "coding": [ {
          "system": "http://snomed.info/sct",
          "code": "4525004"
        } ]
      } ],
      "subject": {
        "reference": "Patient/055e466e-dd71-4a1f-b3d4-bc54ecf95721"
      },
      "period": {
        "start": "2026-04-09T08:00:00.000+00:00",
        "end": "2026-04-10T08:00:00.000+00:00"
      }
    },
    "request": {
      "method": "PUT",
      "url": "Encounter/95b307f3-1f34-4b40-ac86-437318d8710b"
    }
  }, {
    "fullUrl": "https://madie.cms.gov/Procedure/57db7631-a1da-4120-bc0b-bb6e7be6271d",
    "resource": {
      "resourceType": "Procedure",
      "id": "57db7631-a1da-4120-bc0b-bb6e7be6271d",
      "meta": {
        "profile": [ "http://hl7.org/fhir/us/qicore/StructureDefinition/qicore-procedure" ]
      },
      "extension": [ {
        "url": "http://hl7.org/fhir/us/qicore/StructureDefinition/qicore-recorded",
        "valueDateTime": "2026-04-11T10:30:00.000+00:00"
      } ],
      "status": "completed",
      "category": {
        "coding": [ {
          "system": "http://snomed.info/sct",
          "code": "18286008",
          "display": "General or neuraxial anesthesia"
        } ]
      },
      "code": {
        "coding": [ {
          "system": "http://snomed.info/sct",
          "code": "112943005",
          "display": "Epidural injection of anesthetic substance, diagnostic, caudal, continuous"
        } ]
      },
      "subject": {
        "reference": "Patient/055e466e-dd71-4a1f-b3d4-bc54ecf95721"
      },
      "performedPeriod": {
        "start": "2026-04-11T08:00:00.000+00:00",
        "end": "2026-04-11T10:15:00.000+00:00"
      }
    },
    "request": {
      "method": "PUT",
      "url": "Procedure/57db7631-a1da-4120-bc0b-bb6e7be6271d"
    }
  }, {
    "fullUrl": "https://madie.cms.gov/Encounter/9c4aae5c-85c4-417e-88d4-8bfb29e824d6",
    "resource": {
      "resourceType": "Encounter",
      "id": "9c4aae5c-85c4-417e-88d4-8bfb29e824d6",
      "meta": {
        "profile": [ "http://hl7.org/fhir/us/qicore/StructureDefinition/qicore-encounter" ]
      },
      "status": "finished",
      "class": {
        "system": "http://terminology.hl7.org/CodeSystem/v3-ActCode",
        "code": "IMP",
        "display": "inpatient encounter"
      },
      "type": [ {
        "coding": [ {
          "system": "http://snomed.info/sct",
          "code": "112689000"
        } ]
      } ],
      "priority": {
        "coding": [ {
          "system": "http://snomed.info/sct",
          "version": "2023-09",
          "code": "15584006",
          "display": "Hospital admission, elective, with partial pre-admission work-up (procedure)"
        } ]
      },
      "subject": {
        "reference": "Patient/055e466e-dd71-4a1f-b3d4-bc54ecf95721"
      },
      "period": {
        "start": "2026-04-10T08:00:00.000+00:00",
        "end": "2026-04-14T10:15:00.000+00:00"
      }
    },
    "request": {
      "method": "PUT",
      "url": "Encounter/9c4aae5c-85c4-417e-88d4-8bfb29e824d6"
    }
  }, {
    "fullUrl": "https://madie.cms.gov/Patient/055e466e-dd71-4a1f-b3d4-bc54ecf95721",
    "resource": {
      "resourceType": "Patient",
      "id": "055e466e-dd71-4a1f-b3d4-bc54ecf95721",
      "meta": {
        "profile": [ "http://hl7.org/fhir/us/qicore/StructureDefinition/qicore-patient" ]
      },
      "extension": [ {
        "url": "http://hl7.org/fhir/us/core/StructureDefinition/us-core-race",
        "extension": [ {
          "url": "ombCategory",
          "valueCoding": {
            "system": "urn:oid:2.16.840.1.113883.6.238",
            "code": "2028-9",
            "display": "Asian",
            "userSelected": true
          }
        }, {
          "url": "text",
          "valueString": "Asian"
        } ]
      }, {
        "url": "http://hl7.org/fhir/us/core/StructureDefinition/us-core-ethnicity",
        "extension": [ {
          "url": "ombCategory",
          "valueCoding": {
            "system": "urn:oid:2.16.840.1.113883.6.238",
            "code": "2186-5",
            "display": "Not Hispanic or Latino",
            "userSelected": true
          }
        }, {
          "url": "text",
          "valueString": "Not Hispanic or Latino"
        } ]
      } ],
      "identifier": [ {
        "type": {
          "coding": [ {
            "system": "http://terminology.hl7.org/CodeSystem/v2-0203",
            "code": "MR"
          } ]
        },
        "system": "https://bonnie-fhir.healthit.gov/",
        "value": "61152a3b98086b7a79cbd7c1"
      } ],
      "active": true,
      "name": [ {
        "use": "usual",
        "family": "IPPFail",
        "given": [ "NonElecEncWithEDVisitEndDTSameAsIPStartDT" ]
      } ],
      "gender": "female",
      "birthDate": "1966-04-09"
    },
    "request": {
      "method": "PUT",
      "url": "Patient/055e466e-dd71-4a1f-b3d4-bc54ecf95721"
    }
  }, {
    "fullUrl": "https://madie.cms.gov/MeasureReport/adf158c7-ce56-4cc3-9237-9a510698090b",
    "resource": {
      "resourceType": "MeasureReport",
      "id": "adf158c7-ce56-4cc3-9237-9a510698090b",
      "meta": {
        "profile": [ "http://hl7.org/fhir/us/cqfmeasures/StructureDefinition/test-case-cqfm" ]
      },
      "contained": [ {
        "resourceType": "Parameters",
        "id": "4c2aac4b-1c01-4677-b02b-7682b07133ba-parameters",
        "parameter": [ {
          "name": "subject",
          "valueString": "055e466e-dd71-4a1f-b3d4-bc54ecf95721"
        } ]
      } ],
      "extension": [ {
        "url": "http://hl7.org/fhir/StructureDefinition/cqf-inputParameters",
        "valueReference": {
          "reference": "#4c2aac4b-1c01-4677-b02b-7682b07133ba-parameters"
        }
      }, {
        "url": "http://hl7.org/fhir/us/cqfmeasures/StructureDefinition/cqfm-testCaseDescription",
        "valueMarkdown": "Non-elective IP (no class of 'elective') within first 3 days of encounter. But has ED visit ends same time as start of IP visit so Fails IPP. "
      } ],
      "modifierExtension": [ {
        "url": "http://hl7.org/fhir/us/cqfmeasures/StructureDefinition/cqfm-isTestCase",
        "valueBoolean": true
      } ],
      "status": "complete",
      "type": "individual",
      "measure": "https://madie.cms.gov/Measure/CMS1218FHIRHHRF",
      "period": {
        "start": "2026-01-01",
        "end": "2026-12-31"
      },
      "group": [ {
        "id": "Group_1",
        "population": [ {
          "id": "InitialPopulation_1",
          "code": {
            "coding": [ {
              "system": "http://terminology.hl7.org/CodeSystem/measure-population",
              "code": "initial-population",
              "display": "Initial Population"
            } ]
          },
          "count": 0
        }, {
          "id": "Denominator_1",
          "code": {
            "coding": [ {
              "system": "http://terminology.hl7.org/CodeSystem/measure-population",
              "code": "denominator",
              "display": "Denominator"
            } ]
          },
          "count": 0
        }, {
          "id": "DenominatorExclusion_1",
          "code": {
            "coding": [ {
              "system": "http://terminology.hl7.org/CodeSystem/measure-population",
              "code": "denominator-exclusion",
              "display": "Denominator Exclusion"
            } ]
          },
          "count": 0
        }, {
          "id": "Numerator_1",
          "code": {
            "coding": [ {
              "system": "http://terminology.hl7.org/CodeSystem/measure-population",
              "code": "numerator",
              "display": "Numerator"
            } ]
          },
          "count": 0
        } ],
        "measureScore": {
          "value": 0.0
        }
      } ],
      "evaluatedResource": [ {
        "reference": "Encounter/95b307f3-1f34-4b40-ac86-437318d8710b"
      }, {
        "reference": "Procedure/57db7631-a1da-4120-bc0b-bb6e7be6271d"
      }, {
        "reference": "Encounter/9c4aae5c-85c4-417e-88d4-8bfb29e824d6"
      }, {
        "reference": "Patient/055e466e-dd71-4a1f-b3d4-bc54ecf95721"
      } ]
    },
    "request": {
      "method": "PUT",
      "url": "MeasureReport/adf158c7-ce56-4cc3-9237-9a510698090b"
    }
  } ]
}