{
  "resourceType": "Bundle",
  "id": "60f82c2d98086b570510e25a",
  "type": "transaction",
  "entry": [ {
    "fullUrl": "https://madie.cms.gov/Patient/0c8a299c-b082-4383-b0b4-aebbb0fa9fb4",
    "resource": {
      "resourceType": "Patient",
      "id": "0c8a299c-b082-4383-b0b4-aebbb0fa9fb4",
      "meta": {
        "profile": [ "http://hl7.org/fhir/us/qicore/StructureDefinition/qicore-patient" ]
      },
      "text": {
        "status": "generated",
        "div": "<div xmlns=\"http://www.w3.org/1999/xhtml\"><div class=\"hapiHeaderText\">MedAntithromboticStart_gt1dayDuringEncIP <b>NUMERFAIL </b></div><table class=\"hapiPropertyTable\"><tbody><tr><td>Identifier</td><td>17d9cc11aebb5947545ea131f50a8a07</td></tr><tr><td>Date of birth</td><td><span>26 September 1975</span></td></tr></tbody></table></div>"
      },
      "extension": [ {
        "url": "http://hl7.org/fhir/us/core/StructureDefinition/us-core-race",
        "extension": [ {
          "url": "ombCategory",
          "valueCoding": {
            "system": "urn:oid:2.16.840.1.113883.6.238",
            "code": "2054-5",
            "display": "Black or African American",
            "userSelected": true
          }
        }, {
          "url": "text",
          "valueString": "Black or African American"
        } ]
      }, {
        "url": "http://hl7.org/fhir/us/core/StructureDefinition/us-core-ethnicity",
        "extension": [ {
          "url": "ombCategory",
          "valueCoding": {
            "system": "urn:oid:2.16.840.1.113883.6.238",
            "code": "2186-5",
            "display": "Not Hispanic or Latino",
            "userSelected": true
          }
        }, {
          "url": "text",
          "valueString": "Not Hispanic or Latino"
        } ]
      } ],
      "identifier": [ {
        "type": {
          "coding": [ {
            "system": "http://terminology.hl7.org/CodeSystem/v2-0203",
            "code": "MR"
          } ]
        },
        "system": "https://bonnie-fhir.healthit.gov/",
        "value": "60f82c2d98086b570510e25a"
      } ],
      "active": true,
      "name": [ {
        "use": "usual",
        "family": "NUMERFail",
        "given": [ "MedAntithromboticStart_gt1dayDuringEncIP" ]
      } ],
      "gender": "female",
      "birthDate": "1976-09-26"
    },
    "request": {
      "method": "PUT",
      "url": "Patient/0c8a299c-b082-4383-b0b4-aebbb0fa9fb4"
    }
  }, {
    "fullUrl": "https://madie.cms.gov/Encounter/d81c0922-4d40-47a9-b941-09d8e93d5feb",
    "resource": {
      "resourceType": "Encounter",
      "id": "d81c0922-4d40-47a9-b941-09d8e93d5feb",
      "meta": {
        "profile": [ "http://hl7.org/fhir/us/qicore/StructureDefinition/qicore-encounter" ]
      },
      "status": "finished",
      "class": {
        "system": "http://terminology.hl7.org/CodeSystem/v3-ActCode",
        "code": "IMP",
        "display": "inpatient encounter"
      },
      "type": [ {
        "coding": [ {
          "system": "http://snomed.info/sct",
          "code": "32485007"
        } ]
      } ],
      "subject": {
        "reference": "Patient/0c8a299c-b082-4383-b0b4-aebbb0fa9fb4"
      },
      "period": {
        "start": "2026-10-10T09:00:00.000+00:00",
        "end": "2026-10-12T11:15:00.000+00:00"
      },
      "length": {
        "value": 2,
        "unit": "days"
      },
      "reasonReference": [ {
        "reference": "Condition/f14258fe-9f23-4534-8a55-00e5d6d79641"
      } ]
    },
    "request": {
      "method": "PUT",
      "url": "Encounter/d81c0922-4d40-47a9-b941-09d8e93d5feb"
    }
  }, {
    "fullUrl": "https://madie.cms.gov/claim/5ca62962b8484628b8de1ec5",
    "resource": {
      "resourceType": "Claim",
      "id": "5ca62962b8484628b8de1ec5",
      "meta": {
        "profile": [ "http://hl7.org/fhir/us/qicore/StructureDefinition/qicore-claim" ]
      },
      "status": "active",
      "type": {
        "coding": [ {
          "system": "http://terminology.hl7.org/CodeSystem/claim-type",
          "code": "institutional"
        } ]
      },
      "use": "claim",
      "patient": {
        "reference": "Patient/d170a0a8-b5ad-4303-b6df-e304dd5f92ad"
      },
      "created": "2026-12-01",
      "provider": {
        "reference": "Practitioner/21d087a0-227f-4fb1-8aea-65be1c9bbfa7"
      },
      "priority": {
        "coding": [ {
          "system": "http://terminology.hl7.org/CodeSystem/processpriority",
          "code": "normal"
        } ]
      },
      "diagnosis": [ {
        "sequence": 1,
        "diagnosisCodeableConcept": {
          "coding": [ {
            "system": "http://hl7.org/fhir/sid/icd-10-cm",
            "code": "I63.00"
          } ]
        },
        "type": [ {
          "coding": [ {
            "system": "http://terminology.hl7.org/CodeSystem/ex-diagnosistype",
            "code": "principal"
          } ]
        } ]
      } ],
      "insurance": [ {
        "sequence": 1,
        "focal": true,
        "coverage": {
          "reference": "Coverage/5fa041661c76ba66d9959367"
        }
      } ],
      "item": [ {
        "sequence": 1,
        "diagnosisSequence": [ 1 ],
        "productOrService": {
          "coding": [ {
            "system": "http://terminology.hl7.org/CodeSystem/ex-USCLS",
            "code": "99555"
          } ]
        },
        "encounter": [ {
          "reference": "Encounter/d81c0922-4d40-47a9-b941-09d8e93d5feb"
        } ]
      } ]
    },
    "request": {
      "method": "PUT",
      "url": "Claim/5ca62962b8484628b8de1ec5"
    }
  }, {
    "fullUrl": "https://madie.cms.gov/MedicationAdministration/c57f5a61-d5dd-4a70-b42b-f89b4c21a20c",
    "resource": {
      "resourceType": "MedicationAdministration",
      "id": "c57f5a61-d5dd-4a70-b42b-f89b4c21a20c",
      "meta": {
        "profile": [ "http://hl7.org/fhir/us/qicore/StructureDefinition/qicore-medicationadministration" ]
      },
      "status": "completed",
      "medicationCodeableConcept": {
        "coding": [ {
          "system": "http://www.nlm.nih.gov/research/umls/rxnorm",
          "code": "198466"
        } ]
      },
      "subject": {
        "reference": "Patient/0c8a299c-b082-4383-b0b4-aebbb0fa9fb4"
      },
      "effectivePeriod": {
        "start": "2026-10-12T00:00:00.000+00:00"
      }
    },
    "request": {
      "method": "PUT",
      "url": "MedicationAdministration/c57f5a61-d5dd-4a70-b42b-f89b4c21a20c"
    }
  }, {
    "fullUrl": "https://madie.cms.gov/Coverage/d608ab5a-f261-4f93-85ca-fab040fb11e9",
    "resource": {
      "resourceType": "Coverage",
      "id": "d608ab5a-f261-4f93-85ca-fab040fb11e9",
      "status": "active",
      "subscriberId": "523435",
      "beneficiary": {
        "reference": "Patient/0c8a299c-b082-4383-b0b4-aebbb0fa9fb4"
      },
      "relationship": {
        "coding": [ {
          "system": "http://terminology.hl7.org/CodeSystem/subscriber-relationship",
          "code": "self"
        } ]
      },
      "period": {
        "start": "1976-09-26T08:00:00.000+00:00"
      },
      "payor": [ {
        "reference": "Organization/6e97996e-f510-4128-814c-eba12a718673"
      } ]
    },
    "request": {
      "method": "PUT",
      "url": "Coverage/d608ab5a-f261-4f93-85ca-fab040fb11e9"
    }
  }, {
    "fullUrl": "https://madie.cms.gov/Condition/f14258fe-9f23-4534-8a55-00e5d6d79641",
    "resource": {
      "resourceType": "Condition",
      "id": "f14258fe-9f23-4534-8a55-00e5d6d79641",
      "meta": {
        "profile": [ "http://hl7.org/fhir/us/qicore/StructureDefinition/qicore-condition-problems-health-concerns" ]
      },
      "clinicalStatus": {
        "coding": [ {
          "system": "http://terminology.hl7.org/CodeSystem/condition-clinical",
          "code": "active"
        } ]
      },
      "verificationStatus": {
        "coding": [ {
          "system": "http://terminology.hl7.org/CodeSystem/condition-ver-status",
          "code": "confirmed"
        } ]
      },
      "category": [ {
        "coding": [ {
          "system": "http://terminology.hl7.org/CodeSystem/condition-category",
          "code": "encounter-diagnosis",
          "display": "Encounter Diagnosis"
        } ]
      } ],
      "code": {
        "coding": [ {
          "system": "http://snomed.info/sct",
          "version": "2020-09",
          "code": "111297002",
          "display": "Nonparalytic stroke (disorder)",
          "userSelected": true
        } ]
      },
      "subject": {
        "reference": "Patient/0c8a299c-b082-4383-b0b4-aebbb0fa9fb4"
      },
      "recordedDate": "2026-08-16T08:00:00.000+00:00"
    },
    "request": {
      "method": "PUT",
      "url": "Condition/f14258fe-9f23-4534-8a55-00e5d6d79641"
    }
  }, {
    "fullUrl": "https://madie.cms.gov/Organization/6e97996e-f510-4128-814c-eba12a718673",
    "resource": {
      "resourceType": "Organization",
      "id": "6e97996e-f510-4128-814c-eba12a718673",
      "meta": {
        "profile": [ "http://hl7.org/fhir/us/qicore/StructureDefinition/qicore-organization" ]
      },
      "identifier": [ {
        "use": "temp",
        "system": "urn:oid:2.16.840.1.113883.4.4",
        "value": "21-3259825"
      } ],
      "active": true,
      "type": [ {
        "coding": [ {
          "system": "http://terminology.hl7.org/CodeSystem/organization-type",
          "code": "pay",
          "display": "Payer"
        } ]
      } ],
      "name": "Blue Cross Blue Shield of Texas",
      "telecom": [ {
        "system": "phone",
        "value": "(+1) 972-766-6900"
      } ],
      "address": [ {
        "use": "billing",
        "type": "postal",
        "line": [ "P.O. Box 660044" ],
        "city": "Dallas",
        "state": "TX",
        "postalCode": "75266-0044",
        "country": "USA"
      } ]
    },
    "request": {
      "method": "PUT",
      "url": "Organization/6e97996e-f510-4128-814c-eba12a718673"
    }
  }, {
    "fullUrl": "https://madie.cms.gov/Practitioner/21d087a0-227f-4fb1-8aea-65be1c9bbfa7",
    "resource": {
      "resourceType": "Practitioner",
      "id": "21d087a0-227f-4fb1-8aea-65be1c9bbfa7",
      "meta": {
        "profile": [ "http://hl7.org/fhir/us/qicore/StructureDefinition/qicore-practitioner" ]
      },
      "identifier": [ {
        "system": "http://hl7.org/fhir/sid/us-npi",
        "value": "9999999896"
      } ],
      "name": [ {
        "family": "Evil",
        "prefix": [ "Dr" ]
      } ]
    },
    "request": {
      "method": "PUT",
      "url": "Practitioner/21d087a0-227f-4fb1-8aea-65be1c9bbfa7"
    }
  }, {
    "fullUrl": "https://madie.cms.gov/MeasureReport/f7bafee7-2019-4a5b-ad45-792d0cbd143e",
    "resource": {
      "resourceType": "MeasureReport",
      "id": "f7bafee7-2019-4a5b-ad45-792d0cbd143e",
      "meta": {
        "profile": [ "http://hl7.org/fhir/us/cqfmeasures/StructureDefinition/test-case-cqfm" ]
      },
      "contained": [ {
        "resourceType": "Parameters",
        "id": "2bc51c3a-ed0e-4110-9a81-4e8145784ba4-parameters",
        "parameter": [ {
          "name": "subject",
          "valueString": "0c8a299c-b082-4383-b0b4-aebbb0fa9fb4"
        } ]
      } ],
      "extension": [ {
        "url": "http://hl7.org/fhir/StructureDefinition/cqf-inputParameters",
        "valueReference": {
          "reference": "#2bc51c3a-ed0e-4110-9a81-4e8145784ba4-parameters"
        }
      }, {
        "url": "http://hl7.org/fhir/us/cqfmeasures/StructureDefinition/cqfm-testCaseDescription",
        "valueMarkdown": "\"Patient receives antithrombotic in the ED. MedAntithromboticStart EQ 1day \nglobal.\"\"Hospitalization\"\" =(Ed+IP)\"\n"
      } ],
      "modifierExtension": [ {
        "url": "http://hl7.org/fhir/us/cqfmeasures/StructureDefinition/cqfm-isTestCase",
        "valueBoolean": true
      } ],
      "status": "complete",
      "type": "individual",
      "measure": "https://madie.cms.gov/Measure/CMS72FHIRSTKAntithromboticDay2",
      "period": {
        "start": "2026-01-01",
        "end": "2026-12-31"
      },
      "group": [ {
        "id": "Group_1",
        "population": [ {
          "id": "InitialPopulation_1",
          "code": {
            "coding": [ {
              "system": "http://terminology.hl7.org/CodeSystem/measure-population",
              "code": "initial-population",
              "display": "Initial Population"
            } ]
          },
          "count": 1
        }, {
          "id": "Denominator_1",
          "code": {
            "coding": [ {
              "system": "http://terminology.hl7.org/CodeSystem/measure-population",
              "code": "denominator",
              "display": "Denominator"
            } ]
          },
          "count": 1
        }, {
          "id": "DenominatorExclusion_1",
          "code": {
            "coding": [ {
              "system": "http://terminology.hl7.org/CodeSystem/measure-population",
              "code": "denominator-exclusion",
              "display": "Denominator Exclusion"
            } ]
          },
          "count": 0
        }, {
          "id": "Numerator_1",
          "code": {
            "coding": [ {
              "system": "http://terminology.hl7.org/CodeSystem/measure-population",
              "code": "numerator",
              "display": "Numerator"
            } ]
          },
          "count": 0
        }, {
          "id": "DenominatorException_1",
          "code": {
            "coding": [ {
              "system": "http://terminology.hl7.org/CodeSystem/measure-population",
              "code": "denominator-exception",
              "display": "Denominator Exception"
            } ]
          },
          "count": 0
        } ],
        "measureScore": {
          "value": 0.0
        }
      } ],
      "evaluatedResource": [ {
        "reference": "Patient/0c8a299c-b082-4383-b0b4-aebbb0fa9fb4"
      }, {
        "reference": "Encounter/d81c0922-4d40-47a9-b941-09d8e93d5feb"
      }, {
        "reference": "Claim/5ca62962b8484628b8de1ec5"
      }, {
        "reference": "MedicationAdministration/c57f5a61-d5dd-4a70-b42b-f89b4c21a20c"
      }, {
        "reference": "Coverage/d608ab5a-f261-4f93-85ca-fab040fb11e9"
      }, {
        "reference": "Condition/f14258fe-9f23-4534-8a55-00e5d6d79641"
      }, {
        "reference": "Organization/6e97996e-f510-4128-814c-eba12a718673"
      }, {
        "reference": "Practitioner/21d087a0-227f-4fb1-8aea-65be1c9bbfa7"
      } ]
    },
    "request": {
      "method": "PUT",
      "url": "MeasureReport/f7bafee7-2019-4a5b-ad45-792d0cbd143e"
    }
  } ]
}