{
  "resourceType": "Bundle",
  "id": "64137e884b11b147841ab908",
  "type": "transaction",
  "entry": [ {
    "fullUrl": "https://madie.cms.gov/Patient/7e7c41ee-7704-419c-937b-72d10c76f99a",
    "resource": {
      "resourceType": "Patient",
      "id": "7e7c41ee-7704-419c-937b-72d10c76f99a",
      "meta": {
        "profile": [ "http://hl7.org/fhir/us/qicore/StructureDefinition/qicore-patient" ]
      },
      "extension": [ {
        "url": "http://hl7.org/fhir/us/core/StructureDefinition/us-core-race",
        "extension": [ {
          "url": "ombCategory",
          "valueCoding": {
            "system": "urn:oid:2.16.840.1.113883.6.238",
            "code": "2076-8",
            "display": "Native Hawaiian or Other Pacific Islander",
            "userSelected": true
          }
        }, {
          "url": "text",
          "valueString": "Native Hawaiian or Other Pacific Islander"
        } ]
      }, {
        "url": "http://hl7.org/fhir/us/core/StructureDefinition/us-core-ethnicity",
        "extension": [ {
          "url": "ombCategory",
          "valueCoding": {
            "system": "urn:oid:2.16.840.1.113883.6.238",
            "code": "2186-5",
            "display": "Not Hispanic or Latino",
            "userSelected": true
          }
        }, {
          "url": "text",
          "valueString": "Not Hispanic or Latino"
        } ]
      } ],
      "identifier": [ {
        "type": {
          "coding": [ {
            "system": "http://terminology.hl7.org/CodeSystem/v2-0203",
            "code": "MR"
          } ]
        },
        "system": "https://bonnie-fhir.healthit.gov/",
        "value": "64137e884b11b147841ab908"
      } ],
      "name": [ {
        "family": "NUMERPass",
        "given": [ "AnnualWelllnessEGFRAndUACR" ]
      } ],
      "gender": "female",
      "birthDate": "1958-12-01"
    },
    "request": {
      "method": "PUT",
      "url": "Patient/7e7c41ee-7704-419c-937b-72d10c76f99a"
    }
  }, {
    "fullUrl": "https://madie.cms.gov/Condition/0c960142-9b48-4e65-b51e-cb540a8e0747",
    "resource": {
      "resourceType": "Condition",
      "id": "0c960142-9b48-4e65-b51e-cb540a8e0747",
      "meta": {
        "profile": [ "http://hl7.org/fhir/us/qicore/StructureDefinition/qicore-condition-encounter-diagnosis" ]
      },
      "clinicalStatus": {
        "coding": [ {
          "system": "http://terminology.hl7.org/CodeSystem/condition-clinical",
          "code": "active",
          "display": "active",
          "userSelected": true
        } ]
      },
      "category": [ {
        "coding": [ {
          "system": "http://terminology.hl7.org/CodeSystem/condition-category",
          "code": "encounter-diagnosis",
          "display": "Encounter Diagnosis",
          "userSelected": true
        } ]
      } ],
      "code": {
        "coding": [ {
          "system": "http://snomed.info/sct",
          "version": "2021-09",
          "code": "102781000119107",
          "display": "Sensory neuropathy due to type 1 diabetes mellitus (disorder)",
          "userSelected": true
        } ]
      },
      "subject": {
        "reference": "Patient/7e7c41ee-7704-419c-937b-72d10c76f99a"
      },
      "onsetDateTime": "2022-08-07T08:00:00.000+00:00"
    },
    "request": {
      "method": "PUT",
      "url": "Condition/0c960142-9b48-4e65-b51e-cb540a8e0747"
    }
  }, {
    "fullUrl": "https://madie.cms.gov/Observation/e8039dc6-322a-48ad-af44-7102cf239916",
    "resource": {
      "resourceType": "Observation",
      "id": "e8039dc6-322a-48ad-af44-7102cf239916",
      "meta": {
        "profile": [ "http://hl7.org/fhir/us/qicore/StructureDefinition/qicore-observation-lab" ]
      },
      "status": "final",
      "category": [ {
        "coding": [ {
          "system": "http://terminology.hl7.org/CodeSystem/observation-category",
          "code": "laboratory",
          "display": "Laboratory",
          "userSelected": true
        } ]
      } ],
      "code": {
        "coding": [ {
          "system": "http://loinc.org",
          "version": "2.71",
          "code": "13705-9",
          "display": "Albumin/Creatinine [Mass Ratio] in 24 hour Urine",
          "userSelected": true
        } ]
      },
      "subject": {
        "reference": "Patient/7e7c41ee-7704-419c-937b-72d10c76f99a"
      },
      "effectiveDateTime": "2026-08-15T08:00:00.000+00:00",
      "valueQuantity": {
        "value": 30,
        "unit": "mg/g",
        "system": "http://unitsofmeasure.org",
        "code": "mg/g"
      }
    },
    "request": {
      "method": "PUT",
      "url": "Observation/e8039dc6-322a-48ad-af44-7102cf239916"
    }
  }, {
    "fullUrl": "https://madie.cms.gov/Encounter/4af10da6-63fb-4117-b1df-76f2447a1afe",
    "resource": {
      "resourceType": "Encounter",
      "id": "4af10da6-63fb-4117-b1df-76f2447a1afe",
      "meta": {
        "profile": [ "http://hl7.org/fhir/us/qicore/StructureDefinition/qicore-encounter" ]
      },
      "status": "finished",
      "class": {
        "system": "http://terminology.hl7.org/CodeSystem/v3-ActCode",
        "code": "AMB",
        "display": "ambulatory",
        "userSelected": true
      },
      "type": [ {
        "coding": [ {
          "system": "http://snomed.info/sct",
          "version": "2021-09",
          "code": "444971000124105",
          "display": "Annual wellness visit (procedure)",
          "userSelected": true
        } ]
      } ],
      "subject": {
        "reference": "Patient/7e7c41ee-7704-419c-937b-72d10c76f99a"
      },
      "period": {
        "start": "2026-03-16T08:00:00.000+00:00",
        "end": "2026-03-16T08:15:00.000+00:00"
      }
    },
    "request": {
      "method": "PUT",
      "url": "Encounter/4af10da6-63fb-4117-b1df-76f2447a1afe"
    }
  }, {
    "fullUrl": "https://madie.cms.gov/Observation/bc14a05e-4ada-4bd0-841c-aefb5eff689d",
    "resource": {
      "resourceType": "Observation",
      "id": "bc14a05e-4ada-4bd0-841c-aefb5eff689d",
      "meta": {
        "profile": [ "http://hl7.org/fhir/us/qicore/StructureDefinition/qicore-observation-lab" ]
      },
      "status": "final",
      "category": [ {
        "coding": [ {
          "system": "http://terminology.hl7.org/CodeSystem/observation-category",
          "code": "laboratory",
          "display": "Laboratory",
          "userSelected": true
        } ]
      } ],
      "code": {
        "coding": [ {
          "system": "http://loinc.org",
          "version": "2.71",
          "code": "48642-3",
          "display": "Glomerular filtration rate [Volume Rate/Area] in Serum, Plasma or Blood by Creatinine-based formula (MDRD)/1.73 sq M among non black population",
          "userSelected": true
        } ]
      },
      "subject": {
        "reference": "Patient/7e7c41ee-7704-419c-937b-72d10c76f99a"
      },
      "effectiveDateTime": "2026-08-15T08:00:00.000+00:00",
      "valueBoolean": true
    },
    "request": {
      "method": "PUT",
      "url": "Observation/bc14a05e-4ada-4bd0-841c-aefb5eff689d"
    }
  }, {
    "fullUrl": "https://madie.cms.gov/MeasureReport/ec04c274-90dc-4c27-b4ca-e879f1a3a9ea",
    "resource": {
      "resourceType": "MeasureReport",
      "id": "ec04c274-90dc-4c27-b4ca-e879f1a3a9ea",
      "meta": {
        "profile": [ "http://hl7.org/fhir/us/cqfmeasures/StructureDefinition/test-case-cqfm" ]
      },
      "contained": [ {
        "resourceType": "Parameters",
        "id": "2a8ff2b8-7409-4c28-a7b4-199c4c677102-parameters",
        "parameter": [ {
          "name": "subject",
          "valueString": "7e7c41ee-7704-419c-937b-72d10c76f99a"
        } ]
      } ],
      "extension": [ {
        "url": "http://hl7.org/fhir/StructureDefinition/cqf-inputParameters",
        "valueReference": {
          "reference": "#2a8ff2b8-7409-4c28-a7b4-199c4c677102-parameters"
        }
      }, {
        "url": "http://hl7.org/fhir/us/cqfmeasures/StructureDefinition/cqfm-testCaseDescription",
        "valueMarkdown": "This patient is 67 years old with a qualifying home healthcare encounter and active  diabetes, with both qualifying lab tests. This case tests the numerator criteria."
      } ],
      "modifierExtension": [ {
        "url": "http://hl7.org/fhir/us/cqfmeasures/StructureDefinition/cqfm-isTestCase",
        "valueBoolean": true
      } ],
      "status": "complete",
      "type": "individual",
      "measure": "https://madie.cms.gov/Measure/CMS951FHIRKidneyHealthEval",
      "period": {
        "start": "2026-01-01",
        "end": "2026-12-31"
      },
      "group": [ {
        "id": "Group_1",
        "population": [ {
          "id": "InitialPopulation_1",
          "code": {
            "coding": [ {
              "system": "http://terminology.hl7.org/CodeSystem/measure-population",
              "code": "initial-population",
              "display": "Initial Population"
            } ]
          },
          "count": 1
        }, {
          "id": "Denominator_1",
          "code": {
            "coding": [ {
              "system": "http://terminology.hl7.org/CodeSystem/measure-population",
              "code": "denominator",
              "display": "Denominator"
            } ]
          },
          "count": 1
        }, {
          "id": "DenominatorExclusion_1",
          "code": {
            "coding": [ {
              "system": "http://terminology.hl7.org/CodeSystem/measure-population",
              "code": "denominator-exclusion",
              "display": "Denominator Exclusion"
            } ]
          },
          "count": 0
        }, {
          "id": "Numerator_1",
          "code": {
            "coding": [ {
              "system": "http://terminology.hl7.org/CodeSystem/measure-population",
              "code": "numerator",
              "display": "Numerator"
            } ]
          },
          "count": 1
        } ],
        "measureScore": {
          "value": 1.0
        }
      } ],
      "evaluatedResource": [ {
        "reference": "Patient/7e7c41ee-7704-419c-937b-72d10c76f99a"
      }, {
        "reference": "Condition/0c960142-9b48-4e65-b51e-cb540a8e0747"
      }, {
        "reference": "Observation/e8039dc6-322a-48ad-af44-7102cf239916"
      }, {
        "reference": "Encounter/4af10da6-63fb-4117-b1df-76f2447a1afe"
      }, {
        "reference": "Observation/bc14a05e-4ada-4bd0-841c-aefb5eff689d"
      } ]
    },
    "request": {
      "method": "PUT",
      "url": "MeasureReport/ec04c274-90dc-4c27-b4ca-e879f1a3a9ea"
    }
  } ]
}