{
  "resourceType": "Bundle",
  "id": "63487c2e0968f80122540181",
  "type": "transaction",
  "entry": [ {
    "fullUrl": "https://madie.cms.gov/Patient/6d9334c8-ff66-4358-9502-8e8a38a69205",
    "resource": {
      "resourceType": "Patient",
      "id": "6d9334c8-ff66-4358-9502-8e8a38a69205",
      "meta": {
        "profile": [ "http://hl7.org/fhir/us/qicore/StructureDefinition/qicore-patient" ]
      },
      "text": {
        "status": "generated",
        "div": "<div xmlns=\"http://www.w3.org/1999/xhtml\"><div class=\"hapiHeaderText\">ProcDelivStartDayB4EncInpStart<b>IPOPFail</b></div><table class=\"hapiPropertyTable\"><tbody><tr><td>Identifier</td><td>8ebfa8812ad70a141daae232885be39a56b9d3448a9add93e211911275da5f6a</td></tr><tr><td>Date of birth</td><td><span>14 February 1985</span></td></tr></tbody></table></div>"
      },
      "extension": [ {
        "url": "http://hl7.org/fhir/us/core/StructureDefinition/us-core-race",
        "extension": [ {
          "url": "ombCategory",
          "valueCoding": {
            "system": "urn:oid:2.16.840.1.113883.6.238",
            "code": "1002-5",
            "display": "American Indian or Alaska Native",
            "userSelected": true
          }
        }, {
          "url": "text",
          "valueString": "American Indian or Alaska Native"
        } ]
      }, {
        "url": "http://hl7.org/fhir/us/core/StructureDefinition/us-core-ethnicity",
        "extension": [ {
          "url": "ombCategory",
          "valueCoding": {
            "system": "urn:oid:2.16.840.1.113883.6.238",
            "code": "2135-2",
            "display": "Hispanic or Latino",
            "userSelected": true
          }
        }, {
          "url": "text",
          "valueString": "Hispanic or Latino"
        } ]
      } ],
      "identifier": [ {
        "type": {
          "coding": [ {
            "system": "http://terminology.hl7.org/CodeSystem/v2-0203",
            "code": "MR"
          } ]
        },
        "system": "https://bonnie-fhir.healthit.gov/",
        "value": "63487c2e0968f80122540181"
      } ],
      "active": true,
      "name": [ {
        "use": "usual",
        "family": "IPOPFail",
        "given": [ "ProcDelivStartDayB4EncInpStart" ]
      } ],
      "gender": "female",
      "birthDate": "1986-02-14"
    },
    "request": {
      "method": "PUT",
      "url": "Patient/6d9334c8-ff66-4358-9502-8e8a38a69205"
    }
  }, {
    "fullUrl": "https://madie.cms.gov/Encounter/3c366081-f5fb-4442-9755-818f99b62acb",
    "resource": {
      "resourceType": "Encounter",
      "id": "3c366081-f5fb-4442-9755-818f99b62acb",
      "meta": {
        "profile": [ "http://hl7.org/fhir/us/qicore/StructureDefinition/qicore-encounter" ]
      },
      "status": "finished",
      "class": {
        "system": "http://terminology.hl7.org/CodeSystem/v3-ActCode",
        "code": "IMP",
        "display": "inpatient encounter"
      },
      "type": [ {
        "coding": [ {
          "system": "http://snomed.info/sct",
          "code": "8715000"
        } ]
      } ],
      "subject": {
        "reference": "Patient/6d9334c8-ff66-4358-9502-8e8a38a69205"
      },
      "period": {
        "start": "2026-11-28T08:00:00.000+00:00",
        "end": "2026-11-30T08:15:00.000+00:00"
      },
      "length": {
        "value": 2,
        "unit": "days"
      },
      "diagnosis": [ {
        "condition": {
          "reference": "Condition/Condition-2"
        },
        "use": {
          "coding": [ {
            "system": "http://snomed.info/sct",
            "code": "169826009",
            "display": "Single live birth from singleton pregnancy (finding)"
          } ]
        }
      } ]
    },
    "request": {
      "method": "PUT",
      "url": "Encounter/3c366081-f5fb-4442-9755-818f99b62acb"
    }
  }, {
    "fullUrl": "https://madie.cms.gov/Procedure/9c65c955-85bb-47e5-8f90-154f88b53d4e",
    "resource": {
      "resourceType": "Procedure",
      "id": "9c65c955-85bb-47e5-8f90-154f88b53d4e",
      "meta": {
        "profile": [ "http://hl7.org/fhir/us/qicore/StructureDefinition/qicore-procedure" ]
      },
      "extension": [ {
        "url": "http://hl7.org/fhir/us/qicore/StructureDefinition/qicore-recorded",
        "valueDateTime": "2014-04-05T13:35:00.000+00:00"
      } ],
      "status": "completed",
      "code": {
        "coding": [ {
          "system": "http://www.cms.gov/Medicare/Coding/ICD10",
          "code": "10D00Z0"
        }, {
          "system": "http://www.icd10data.com/icd10pcs",
          "code": "10D00Z0",
          "userSelected": true
        } ]
      },
      "subject": {
        "reference": "Patient/6d9334c8-ff66-4358-9502-8e8a38a69205"
      },
      "performedDateTime": "2026-11-27T23:59:00.000+00:00"
    },
    "request": {
      "method": "PUT",
      "url": "Procedure/9c65c955-85bb-47e5-8f90-154f88b53d4e"
    }
  }, {
    "fullUrl": "https://madie.cms.gov/Coverage/328c2e9b-5195-47c5-939a-2ee41f1e5663",
    "resource": {
      "resourceType": "Coverage",
      "id": "328c2e9b-5195-47c5-939a-2ee41f1e5663",
      "meta": {
        "profile": [ "http://hl7.org/fhir/us/qicore/StructureDefinition/qicore-coverage" ]
      },
      "status": "active",
      "subscriberId": "523435",
      "beneficiary": {
        "reference": "Patient/6d9334c8-ff66-4358-9502-8e8a38a69205"
      },
      "relationship": {
        "coding": [ {
          "system": "http://terminology.hl7.org/CodeSystem/subscriber-relationship",
          "code": "self"
        } ]
      },
      "payor": [ {
        "reference": "Organization/47d6c81b-09ec-4304-87c1-f600f6647ff6"
      } ]
    },
    "request": {
      "method": "PUT",
      "url": "Coverage/328c2e9b-5195-47c5-939a-2ee41f1e5663"
    }
  }, {
    "fullUrl": "https://madie.cms.gov/Organization/47d6c81b-09ec-4304-87c1-f600f6647ff6",
    "resource": {
      "resourceType": "Organization",
      "id": "47d6c81b-09ec-4304-87c1-f600f6647ff6",
      "meta": {
        "profile": [ "http://hl7.org/fhir/us/qicore/StructureDefinition/qicore-organization" ]
      },
      "identifier": [ {
        "use": "temp",
        "system": "urn:oid:2.16.840.1.113883.4.4",
        "value": "21-3259825"
      } ],
      "active": true,
      "type": [ {
        "coding": [ {
          "system": "http://terminology.hl7.org/CodeSystem/organization-type",
          "code": "pay",
          "display": "Payer"
        } ]
      } ],
      "name": "Blue Cross Blue Shield of Texas",
      "telecom": [ {
        "system": "phone",
        "value": "(+1) 972-766-6900"
      } ],
      "address": [ {
        "use": "billing",
        "type": "postal",
        "line": [ "P.O. Box 660044" ],
        "city": "Dallas",
        "state": "TX",
        "postalCode": "75266-0044",
        "country": "USA"
      } ]
    },
    "request": {
      "method": "PUT",
      "url": "Organization/47d6c81b-09ec-4304-87c1-f600f6647ff6"
    }
  }, {
    "fullUrl": "https://madie.cms.gov/Practitioner/02df3278-fcea-4f7b-ad59-f2c7de9af62a",
    "resource": {
      "resourceType": "Practitioner",
      "id": "02df3278-fcea-4f7b-ad59-f2c7de9af62a",
      "identifier": [ {
        "system": "http://hl7.org/fhir/sid/us-npi",
        "value": "123456"
      } ],
      "name": [ {
        "family": "Evil",
        "prefix": [ "Dr" ]
      } ]
    },
    "request": {
      "method": "PUT",
      "url": "Practitioner/02df3278-fcea-4f7b-ad59-f2c7de9af62a"
    }
  }, {
    "fullUrl": "https://madie.cms.gov/MeasureReport/bd709959-540d-4745-a98a-5b87be6737e7",
    "resource": {
      "resourceType": "MeasureReport",
      "id": "bd709959-540d-4745-a98a-5b87be6737e7",
      "meta": {
        "profile": [ "http://hl7.org/fhir/us/cqfmeasures/StructureDefinition/test-case-cqfm" ]
      },
      "contained": [ {
        "resourceType": "Parameters",
        "id": "42b47ff5-35a4-4814-ba7b-3ff0378ec276-parameters",
        "parameter": [ {
          "name": "subject",
          "valueString": "6d9334c8-ff66-4358-9502-8e8a38a69205"
        } ]
      } ],
      "extension": [ {
        "url": "http://hl7.org/fhir/StructureDefinition/cqf-inputParameters",
        "valueReference": {
          "reference": "#42b47ff5-35a4-4814-ba7b-3ff0378ec276-parameters"
        }
      }, {
        "url": "http://hl7.org/fhir/us/cqfmeasures/StructureDefinition/cqfm-testCaseDescription",
        "valueMarkdown": "Fails IPP because Proc Delivery starts before Inpatient Encounter. Parity result 0 (auth at 42 weeks) EGA 40 weeks;   Tests \"DeliveryProcedures.relevantPeriod starts during QualifyingEncounters.relevantPeriod\".\n"
      } ],
      "modifierExtension": [ {
        "url": "http://hl7.org/fhir/us/cqfmeasures/StructureDefinition/cqfm-isTestCase",
        "valueBoolean": true
      } ],
      "status": "complete",
      "type": "individual",
      "measure": "https://madie.cms.gov/Measure/CMS0334FHIRPCCesareanBirth",
      "period": {
        "start": "2026-01-01",
        "end": "2026-12-31"
      },
      "group": [ {
        "id": "Group_1",
        "population": [ {
          "id": "InitialPopulation_1",
          "code": {
            "coding": [ {
              "system": "http://terminology.hl7.org/CodeSystem/measure-population",
              "code": "initial-population",
              "display": "Initial Population"
            } ]
          },
          "count": 0
        }, {
          "id": "Denominator_1",
          "code": {
            "coding": [ {
              "system": "http://terminology.hl7.org/CodeSystem/measure-population",
              "code": "denominator",
              "display": "Denominator"
            } ]
          },
          "count": 0
        }, {
          "id": "DenominatorExclusion_1",
          "code": {
            "coding": [ {
              "system": "http://terminology.hl7.org/CodeSystem/measure-population",
              "code": "denominator-exclusion",
              "display": "Denominator Exclusion"
            } ]
          },
          "count": 0
        }, {
          "id": "Numerator_1",
          "code": {
            "coding": [ {
              "system": "http://terminology.hl7.org/CodeSystem/measure-population",
              "code": "numerator",
              "display": "Numerator"
            } ]
          },
          "count": 0
        } ],
        "measureScore": {
          "value": 0.0
        }
      } ],
      "evaluatedResource": [ {
        "reference": "Patient/6d9334c8-ff66-4358-9502-8e8a38a69205"
      }, {
        "reference": "Encounter/3c366081-f5fb-4442-9755-818f99b62acb"
      }, {
        "reference": "Procedure/9c65c955-85bb-47e5-8f90-154f88b53d4e"
      }, {
        "reference": "Coverage/328c2e9b-5195-47c5-939a-2ee41f1e5663"
      }, {
        "reference": "Organization/47d6c81b-09ec-4304-87c1-f600f6647ff6"
      }, {
        "reference": "Practitioner/02df3278-fcea-4f7b-ad59-f2c7de9af62a"
      } ]
    },
    "request": {
      "method": "PUT",
      "url": "MeasureReport/bd709959-540d-4745-a98a-5b87be6737e7"
    }
  } ]
}