{
  "resourceType": "Bundle",
  "id": "63487c2e0968f8012254016b",
  "type": "transaction",
  "entry": [ {
    "fullUrl": "https://madie.cms.gov/Patient/9f57cf87-16db-42df-90fc-10b68d59c9af",
    "resource": {
      "resourceType": "Patient",
      "id": "9f57cf87-16db-42df-90fc-10b68d59c9af",
      "meta": {
        "profile": [ "http://hl7.org/fhir/us/qicore/StructureDefinition/qicore-patient" ]
      },
      "text": {
        "status": "generated",
        "div": "<div xmlns=\"http://www.w3.org/1999/xhtml\"><div class=\"hapiHeaderText\">AssessG2 <b>DENFAIL </b></div><table class=\"hapiPropertyTable\"><tbody><tr><td>Identifier</td><td>6f0356902024199e6d960c23a612f7378959e827eecb2b03b3a499369c8970e4</td></tr><tr><td>Date of birth</td><td><span>14 February 1985</span></td></tr></tbody></table></div>"
      },
      "extension": [ {
        "url": "http://hl7.org/fhir/us/core/StructureDefinition/us-core-race",
        "extension": [ {
          "url": "ombCategory",
          "valueCoding": {
            "system": "urn:oid:2.16.840.1.113883.6.238",
            "code": "1002-5",
            "display": "American Indian or Alaska Native",
            "userSelected": true
          }
        }, {
          "url": "text",
          "valueString": "American Indian or Alaska Native"
        } ]
      }, {
        "url": "http://hl7.org/fhir/us/core/StructureDefinition/us-core-ethnicity",
        "extension": [ {
          "url": "ombCategory",
          "valueCoding": {
            "system": "urn:oid:2.16.840.1.113883.6.238",
            "code": "2135-2",
            "display": "Hispanic or Latino",
            "userSelected": true
          }
        }, {
          "url": "text",
          "valueString": "Hispanic or Latino"
        } ]
      } ],
      "identifier": [ {
        "type": {
          "coding": [ {
            "system": "http://terminology.hl7.org/CodeSystem/v2-0203",
            "code": "MR"
          } ]
        },
        "system": "https://bonnie-fhir.healthit.gov/",
        "value": "63487c2e0968f8012254016b"
      } ],
      "active": true,
      "name": [ {
        "use": "usual",
        "family": "DENFail",
        "given": [ "AssessG2" ]
      } ],
      "gender": "female",
      "birthDate": "1998-02-14"
    },
    "request": {
      "method": "PUT",
      "url": "Patient/9f57cf87-16db-42df-90fc-10b68d59c9af"
    }
  }, {
    "fullUrl": "https://madie.cms.gov/Observation/0d6529e0-66b7-4608-af64-18d683fa1e03",
    "resource": {
      "resourceType": "Observation",
      "id": "0d6529e0-66b7-4608-af64-18d683fa1e03",
      "meta": {
        "profile": [ "http://hl7.org/fhir/us/qicore/StructureDefinition/qicore-simple-observation" ]
      },
      "status": "final",
      "category": [ {
        "coding": [ {
          "system": "http://terminology.hl7.org/CodeSystem/observation-category",
          "code": "exam",
          "display": "exam",
          "userSelected": true
        } ]
      } ],
      "code": {
        "coding": [ {
          "system": "http://loinc.org",
          "code": "11977-6"
        } ]
      },
      "subject": {
        "reference": "Patient/9f57cf87-16db-42df-90fc-10b68d59c9af"
      },
      "effectiveDateTime": "2026-03-08T09:00:00.000+00:00"
    },
    "request": {
      "method": "PUT",
      "url": "Observation/0d6529e0-66b7-4608-af64-18d683fa1e03"
    }
  }, {
    "fullUrl": "https://madie.cms.gov/Observation/9de2e001-c9ab-4818-b567-713538995686",
    "resource": {
      "resourceType": "Observation",
      "id": "9de2e001-c9ab-4818-b567-713538995686",
      "meta": {
        "profile": [ "http://hl7.org/fhir/us/qicore/StructureDefinition/qicore-simple-observation" ]
      },
      "status": "final",
      "category": [ {
        "coding": [ {
          "system": "http://terminology.hl7.org/CodeSystem/observation-category",
          "code": "exam",
          "display": "exam",
          "userSelected": true
        } ]
      } ],
      "code": {
        "coding": [ {
          "system": "http://loinc.org",
          "code": "11996-6"
        } ]
      },
      "subject": {
        "reference": "Patient/9f57cf87-16db-42df-90fc-10b68d59c9af"
      },
      "effectiveDateTime": "2026-03-09T08:00:00.000+00:00",
      "valueInteger": 2
    },
    "request": {
      "method": "PUT",
      "url": "Observation/9de2e001-c9ab-4818-b567-713538995686"
    }
  }, {
    "fullUrl": "https://madie.cms.gov/Observation/49382c69-dfc7-45f5-b3c2-ac2dcfe33290",
    "resource": {
      "resourceType": "Observation",
      "id": "49382c69-dfc7-45f5-b3c2-ac2dcfe33290",
      "meta": {
        "profile": [ "http://hl7.org/fhir/us/qicore/StructureDefinition/qicore-simple-observation" ]
      },
      "status": "final",
      "category": [ {
        "coding": [ {
          "system": "http://terminology.hl7.org/CodeSystem/observation-category",
          "code": "exam",
          "display": "exam",
          "userSelected": true
        } ]
      } ],
      "code": {
        "coding": [ {
          "system": "http://loinc.org",
          "code": "11884-4"
        } ]
      },
      "subject": {
        "reference": "Patient/9f57cf87-16db-42df-90fc-10b68d59c9af"
      },
      "effectiveDateTime": "2026-06-08T20:00:00.000+00:00",
      "valueQuantity": {
        "value": 37,
        "system": "http://unitsofmeasure.org",
        "code": "wk"
      }
    },
    "request": {
      "method": "PUT",
      "url": "Observation/49382c69-dfc7-45f5-b3c2-ac2dcfe33290"
    }
  }, {
    "fullUrl": "https://madie.cms.gov/Observation/bdcdec88-c793-454e-8d30-f2fa60c10d56",
    "resource": {
      "resourceType": "Observation",
      "id": "bdcdec88-c793-454e-8d30-f2fa60c10d56",
      "meta": {
        "profile": [ "http://hl7.org/fhir/us/qicore/StructureDefinition/qicore-simple-observation" ]
      },
      "status": "final",
      "category": [ {
        "coding": [ {
          "system": "http://terminology.hl7.org/CodeSystem/observation-category",
          "code": "exam",
          "display": "exam",
          "userSelected": true
        } ]
      } ],
      "code": {
        "coding": [ {
          "system": "http://loinc.org",
          "code": "93857-1"
        } ]
      },
      "subject": {
        "reference": "Patient/9f57cf87-16db-42df-90fc-10b68d59c9af"
      },
      "effectiveDateTime": "2026-06-08T20:00:00.000+00:00",
      "valueDateTime": "2026-06-08T20:00:00.000+00:00"
    },
    "request": {
      "method": "PUT",
      "url": "Observation/bdcdec88-c793-454e-8d30-f2fa60c10d56"
    }
  }, {
    "fullUrl": "https://madie.cms.gov/Encounter/521383fe-ec82-4898-99a9-78141a373b62",
    "resource": {
      "resourceType": "Encounter",
      "id": "521383fe-ec82-4898-99a9-78141a373b62",
      "meta": {
        "profile": [ "http://hl7.org/fhir/us/qicore/StructureDefinition/qicore-encounter" ]
      },
      "status": "finished",
      "class": {
        "system": "http://terminology.hl7.org/CodeSystem/v3-ActCode",
        "code": "IMP",
        "display": "inpatient encounter"
      },
      "type": [ {
        "coding": [ {
          "system": "http://snomed.info/sct",
          "code": "8715000"
        } ]
      } ],
      "subject": {
        "reference": "Patient/9f57cf87-16db-42df-90fc-10b68d59c9af"
      },
      "period": {
        "start": "2026-06-08T08:00:00.000+00:00",
        "end": "2026-06-10T08:15:00.000+00:00"
      },
      "length": {
        "value": 2,
        "unit": "days"
      },
      "reasonReference": [ {
        "reference": "Condition/cc3aa202-09ba-4b3c-990d-f15898fb852b"
      } ]
    },
    "request": {
      "method": "PUT",
      "url": "Encounter/521383fe-ec82-4898-99a9-78141a373b62"
    }
  }, {
    "fullUrl": "https://madie.cms.gov/Procedure/764ba592-b84d-4005-8597-2f57b303e929",
    "resource": {
      "resourceType": "Procedure",
      "id": "764ba592-b84d-4005-8597-2f57b303e929",
      "meta": {
        "profile": [ "http://hl7.org/fhir/us/qicore/StructureDefinition/qicore-procedure" ]
      },
      "extension": [ {
        "url": "http://hl7.org/fhir/us/qicore/StructureDefinition/qicore-recorded",
        "valueDateTime": "2014-04-05T13:35:00.000+00:00"
      } ],
      "status": "completed",
      "code": {
        "coding": [ {
          "system": "http://www.cms.gov/Medicare/Coding/ICD10",
          "code": "10D00Z0"
        }, {
          "system": "http://snomed.info/sct",
          "code": "4504004"
        } ]
      },
      "subject": {
        "reference": "Patient/9f57cf87-16db-42df-90fc-10b68d59c9af"
      },
      "performedPeriod": {
        "start": "2026-06-08T20:00:00.000+00:00",
        "end": "2026-06-08T20:15:00.000+00:00"
      }
    },
    "request": {
      "method": "PUT",
      "url": "Procedure/764ba592-b84d-4005-8597-2f57b303e929"
    }
  }, {
    "fullUrl": "https://madie.cms.gov/Coverage/5cf209ab-6f1b-4c51-9552-9549412e66a6",
    "resource": {
      "resourceType": "Coverage",
      "id": "5cf209ab-6f1b-4c51-9552-9549412e66a6",
      "meta": {
        "profile": [ "http://hl7.org/fhir/us/qicore/StructureDefinition/qicore-coverage" ]
      },
      "status": "active",
      "subscriberId": "523435",
      "beneficiary": {
        "reference": "Patient/9f57cf87-16db-42df-90fc-10b68d59c9af"
      },
      "relationship": {
        "coding": [ {
          "system": "http://terminology.hl7.org/CodeSystem/subscriber-relationship",
          "code": "self"
        } ]
      },
      "payor": [ {
        "reference": "Organization/06c294c0-059b-4e55-b0d3-48d637e7bad5"
      } ]
    },
    "request": {
      "method": "PUT",
      "url": "Coverage/5cf209ab-6f1b-4c51-9552-9549412e66a6"
    }
  }, {
    "fullUrl": "https://madie.cms.gov/Organization/06c294c0-059b-4e55-b0d3-48d637e7bad5",
    "resource": {
      "resourceType": "Organization",
      "id": "06c294c0-059b-4e55-b0d3-48d637e7bad5",
      "meta": {
        "profile": [ "http://hl7.org/fhir/us/qicore/StructureDefinition/qicore-organization" ]
      },
      "identifier": [ {
        "use": "temp",
        "system": "urn:oid:2.16.840.1.113883.4.4",
        "value": "21-3259825"
      } ],
      "active": true,
      "type": [ {
        "coding": [ {
          "system": "http://terminology.hl7.org/CodeSystem/organization-type",
          "code": "pay",
          "display": "Payer"
        } ]
      } ],
      "name": "Blue Cross Blue Shield of Texas",
      "telecom": [ {
        "system": "phone",
        "value": "(+1) 972-766-6900"
      } ],
      "address": [ {
        "use": "billing",
        "type": "postal",
        "line": [ "P.O. Box 660044" ],
        "city": "Dallas",
        "state": "TX",
        "postalCode": "75266-0044",
        "country": "USA"
      } ]
    },
    "request": {
      "method": "PUT",
      "url": "Organization/06c294c0-059b-4e55-b0d3-48d637e7bad5"
    }
  }, {
    "fullUrl": "https://madie.cms.gov/Condition/cc3aa202-09ba-4b3c-990d-f15898fb852b",
    "resource": {
      "resourceType": "Condition",
      "id": "cc3aa202-09ba-4b3c-990d-f15898fb852b",
      "meta": {
        "profile": [ "http://hl7.org/fhir/us/qicore/StructureDefinition/qicore-condition-encounter-diagnosis" ]
      },
      "category": [ {
        "coding": [ {
          "system": "http://terminology.hl7.org/CodeSystem/condition-category",
          "code": "encounter-diagnosis",
          "display": "Encounter Diagnosis"
        } ]
      } ],
      "code": {
        "coding": [ {
          "system": "http://snomed.info/sct",
          "code": "169826009",
          "display": "Single live birth from singleton pregnancy (finding)"
        } ]
      },
      "subject": {
        "reference": "Patient/9f57cf87-16db-42df-90fc-10b68d59c9af"
      },
      "encounter": {
        "reference": "Encounter/521383fe-ec82-4898-99a9-78141a373b62"
      }
    },
    "request": {
      "method": "PUT",
      "url": "Condition/cc3aa202-09ba-4b3c-990d-f15898fb852b"
    }
  }, {
    "fullUrl": "https://madie.cms.gov/Practitioner/6947f02a-62f3-4a48-9e9c-cd2603bcadf9",
    "resource": {
      "resourceType": "Practitioner",
      "id": "6947f02a-62f3-4a48-9e9c-cd2603bcadf9",
      "meta": {
        "profile": [ "http://hl7.org/fhir/us/qicore/StructureDefinition/qicore-practitioner" ]
      },
      "identifier": [ {
        "system": "http://hl7.org/fhir/sid/us-npi",
        "value": "1234567890"
      } ],
      "name": [ {
        "family": "Evil",
        "prefix": [ "Dr" ]
      } ]
    },
    "request": {
      "method": "PUT",
      "url": "Practitioner/6947f02a-62f3-4a48-9e9c-cd2603bcadf9"
    }
  }, {
    "fullUrl": "https://madie.cms.gov/MeasureReport/d31307ce-f88e-468d-a2ce-d0b8e947c8ce",
    "resource": {
      "resourceType": "MeasureReport",
      "id": "d31307ce-f88e-468d-a2ce-d0b8e947c8ce",
      "meta": {
        "profile": [ "http://hl7.org/fhir/us/cqfmeasures/StructureDefinition/test-case-cqfm" ]
      },
      "contained": [ {
        "resourceType": "Parameters",
        "id": "535e7266-272e-4ce4-ac7c-c8420676b4fd-parameters",
        "parameter": [ {
          "name": "subject",
          "valueString": "9f57cf87-16db-42df-90fc-10b68d59c9af"
        } ]
      } ],
      "extension": [ {
        "url": "http://hl7.org/fhir/StructureDefinition/cqf-inputParameters",
        "valueReference": {
          "reference": "#535e7266-272e-4ce4-ac7c-c8420676b4fd-parameters"
        }
      }, {
        "url": "http://hl7.org/fhir/us/cqfmeasures/StructureDefinition/cqfm-testCaseDescription",
        "valueMarkdown": "Passes IP,   Gravida 2, Parity has no result. *Note: if change to P0 will then pass even tho G2*\n"
      } ],
      "modifierExtension": [ {
        "url": "http://hl7.org/fhir/us/cqfmeasures/StructureDefinition/cqfm-isTestCase",
        "valueBoolean": true
      } ],
      "status": "complete",
      "type": "individual",
      "measure": "https://madie.cms.gov/Measure/CMS0334FHIRPCCesareanBirth",
      "period": {
        "start": "2026-01-01",
        "end": "2026-12-31"
      },
      "group": [ {
        "id": "Group_1",
        "population": [ {
          "id": "InitialPopulation_1",
          "code": {
            "coding": [ {
              "system": "http://terminology.hl7.org/CodeSystem/measure-population",
              "code": "initial-population",
              "display": "Initial Population"
            } ]
          },
          "count": 1
        }, {
          "id": "Denominator_1",
          "code": {
            "coding": [ {
              "system": "http://terminology.hl7.org/CodeSystem/measure-population",
              "code": "denominator",
              "display": "Denominator"
            } ]
          },
          "count": 0
        }, {
          "id": "DenominatorExclusion_1",
          "code": {
            "coding": [ {
              "system": "http://terminology.hl7.org/CodeSystem/measure-population",
              "code": "denominator-exclusion",
              "display": "Denominator Exclusion"
            } ]
          },
          "count": 0
        }, {
          "id": "Numerator_1",
          "code": {
            "coding": [ {
              "system": "http://terminology.hl7.org/CodeSystem/measure-population",
              "code": "numerator",
              "display": "Numerator"
            } ]
          },
          "count": 0
        } ],
        "measureScore": {
          "value": 0.0
        }
      } ],
      "evaluatedResource": [ {
        "reference": "Patient/9f57cf87-16db-42df-90fc-10b68d59c9af"
      }, {
        "reference": "Observation/0d6529e0-66b7-4608-af64-18d683fa1e03"
      }, {
        "reference": "Observation/9de2e001-c9ab-4818-b567-713538995686"
      }, {
        "reference": "Observation/49382c69-dfc7-45f5-b3c2-ac2dcfe33290"
      }, {
        "reference": "Observation/bdcdec88-c793-454e-8d30-f2fa60c10d56"
      }, {
        "reference": "Encounter/521383fe-ec82-4898-99a9-78141a373b62"
      }, {
        "reference": "Procedure/764ba592-b84d-4005-8597-2f57b303e929"
      }, {
        "reference": "Coverage/5cf209ab-6f1b-4c51-9552-9549412e66a6"
      }, {
        "reference": "Organization/06c294c0-059b-4e55-b0d3-48d637e7bad5"
      }, {
        "reference": "Condition/cc3aa202-09ba-4b3c-990d-f15898fb852b"
      }, {
        "reference": "Practitioner/6947f02a-62f3-4a48-9e9c-cd2603bcadf9"
      } ]
    },
    "request": {
      "method": "PUT",
      "url": "MeasureReport/d31307ce-f88e-468d-a2ce-d0b8e947c8ce"
    }
  } ]
}