{
  "resourceType": "Bundle",
  "id": "6101649298086b4fedf65e22",
  "type": "collection",
  "entry": [ {
    "fullUrl": "https://madie.cms.gov/Patient/bc79e5bc-237e-44be-b5fc-c5c4efb50286",
    "resource": {
      "resourceType": "Patient",
      "id": "bc79e5bc-237e-44be-b5fc-c5c4efb50286",
      "meta": {
        "profile": [ "http://hl7.org/fhir/us/qicore/StructureDefinition/qicore-patient" ]
      },
      "extension": [ {
        "url": "http://hl7.org/fhir/us/core/StructureDefinition/us-core-race",
        "extension": [ {
          "url": "ombCategory",
          "valueCoding": {
            "system": "urn:oid:2.16.840.1.113883.6.238",
            "code": "1002-5",
            "display": "American Indian or Alaska Native"
          }
        }, {
          "url": "text",
          "valueString": "American Indian or Alaska Native"
        } ]
      }, {
        "url": "http://hl7.org/fhir/us/core/StructureDefinition/us-core-ethnicity",
        "extension": [ {
          "url": "ombCategory",
          "valueCoding": {
            "system": "urn:oid:2.16.840.1.113883.6.238",
            "code": "2135-2",
            "display": "Hispanic or Latino"
          }
        }, {
          "url": "text",
          "valueString": "Hispanic or Latino"
        } ]
      }, {
        "url": "http://hl7.org/fhir/us/core/StructureDefinition/us-core-sex",
        "valueCode": "248153007"
      } ],
      "identifier": [ {
        "type": {
          "coding": [ {
            "system": "http://terminology.hl7.org/CodeSystem/v2-0203",
            "code": "MR"
          } ]
        },
        "system": "https://bonnie-fhir.healthit.gov/",
        "value": "465416131564861"
      } ],
      "active": true,
      "name": [ {
        "use": "usual",
        "family": "DENEXFail",
        "given": [ "BMIGreaterThan40After2ndUSS" ]
      } ],
      "gender": "male",
      "birthDate": "1945-11-18"
    }
  }, {
    "fullUrl": "https://madie.cms.gov/Encounter/af264565-9a54-4108-bab6-9f8a6276a676",
    "resource": {
      "resourceType": "Encounter",
      "id": "af264565-9a54-4108-bab6-9f8a6276a676",
      "meta": {
        "profile": [ "http://hl7.org/fhir/us/qicore/StructureDefinition/qicore-encounter" ]
      },
      "status": "finished",
      "class": {
        "system": "http://terminology.hl7.org/CodeSystem/v3-ActCode",
        "code": "AMB",
        "display": "ambulatory"
      },
      "type": [ {
        "coding": [ {
          "system": "http://snomed.info/sct",
          "version": "http://snomed.info/sct/731000124108/version/20240301",
          "code": "185463005",
          "display": "Visit out of hours (procedure)"
        } ]
      } ],
      "subject": {
        "reference": "Patient/bc79e5bc-237e-44be-b5fc-c5c4efb50286"
      },
      "period": {
        "start": "2026-03-01T09:00:00.000+00:00",
        "end": "2026-03-01T09:45:00.000+00:00"
      }
    }
  }, {
    "fullUrl": "https://madie.cms.gov/Observation/ee9e9254-471f-49e1-b133-a79061245127",
    "resource": {
      "resourceType": "Observation",
      "id": "ee9e9254-471f-49e1-b133-a79061245127",
      "meta": {
        "profile": [ "http://hl7.org/fhir/us/qicore/StructureDefinition/qicore-observation-screening-assessment" ]
      },
      "status": "final",
      "category": [ {
        "coding": [ {
          "system": "http://terminology.hl7.org/CodeSystem/observation-category",
          "code": "survey",
          "display": "Survey"
        } ],
        "text": "Survey"
      } ],
      "code": {
        "coding": [ {
          "system": "http://loinc.org",
          "version": "2.76",
          "code": "80976-4",
          "display": "International Prostate Symptom Score [IPSS]"
        } ]
      },
      "subject": {
        "reference": "Patient/bc79e5bc-237e-44be-b5fc-c5c4efb50286"
      },
      "effectiveDateTime": "2026-01-30T08:00:00.000+00:00",
      "valueInteger": 30
    }
  }, {
    "fullUrl": "https://madie.cms.gov/Observation/d3a529cd-321f-4d2b-9e37-e5131c338a83",
    "resource": {
      "resourceType": "Observation",
      "id": "d3a529cd-321f-4d2b-9e37-e5131c338a83",
      "meta": {
        "profile": [ "http://hl7.org/fhir/us/qicore/StructureDefinition/qicore-observation-screening-assessment" ]
      },
      "status": "final",
      "category": [ {
        "coding": [ {
          "system": "http://terminology.hl7.org/CodeSystem/observation-category",
          "code": "survey",
          "display": "Survey"
        } ],
        "text": "Survey"
      } ],
      "code": {
        "coding": [ {
          "system": "http://loinc.org",
          "version": "2.76",
          "code": "80976-4",
          "display": "International Prostate Symptom Score [IPSS]"
        } ]
      },
      "subject": {
        "reference": "Patient/bc79e5bc-237e-44be-b5fc-c5c4efb50286"
      },
      "effectiveDateTime": "2026-09-08T08:00:00.000+00:00",
      "valueInteger": 18
    }
  }, {
    "fullUrl": "https://madie.cms.gov/Observation/4faee276-1f36-404b-9ec5-85f3850eeec2",
    "resource": {
      "resourceType": "Observation",
      "id": "4faee276-1f36-404b-9ec5-85f3850eeec2",
      "meta": {
        "profile": [ "http://hl7.org/fhir/StructureDefinition/bmi" ]
      },
      "status": "final",
      "category": [ {
        "coding": [ {
          "system": "http://terminology.hl7.org/CodeSystem/observation-category",
          "code": "vital-signs",
          "display": "Vital Signs"
        } ],
        "text": "Vital Signs"
      }, {
        "coding": [ {
          "system": "http://terminology.hl7.org/CodeSystem/observation-category",
          "code": "survey",
          "display": "Survey"
        } ],
        "text": "Survey"
      } ],
      "code": {
        "coding": [ {
          "system": "http://loinc.org",
          "version": "2.76",
          "code": "39156-5",
          "display": "Body mass index (BMI) [Ratio]"
        } ]
      },
      "subject": {
        "reference": "Patient/bc79e5bc-237e-44be-b5fc-c5c4efb50286"
      },
      "effectiveDateTime": "2026-09-09T08:00:00.000+00:00",
      "valueQuantity": {
        "value": 41,
        "unit": "kg/m2",
        "system": "http://unitsofmeasure.org",
        "code": "kg/m2"
      }
    }
  }, {
    "fullUrl": "https://madie.cms.gov/Condition/9229c346-e995-4b6e-b8ea-bb436932a295",
    "resource": {
      "resourceType": "Condition",
      "id": "9229c346-e995-4b6e-b8ea-bb436932a295",
      "meta": {
        "profile": [ "http://hl7.org/fhir/us/qicore/StructureDefinition/qicore-condition-problems-health-concerns" ]
      },
      "clinicalStatus": {
        "coding": [ {
          "system": "http://terminology.hl7.org/CodeSystem/condition-clinical",
          "code": "active",
          "display": "Active"
        } ]
      },
      "verificationStatus": {
        "coding": [ {
          "system": "http://terminology.hl7.org/CodeSystem/condition-ver-status",
          "code": "confirmed",
          "display": "Confirmed"
        } ]
      },
      "category": [ {
        "coding": [ {
          "system": "http://terminology.hl7.org/CodeSystem/condition-category",
          "code": "problem-list-item",
          "display": "Problem List Item"
        } ]
      } ],
      "code": {
        "coding": [ {
          "system": "http://hl7.org/fhir/sid/icd-10-cm",
          "version": "2024",
          "code": "N40.1",
          "display": "Benign prostatic hyperplasia with lower urinary tract symptoms"
        } ]
      },
      "subject": {
        "reference": "Patient/bc79e5bc-237e-44be-b5fc-c5c4efb50286"
      },
      "onsetPeriod": {
        "start": "2025-12-31T08:00:00.000+00:00"
      }
    }
  }, {
    "fullUrl": "https://madie.cms.gov/MeasureReport/621196a7-ca5f-4408-8508-851332413956",
    "resource": {
      "resourceType": "MeasureReport",
      "id": "621196a7-ca5f-4408-8508-851332413956",
      "meta": {
        "profile": [ "http://hl7.org/fhir/us/cqfmeasures/StructureDefinition/test-case-cqfm" ]
      },
      "contained": [ {
        "resourceType": "Parameters",
        "id": "804e48c0-1774-4fdd-8c75-deb692e9046a-parameters",
        "parameter": [ {
          "name": "subject",
          "valueString": "bc79e5bc-237e-44be-b5fc-c5c4efb50286"
        } ]
      } ],
      "extension": [ {
        "url": "http://hl7.org/fhir/StructureDefinition/cqf-inputParameters",
        "valueReference": {
          "reference": "#804e48c0-1774-4fdd-8c75-deb692e9046a-parameters"
        }
      }, {
        "url": "http://hl7.org/fhir/us/cqfmeasures/StructureDefinition/cqfm-testCaseDescription",
        "valueMarkdown": "Male Patient with OV, BPH diagnosis, initial and second encounter. Patient has BMI > 40 but fails Denominator Exclusion due to it being after the followup (second) USS assessment"
      } ],
      "modifierExtension": [ {
        "url": "http://hl7.org/fhir/us/cqfmeasures/StructureDefinition/cqfm-isTestCase",
        "valueBoolean": true
      } ],
      "status": "complete",
      "type": "individual",
      "measure": "https://madie.cms.gov/Measure/CMS771FHIRUrinarySymptomScoreBPH",
      "period": {
        "start": "2026-01-01",
        "end": "2026-12-31"
      },
      "group": [ {
        "id": "Group_1",
        "population": [ {
          "id": "InitialPopulation_1",
          "code": {
            "coding": [ {
              "system": "http://terminology.hl7.org/CodeSystem/measure-population",
              "code": "initial-population",
              "display": "Initial Population"
            } ]
          },
          "count": 1
        }, {
          "id": "Denominator_1",
          "code": {
            "coding": [ {
              "system": "http://terminology.hl7.org/CodeSystem/measure-population",
              "code": "denominator",
              "display": "Denominator"
            } ]
          },
          "count": 1
        }, {
          "id": "DenominatorExclusion_1",
          "code": {
            "coding": [ {
              "system": "http://terminology.hl7.org/CodeSystem/measure-population",
              "code": "denominator-exclusion",
              "display": "Denominator Exclusion"
            } ]
          },
          "count": 0
        }, {
          "id": "Numerator_1",
          "code": {
            "coding": [ {
              "system": "http://terminology.hl7.org/CodeSystem/measure-population",
              "code": "numerator",
              "display": "Numerator"
            } ]
          },
          "count": 1
        } ],
        "measureScore": {
          "value": 1.0
        }
      } ],
      "evaluatedResource": [ {
        "reference": "Patient/bc79e5bc-237e-44be-b5fc-c5c4efb50286"
      }, {
        "reference": "Encounter/af264565-9a54-4108-bab6-9f8a6276a676"
      }, {
        "reference": "Observation/ee9e9254-471f-49e1-b133-a79061245127"
      }, {
        "reference": "Observation/d3a529cd-321f-4d2b-9e37-e5131c338a83"
      }, {
        "reference": "Observation/4faee276-1f36-404b-9ec5-85f3850eeec2"
      }, {
        "reference": "Condition/9229c346-e995-4b6e-b8ea-bb436932a295"
      } ]
    }
  } ]
}