{
  "resourceType": "Bundle",
  "id": "63487c2f0968f8012254018f",
  "type": "transaction",
  "entry": [ {
    "fullUrl": "https://madie.cms.gov/Patient/5bbc4c9f-8624-412e-bc07-74898e5f41ec",
    "resource": {
      "resourceType": "Patient",
      "id": "5bbc4c9f-8624-412e-bc07-74898e5f41ec",
      "meta": {
        "profile": [ "http://hl7.org/fhir/us/qicore/StructureDefinition/qicore-patient" ]
      },
      "text": {
        "status": "generated",
        "div": "<div xmlns=\"http://www.w3.org/1999/xhtml\"><div class=\"hapiHeaderText\">AssessPreTerm0RelPerStartTime42wksB4DelivDT<b>DENOMPass</b></div><table class=\"hapiPropertyTable\"><tbody><tr><td>Identifier</td><td>ae2c858214ff9b1ffdc193923955b0f25c757408279ae2f0e7ea89ca980dbad8</td></tr><tr><td>Date of birth</td><td><span>14 February 1985</span></td></tr></tbody></table></div>"
      },
      "extension": [ {
        "url": "http://hl7.org/fhir/us/core/StructureDefinition/us-core-race",
        "extension": [ {
          "url": "ombCategory",
          "valueCoding": {
            "system": "urn:oid:2.16.840.1.113883.6.238",
            "code": "1002-5",
            "display": "American Indian or Alaska Native",
            "userSelected": true
          }
        }, {
          "url": "text",
          "valueString": "American Indian or Alaska Native"
        } ]
      }, {
        "url": "http://hl7.org/fhir/us/core/StructureDefinition/us-core-ethnicity",
        "extension": [ {
          "url": "ombCategory",
          "valueCoding": {
            "system": "urn:oid:2.16.840.1.113883.6.238",
            "code": "2135-2",
            "display": "Hispanic or Latino",
            "userSelected": true
          }
        }, {
          "url": "text",
          "valueString": "Hispanic or Latino"
        } ]
      } ],
      "identifier": [ {
        "type": {
          "coding": [ {
            "system": "http://terminology.hl7.org/CodeSystem/v2-0203",
            "code": "MR"
          } ]
        },
        "system": "https://bonnie-fhir.healthit.gov/",
        "value": "63487c2f0968f8012254018f"
      } ],
      "active": true,
      "name": [ {
        "use": "usual",
        "family": "DENOMPass",
        "given": [ "AssessPreTerm0RelPerStartTime42wksB4DelivDT" ]
      } ],
      "gender": "female",
      "birthDate": "1998-02-14"
    },
    "request": {
      "method": "PUT",
      "url": "Patient/5bbc4c9f-8624-412e-bc07-74898e5f41ec"
    }
  }, {
    "fullUrl": "https://madie.cms.gov/Observation/901f00dc-3a21-4258-a657-3846deb75cfc",
    "resource": {
      "resourceType": "Observation",
      "id": "901f00dc-3a21-4258-a657-3846deb75cfc",
      "meta": {
        "profile": [ "http://hl7.org/fhir/us/qicore/StructureDefinition/qicore-simple-observation" ]
      },
      "status": "final",
      "category": [ {
        "coding": [ {
          "system": "http://terminology.hl7.org/CodeSystem/observation-category",
          "code": "exam",
          "display": "exam",
          "userSelected": true
        } ]
      } ],
      "code": {
        "coding": [ {
          "system": "http://loinc.org",
          "code": "11637-6"
        } ]
      },
      "subject": {
        "reference": "Patient/5bbc4c9f-8624-412e-bc07-74898e5f41ec"
      },
      "effectivePeriod": {
        "start": "2025-08-19T20:00:00.000+00:00",
        "end": "2025-08-19T20:00:00.000+00:00"
      },
      "performer": [ {
        "reference": "Organization/example1",
        "display": "Hendricks Country Hospital"
      } ],
      "valueInteger": 0
    },
    "request": {
      "method": "PUT",
      "url": "Observation/901f00dc-3a21-4258-a657-3846deb75cfc"
    }
  }, {
    "fullUrl": "https://madie.cms.gov/Observation/f4f67bea-f9b4-4854-a54e-7b616c3709c5",
    "resource": {
      "resourceType": "Observation",
      "id": "f4f67bea-f9b4-4854-a54e-7b616c3709c5",
      "meta": {
        "profile": [ "http://hl7.org/fhir/us/qicore/StructureDefinition/qicore-simple-observation" ]
      },
      "status": "final",
      "category": [ {
        "coding": [ {
          "system": "http://terminology.hl7.org/CodeSystem/observation-category",
          "code": "exam",
          "display": "exam",
          "userSelected": true
        } ]
      } ],
      "code": {
        "coding": [ {
          "system": "http://loinc.org",
          "code": "11639-2"
        } ]
      },
      "subject": {
        "reference": "Patient/5bbc4c9f-8624-412e-bc07-74898e5f41ec"
      },
      "effectiveDateTime": "2025-09-19T09:00:00.000+00:00",
      "performer": [ {
        "reference": "Organization/example1",
        "display": "Hendricks Country Hospital"
      } ],
      "valueInteger": 0
    },
    "request": {
      "method": "PUT",
      "url": "Observation/f4f67bea-f9b4-4854-a54e-7b616c3709c5"
    }
  }, {
    "fullUrl": "https://madie.cms.gov/Observation/253807f3-a1af-4611-a93e-9cdd4673d0f0",
    "resource": {
      "resourceType": "Observation",
      "id": "253807f3-a1af-4611-a93e-9cdd4673d0f0",
      "meta": {
        "profile": [ "http://hl7.org/fhir/us/qicore/StructureDefinition/qicore-simple-observation" ]
      },
      "status": "final",
      "category": [ {
        "coding": [ {
          "system": "http://terminology.hl7.org/CodeSystem/observation-category",
          "code": "exam",
          "display": "exam",
          "userSelected": true
        } ]
      } ],
      "code": {
        "coding": [ {
          "system": "http://loinc.org",
          "code": "11884-4"
        } ]
      },
      "subject": {
        "reference": "Patient/5bbc4c9f-8624-412e-bc07-74898e5f41ec"
      },
      "effectiveDateTime": "2026-06-08T20:00:00.000+00:00",
      "performer": [ {
        "reference": "Organization/example1",
        "display": "Hendricks Country Hospital"
      } ],
      "valueQuantity": {
        "value": 37,
        "system": "http://unitsofmeasure.org",
        "code": "wk"
      }
    },
    "request": {
      "method": "PUT",
      "url": "Observation/253807f3-a1af-4611-a93e-9cdd4673d0f0"
    }
  }, {
    "fullUrl": "https://madie.cms.gov/Observation/90c6fb8c-21fe-4b80-87d1-1422949014bd",
    "resource": {
      "resourceType": "Observation",
      "id": "90c6fb8c-21fe-4b80-87d1-1422949014bd",
      "meta": {
        "profile": [ "http://hl7.org/fhir/us/qicore/StructureDefinition/qicore-simple-observation" ]
      },
      "status": "final",
      "category": [ {
        "coding": [ {
          "system": "http://terminology.hl7.org/CodeSystem/observation-category",
          "code": "exam",
          "display": "exam",
          "userSelected": true
        } ]
      } ],
      "code": {
        "coding": [ {
          "system": "http://loinc.org",
          "code": "93857-1"
        } ]
      },
      "subject": {
        "reference": "Patient/5bbc4c9f-8624-412e-bc07-74898e5f41ec"
      },
      "effectiveDateTime": "2026-06-08T20:00:00.000+00:00",
      "performer": [ {
        "reference": "Organization/example1",
        "display": "Hendricks Country Hospital"
      } ],
      "valueDateTime": "2026-06-08T20:00:00.000+00:00"
    },
    "request": {
      "method": "PUT",
      "url": "Observation/90c6fb8c-21fe-4b80-87d1-1422949014bd"
    }
  }, {
    "fullUrl": "https://madie.cms.gov/Encounter/fd4a7fe0-3d7b-4be4-be04-c6ce96ea0973",
    "resource": {
      "resourceType": "Encounter",
      "id": "fd4a7fe0-3d7b-4be4-be04-c6ce96ea0973",
      "meta": {
        "profile": [ "http://hl7.org/fhir/us/qicore/StructureDefinition/qicore-encounter" ]
      },
      "status": "finished",
      "class": {
        "system": "http://terminology.hl7.org/CodeSystem/v3-ActCode",
        "code": "IMP",
        "display": "inpatient encounter"
      },
      "type": [ {
        "coding": [ {
          "system": "http://snomed.info/sct",
          "code": "8715000"
        } ]
      } ],
      "subject": {
        "reference": "Patient/5bbc4c9f-8624-412e-bc07-74898e5f41ec"
      },
      "period": {
        "start": "2026-06-08T08:00:00.000+00:00",
        "end": "2026-06-10T08:15:00.000+00:00"
      },
      "length": {
        "value": 2,
        "unit": "days"
      },
      "reasonCode": [ {
        "coding": [ {
          "system": "http://snomed.info/sct",
          "code": "169826009",
          "display": "Single live birth from singleton pregnancy (finding)"
        } ]
      } ]
    },
    "request": {
      "method": "PUT",
      "url": "Encounter/fd4a7fe0-3d7b-4be4-be04-c6ce96ea0973"
    }
  }, {
    "fullUrl": "https://madie.cms.gov/Procedure/50c23a51-7fce-4c0e-a53a-67efd2d0e01c",
    "resource": {
      "resourceType": "Procedure",
      "id": "50c23a51-7fce-4c0e-a53a-67efd2d0e01c",
      "meta": {
        "profile": [ "http://hl7.org/fhir/us/qicore/StructureDefinition/qicore-procedure" ]
      },
      "extension": [ {
        "url": "http://hl7.org/fhir/us/qicore/StructureDefinition/qicore-recorded",
        "valueDateTime": "2014-04-05T13:35:00.000+00:00"
      } ],
      "status": "completed",
      "code": {
        "coding": [ {
          "system": "http://www.cms.gov/Medicare/Coding/ICD10",
          "code": "10D00Z0"
        }, {
          "system": "http://snomed.info/sct",
          "code": "4504004"
        } ]
      },
      "subject": {
        "reference": "Patient/5bbc4c9f-8624-412e-bc07-74898e5f41ec"
      },
      "performedPeriod": {
        "start": "2026-06-08T20:00:00.000+00:00",
        "end": "2026-06-08T20:15:00.000+00:00"
      }
    },
    "request": {
      "method": "PUT",
      "url": "Procedure/50c23a51-7fce-4c0e-a53a-67efd2d0e01c"
    }
  }, {
    "fullUrl": "https://madie.cms.gov/Condition/e206ef76-357a-45b5-bdac-ef9f41e4c875",
    "resource": {
      "resourceType": "Condition",
      "id": "e206ef76-357a-45b5-bdac-ef9f41e4c875",
      "meta": {
        "profile": [ "http://hl7.org/fhir/us/qicore/StructureDefinition/qicore-condition-encounter-diagnosis" ]
      },
      "category": [ {
        "coding": [ {
          "system": "http://terminology.hl7.org/CodeSystem/condition-category",
          "code": "encounter-diagnosis",
          "display": "Encounter Diagnosis"
        } ]
      } ],
      "code": {
        "coding": [ {
          "system": "http://snomed.info/sct",
          "version": "2022-09",
          "code": "169826009",
          "display": "Single live birth (finding)",
          "userSelected": true
        } ]
      },
      "subject": {
        "reference": "Patient/5bbc4c9f-8624-412e-bc07-74898e5f41ec"
      },
      "encounter": {
        "reference": "Encounter/fd4a7fe0-3d7b-4be4-be04-c6ce96ea0973"
      },
      "recordedDate": "2026-10-20T08:00:00.000+00:00"
    },
    "request": {
      "method": "PUT",
      "url": "Condition/e206ef76-357a-45b5-bdac-ef9f41e4c875"
    }
  }, {
    "fullUrl": "https://madie.cms.gov/Coverage/a70ad362-a6cf-44f7-bed9-50fc021f0a14",
    "resource": {
      "resourceType": "Coverage",
      "id": "a70ad362-a6cf-44f7-bed9-50fc021f0a14",
      "meta": {
        "profile": [ "http://hl7.org/fhir/us/qicore/StructureDefinition/qicore-coverage" ]
      },
      "status": "active",
      "subscriberId": "523435",
      "beneficiary": {
        "reference": "Patient/5bbc4c9f-8624-412e-bc07-74898e5f41ec"
      },
      "relationship": {
        "coding": [ {
          "system": "http://terminology.hl7.org/CodeSystem/subscriber-relationship",
          "code": "self"
        } ]
      },
      "payor": [ {
        "reference": "Organization/0929bab8-d51b-48e8-8ae6-642898371a48"
      } ]
    },
    "request": {
      "method": "PUT",
      "url": "Coverage/a70ad362-a6cf-44f7-bed9-50fc021f0a14"
    }
  }, {
    "fullUrl": "https://madie.cms.gov/Organization/0929bab8-d51b-48e8-8ae6-642898371a48",
    "resource": {
      "resourceType": "Organization",
      "id": "0929bab8-d51b-48e8-8ae6-642898371a48",
      "meta": {
        "profile": [ "http://hl7.org/fhir/us/qicore/StructureDefinition/qicore-organization" ]
      },
      "identifier": [ {
        "use": "temp",
        "system": "urn:oid:2.16.840.1.113883.4.4",
        "value": "21-3259825"
      } ],
      "active": true,
      "type": [ {
        "coding": [ {
          "system": "http://terminology.hl7.org/CodeSystem/organization-type",
          "code": "pay",
          "display": "Payer"
        } ]
      } ],
      "name": "Blue Cross Blue Shield of Texas",
      "telecom": [ {
        "system": "phone",
        "value": "(+1) 972-766-6900"
      } ],
      "address": [ {
        "use": "billing",
        "type": "postal",
        "line": [ "P.O. Box 660044" ],
        "city": "Dallas",
        "state": "TX",
        "postalCode": "75266-0044",
        "country": "USA"
      } ]
    },
    "request": {
      "method": "PUT",
      "url": "Organization/0929bab8-d51b-48e8-8ae6-642898371a48"
    }
  }, {
    "fullUrl": "https://madie.cms.gov/Practitioner/a7c220c3-5102-4fbe-b403-beb1229656db",
    "resource": {
      "resourceType": "Practitioner",
      "id": "a7c220c3-5102-4fbe-b403-beb1229656db",
      "meta": {
        "profile": [ "http://hl7.org/fhir/us/qicore/StructureDefinition/qicore-practitioner" ]
      },
      "identifier": [ {
        "system": "http://hl7.org/fhir/sid/us-npi",
        "value": "1234567890"
      } ],
      "name": [ {
        "family": "Evil",
        "prefix": [ "Dr" ]
      } ]
    },
    "request": {
      "method": "PUT",
      "url": "Practitioner/a7c220c3-5102-4fbe-b403-beb1229656db"
    }
  }, {
    "fullUrl": "https://madie.cms.gov/MeasureReport/eeda8a40-fe20-4214-bc7c-74932cdcf480",
    "resource": {
      "resourceType": "MeasureReport",
      "id": "eeda8a40-fe20-4214-bc7c-74932cdcf480",
      "meta": {
        "profile": [ "http://hl7.org/fhir/us/cqfmeasures/StructureDefinition/test-case-cqfm" ]
      },
      "contained": [ {
        "resourceType": "Parameters",
        "id": "6bbd77ac-4b6a-4e52-bb95-974c38e5fb65-parameters",
        "parameter": [ {
          "name": "subject",
          "valueString": "5bbc4c9f-8624-412e-bc07-74898e5f41ec"
        } ]
      } ],
      "extension": [ {
        "url": "http://hl7.org/fhir/StructureDefinition/cqf-inputParameters",
        "valueReference": {
          "reference": "#6bbd77ac-4b6a-4e52-bb95-974c38e5fb65-parameters"
        }
      }, {
        "url": "http://hl7.org/fhir/us/cqfmeasures/StructureDefinition/cqfm-testCaseDescription",
        "valueMarkdown": "Testing relevant period start time for Assess PreTerm\n"
      } ],
      "modifierExtension": [ {
        "url": "http://hl7.org/fhir/us/cqfmeasures/StructureDefinition/cqfm-isTestCase",
        "valueBoolean": true
      } ],
      "status": "complete",
      "type": "individual",
      "measure": "https://madie.cms.gov/Measure/CMS0334FHIRPCCesareanBirth",
      "period": {
        "start": "2026-01-01",
        "end": "2026-12-31"
      },
      "group": [ {
        "id": "Group_1",
        "population": [ {
          "id": "InitialPopulation_1",
          "code": {
            "coding": [ {
              "system": "http://terminology.hl7.org/CodeSystem/measure-population",
              "code": "initial-population",
              "display": "Initial Population"
            } ]
          },
          "count": 1
        }, {
          "id": "Denominator_1",
          "code": {
            "coding": [ {
              "system": "http://terminology.hl7.org/CodeSystem/measure-population",
              "code": "denominator",
              "display": "Denominator"
            } ]
          },
          "count": 1
        }, {
          "id": "DenominatorExclusion_1",
          "code": {
            "coding": [ {
              "system": "http://terminology.hl7.org/CodeSystem/measure-population",
              "code": "denominator-exclusion",
              "display": "Denominator Exclusion"
            } ]
          },
          "count": 0
        }, {
          "id": "Numerator_1",
          "code": {
            "coding": [ {
              "system": "http://terminology.hl7.org/CodeSystem/measure-population",
              "code": "numerator",
              "display": "Numerator"
            } ]
          },
          "count": 1
        } ],
        "measureScore": {
          "value": 0.0
        }
      } ],
      "evaluatedResource": [ {
        "reference": "Patient/5bbc4c9f-8624-412e-bc07-74898e5f41ec"
      }, {
        "reference": "Observation/901f00dc-3a21-4258-a657-3846deb75cfc"
      }, {
        "reference": "Observation/f4f67bea-f9b4-4854-a54e-7b616c3709c5"
      }, {
        "reference": "Observation/253807f3-a1af-4611-a93e-9cdd4673d0f0"
      }, {
        "reference": "Observation/90c6fb8c-21fe-4b80-87d1-1422949014bd"
      }, {
        "reference": "Encounter/fd4a7fe0-3d7b-4be4-be04-c6ce96ea0973"
      }, {
        "reference": "Procedure/50c23a51-7fce-4c0e-a53a-67efd2d0e01c"
      }, {
        "reference": "Condition/e206ef76-357a-45b5-bdac-ef9f41e4c875"
      }, {
        "reference": "Coverage/a70ad362-a6cf-44f7-bed9-50fc021f0a14"
      }, {
        "reference": "Organization/0929bab8-d51b-48e8-8ae6-642898371a48"
      }, {
        "reference": "Practitioner/a7c220c3-5102-4fbe-b403-beb1229656db"
      } ]
    },
    "request": {
      "method": "PUT",
      "url": "MeasureReport/eeda8a40-fe20-4214-bc7c-74932cdcf480"
    }
  } ]
}