{
  "resourceType": "Bundle",
  "id": "DENEXPass-LymphaticMalignantNeoplasmCondEncDx",
  "type": "transaction",
  "entry": [ {
    "fullUrl": "https://madie.cms.gov/Patient/8a12314e-8bcf-43f2-9ea4-df06e8e2d2b1",
    "resource": {
      "resourceType": "Patient",
      "id": "8a12314e-8bcf-43f2-9ea4-df06e8e2d2b1",
      "meta": {
        "profile": [ "http://hl7.org/fhir/us/qicore/StructureDefinition/qicore-patient" ]
      },
      "extension": [ {
        "url": "http://hl7.org/fhir/us/core/StructureDefinition/us-core-race",
        "extension": [ {
          "url": "ombCategory",
          "valueCoding": {
            "system": "urn:oid:2.16.840.1.113883.6.238",
            "code": "2028-9",
            "display": "Asian"
          }
        }, {
          "url": "text",
          "valueString": "Asian"
        } ]
      }, {
        "url": "http://hl7.org/fhir/us/core/StructureDefinition/us-core-ethnicity",
        "extension": [ {
          "url": "ombCategory",
          "valueCoding": {
            "system": "urn:oid:2.16.840.1.113883.6.238",
            "code": "2135-2",
            "display": "Hispanic or Latino"
          }
        }, {
          "url": "text",
          "valueString": "Hispanic or Latino"
        } ]
      } ],
      "identifier": [ {
        "system": "http://hospital.smarthealthit.org",
        "value": "999999995"
      } ],
      "name": [ {
        "family": "Bertha",
        "given": [ "Betty" ]
      } ],
      "gender": "female",
      "birthDate": "2024-01-01"
    },
    "request": {
      "method": "PUT",
      "url": "Patient/8a12314e-8bcf-43f2-9ea4-df06e8e2d2b1"
    }
  }, {
    "fullUrl": "https://madie.cms.gov/Encounter/e7cc70a3-264f-4c92-b85e-3a3754db4055",
    "resource": {
      "resourceType": "Encounter",
      "id": "e7cc70a3-264f-4c92-b85e-3a3754db4055",
      "meta": {
        "profile": [ "http://hl7.org/fhir/us/qicore/StructureDefinition/qicore-encounter" ]
      },
      "status": "finished",
      "class": {
        "system": "http://terminology.hl7.org/CodeSystem/v3-ActCode",
        "code": "AMB",
        "display": "ambulatory"
      },
      "type": [ {
        "coding": [ {
          "system": "http://snomed.info/sct",
          "code": "185317003",
          "display": "Telephone encounter (procedure)"
        } ]
      } ],
      "subject": {
        "reference": "Patient/8a12314e-8bcf-43f2-9ea4-df06e8e2d2b1"
      },
      "period": {
        "start": "2026-01-01T01:00:00.000+00:00",
        "end": "2026-01-01T01:15:00.000+00:00"
      }
    },
    "request": {
      "method": "PUT",
      "url": "Encounter/e7cc70a3-264f-4c92-b85e-3a3754db4055"
    }
  }, {
    "fullUrl": "https://madie.cms.gov/Condition/924c0c4e-75ca-4d8a-96ac-5b0e55deabc9",
    "resource": {
      "resourceType": "Condition",
      "id": "924c0c4e-75ca-4d8a-96ac-5b0e55deabc9",
      "meta": {
        "profile": [ "http://hl7.org/fhir/us/qicore/StructureDefinition/qicore-condition-encounter-diagnosis" ]
      },
      "clinicalStatus": {
        "coding": [ {
          "system": "http://terminology.hl7.org/CodeSystem/condition-clinical",
          "code": "active"
        } ]
      },
      "category": [ {
        "coding": [ {
          "system": "http://terminology.hl7.org/CodeSystem/condition-category",
          "code": "encounter-diagnosis",
          "display": "Encounter Diagnosis"
        } ]
      } ],
      "code": {
        "coding": [ {
          "system": "http://snomed.info/sct",
          "code": "109989006",
          "display": "Multiple myeloma (disorder)"
        } ]
      },
      "subject": {
        "reference": "Patient/8a12314e-8bcf-43f2-9ea4-df06e8e2d2b1"
      },
      "onsetDateTime": "2025-01-02T00:00:00.000+00:00"
    },
    "request": {
      "method": "PUT",
      "url": "Condition/924c0c4e-75ca-4d8a-96ac-5b0e55deabc9"
    }
  }, {
    "fullUrl": "https://madie.cms.gov/Immunization/682af909-3d2f-4f68-8b4f-5d35c885ebe4",
    "resource": {
      "resourceType": "Immunization",
      "id": "682af909-3d2f-4f68-8b4f-5d35c885ebe4",
      "meta": {
        "profile": [ "http://hl7.org/fhir/us/qicore/StructureDefinition/qicore-immunization" ]
      },
      "status": "completed",
      "vaccineCode": {
        "coding": [ {
          "system": "http://hl7.org/fhir/sid/cvx",
          "code": "146",
          "display": "DTaP,IPV,Hib,HepB"
        } ]
      },
      "patient": {
        "reference": "Patient/8a12314e-8bcf-43f2-9ea4-df06e8e2d2b1"
      },
      "occurrenceDateTime": "2025-01-02T00:00:00.000+00:00",
      "recorded": "2025-01-02T00:00:00.000+00:00",
      "primarySource": true
    },
    "request": {
      "method": "PUT",
      "url": "Immunization/682af909-3d2f-4f68-8b4f-5d35c885ebe4"
    }
  }, {
    "fullUrl": "https://madie.cms.gov/Immunization/a596a2c6-683c-4cfd-871b-333c6961a1c7",
    "resource": {
      "resourceType": "Immunization",
      "id": "a596a2c6-683c-4cfd-871b-333c6961a1c7",
      "meta": {
        "profile": [ "http://hl7.org/fhir/us/qicore/StructureDefinition/qicore-immunization" ]
      },
      "status": "completed",
      "vaccineCode": {
        "coding": [ {
          "system": "http://hl7.org/fhir/sid/cvx",
          "code": "146",
          "display": "DTaP,IPV,Hib,HepB"
        } ]
      },
      "patient": {
        "reference": "Patient/8a12314e-8bcf-43f2-9ea4-df06e8e2d2b1"
      },
      "occurrenceDateTime": "2025-01-05T00:00:00.000+00:00",
      "recorded": "2025-01-02T00:00:00.000+00:00",
      "primarySource": true
    },
    "request": {
      "method": "PUT",
      "url": "Immunization/a596a2c6-683c-4cfd-871b-333c6961a1c7"
    }
  }, {
    "fullUrl": "https://madie.cms.gov/Immunization/a3bc3386-0fab-490a-9fe8-6c8ff7479df4",
    "resource": {
      "resourceType": "Immunization",
      "id": "a3bc3386-0fab-490a-9fe8-6c8ff7479df4",
      "meta": {
        "profile": [ "http://hl7.org/fhir/us/qicore/StructureDefinition/qicore-immunization" ]
      },
      "status": "completed",
      "vaccineCode": {
        "coding": [ {
          "system": "http://hl7.org/fhir/sid/cvx",
          "code": "146",
          "display": "DTaP,IPV,Hib,HepB"
        } ]
      },
      "patient": {
        "reference": "Patient/8a12314e-8bcf-43f2-9ea4-df06e8e2d2b1"
      },
      "occurrenceDateTime": "2025-01-07T00:00:00.000+00:00",
      "recorded": "2025-01-02T00:00:00.000+00:00",
      "primarySource": true
    },
    "request": {
      "method": "PUT",
      "url": "Immunization/a3bc3386-0fab-490a-9fe8-6c8ff7479df4"
    }
  }, {
    "fullUrl": "https://madie.cms.gov/Immunization/f4b719f4-c3df-4132-bb0a-83a32cc8742c",
    "resource": {
      "resourceType": "Immunization",
      "id": "f4b719f4-c3df-4132-bb0a-83a32cc8742c",
      "meta": {
        "profile": [ "http://hl7.org/fhir/us/qicore/StructureDefinition/qicore-immunization" ]
      },
      "status": "completed",
      "vaccineCode": {
        "coding": [ {
          "system": "http://hl7.org/fhir/sid/cvx",
          "code": "146",
          "display": "DTaP,IPV,Hib,HepB"
        } ]
      },
      "patient": {
        "reference": "Patient/8a12314e-8bcf-43f2-9ea4-df06e8e2d2b1"
      },
      "occurrenceDateTime": "2025-01-10T00:00:00.000+00:00",
      "recorded": "2025-01-02T00:00:00.000+00:00",
      "primarySource": true
    },
    "request": {
      "method": "PUT",
      "url": "Immunization/f4b719f4-c3df-4132-bb0a-83a32cc8742c"
    }
  }, {
    "fullUrl": "https://madie.cms.gov/Immunization/eb666b38-0fac-49ae-968b-0da7230952af",
    "resource": {
      "resourceType": "Immunization",
      "id": "eb666b38-0fac-49ae-968b-0da7230952af",
      "meta": {
        "profile": [ "http://hl7.org/fhir/us/qicore/StructureDefinition/qicore-immunization" ]
      },
      "status": "completed",
      "vaccineCode": {
        "coding": [ {
          "system": "http://hl7.org/fhir/sid/cvx",
          "code": "146",
          "display": "DTaP,IPV,Hib,HepB"
        } ]
      },
      "patient": {
        "reference": "Patient/8a12314e-8bcf-43f2-9ea4-df06e8e2d2b1"
      },
      "occurrenceDateTime": "2025-01-02T00:00:00.000+00:00",
      "recorded": "2025-01-02T00:00:00.000+00:00",
      "primarySource": true
    },
    "request": {
      "method": "PUT",
      "url": "Immunization/eb666b38-0fac-49ae-968b-0da7230952af"
    }
  }, {
    "fullUrl": "https://madie.cms.gov/Immunization/06de2aa0-06d7-4814-9eff-165666d40030",
    "resource": {
      "resourceType": "Immunization",
      "id": "06de2aa0-06d7-4814-9eff-165666d40030",
      "meta": {
        "profile": [ "http://hl7.org/fhir/us/qicore/StructureDefinition/qicore-immunization" ]
      },
      "status": "completed",
      "vaccineCode": {
        "coding": [ {
          "system": "http://hl7.org/fhir/sid/cvx",
          "code": "146",
          "display": "DTaP,IPV,Hib,HepB"
        } ]
      },
      "patient": {
        "reference": "Patient/8a12314e-8bcf-43f2-9ea4-df06e8e2d2b1"
      },
      "occurrenceDateTime": "2025-01-06T00:00:00.000+00:00",
      "recorded": "2025-01-02T00:00:00.000+00:00",
      "primarySource": true
    },
    "request": {
      "method": "PUT",
      "url": "Immunization/06de2aa0-06d7-4814-9eff-165666d40030"
    }
  }, {
    "fullUrl": "https://madie.cms.gov/Immunization/7799b2f2-573b-4a4b-a00c-0ee9d20c003d",
    "resource": {
      "resourceType": "Immunization",
      "id": "7799b2f2-573b-4a4b-a00c-0ee9d20c003d",
      "meta": {
        "profile": [ "http://hl7.org/fhir/us/qicore/StructureDefinition/qicore-immunization" ]
      },
      "status": "completed",
      "vaccineCode": {
        "coding": [ {
          "system": "http://hl7.org/fhir/sid/cvx",
          "code": "146",
          "display": "DTaP,IPV,Hib,HepB"
        } ]
      },
      "patient": {
        "reference": "Patient/8a12314e-8bcf-43f2-9ea4-df06e8e2d2b1"
      },
      "occurrenceDateTime": "2025-01-09T00:00:00.000+00:00",
      "recorded": "2025-01-02T00:00:00.000+00:00",
      "primarySource": true
    },
    "request": {
      "method": "PUT",
      "url": "Immunization/7799b2f2-573b-4a4b-a00c-0ee9d20c003d"
    }
  }, {
    "fullUrl": "https://madie.cms.gov/Immunization/490bd6d6-8baa-44da-a996-c1d1fa5171ef",
    "resource": {
      "resourceType": "Immunization",
      "id": "490bd6d6-8baa-44da-a996-c1d1fa5171ef",
      "meta": {
        "profile": [ "http://hl7.org/fhir/us/qicore/StructureDefinition/qicore-immunization" ]
      },
      "status": "completed",
      "vaccineCode": {
        "coding": [ {
          "system": "http://hl7.org/fhir/sid/cvx",
          "code": "94",
          "display": "measles, mumps, rubella, and varicella virus vaccine"
        } ]
      },
      "patient": {
        "reference": "Patient/8a12314e-8bcf-43f2-9ea4-df06e8e2d2b1"
      },
      "occurrenceDateTime": "2025-01-02T00:00:00.000+00:00",
      "recorded": "2025-01-02T00:00:00.000+00:00",
      "primarySource": true
    },
    "request": {
      "method": "PUT",
      "url": "Immunization/490bd6d6-8baa-44da-a996-c1d1fa5171ef"
    }
  }, {
    "fullUrl": "https://madie.cms.gov/Immunization/4a3649ec-e4b8-4a55-833a-4c75d1b151e6",
    "resource": {
      "resourceType": "Immunization",
      "id": "4a3649ec-e4b8-4a55-833a-4c75d1b151e6",
      "meta": {
        "profile": [ "http://hl7.org/fhir/us/qicore/StructureDefinition/qicore-immunization" ]
      },
      "status": "completed",
      "vaccineCode": {
        "coding": [ {
          "system": "http://hl7.org/fhir/sid/cvx",
          "code": "49",
          "display": "Haemophilus influenzae type b vaccine, PRP-OMP conjugate"
        } ]
      },
      "patient": {
        "reference": "Patient/8a12314e-8bcf-43f2-9ea4-df06e8e2d2b1"
      },
      "occurrenceDateTime": "2025-01-02T00:00:00.000+00:00",
      "recorded": "2025-01-02T00:00:00.000+00:00",
      "primarySource": true
    },
    "request": {
      "method": "PUT",
      "url": "Immunization/4a3649ec-e4b8-4a55-833a-4c75d1b151e6"
    }
  }, {
    "fullUrl": "https://madie.cms.gov/Immunization/44a44749-94f4-497f-9c11-6979f312262c",
    "resource": {
      "resourceType": "Immunization",
      "id": "44a44749-94f4-497f-9c11-6979f312262c",
      "meta": {
        "profile": [ "http://hl7.org/fhir/us/qicore/StructureDefinition/qicore-immunization" ]
      },
      "status": "completed",
      "vaccineCode": {
        "coding": [ {
          "system": "http://hl7.org/fhir/sid/cvx",
          "code": "49",
          "display": "Haemophilus influenzae type b vaccine, PRP-OMP conjugate"
        } ]
      },
      "patient": {
        "reference": "Patient/8a12314e-8bcf-43f2-9ea4-df06e8e2d2b1"
      },
      "occurrenceDateTime": "2025-01-02T00:00:00.000+00:00",
      "recorded": "2025-01-02T00:00:00.000+00:00",
      "primarySource": true
    },
    "request": {
      "method": "PUT",
      "url": "Immunization/44a44749-94f4-497f-9c11-6979f312262c"
    }
  }, {
    "fullUrl": "https://madie.cms.gov/Immunization/133105f3-9f15-48e8-aba0-eaae44652951",
    "resource": {
      "resourceType": "Immunization",
      "id": "133105f3-9f15-48e8-aba0-eaae44652951",
      "meta": {
        "profile": [ "http://hl7.org/fhir/us/qicore/StructureDefinition/qicore-immunization" ]
      },
      "status": "completed",
      "vaccineCode": {
        "coding": [ {
          "system": "http://hl7.org/fhir/sid/cvx",
          "code": "49",
          "display": "Haemophilus influenzae type b vaccine, PRP-OMP conjugate"
        } ]
      },
      "patient": {
        "reference": "Patient/8a12314e-8bcf-43f2-9ea4-df06e8e2d2b1"
      },
      "occurrenceDateTime": "2025-01-02T00:00:00.000+00:00",
      "recorded": "2025-01-02T00:00:00.000+00:00",
      "primarySource": true
    },
    "request": {
      "method": "PUT",
      "url": "Immunization/133105f3-9f15-48e8-aba0-eaae44652951"
    }
  }, {
    "fullUrl": "https://madie.cms.gov/Immunization/8727cedb-1627-4390-9cae-d27ad08a3a7a",
    "resource": {
      "resourceType": "Immunization",
      "id": "8727cedb-1627-4390-9cae-d27ad08a3a7a",
      "meta": {
        "profile": [ "http://hl7.org/fhir/us/qicore/StructureDefinition/qicore-immunization" ]
      },
      "status": "completed",
      "vaccineCode": {
        "coding": [ {
          "system": "http://hl7.org/fhir/sid/cvx",
          "code": "51",
          "display": "Haemophilus influenzae type b conjugate and Hepatitis B vaccine"
        } ]
      },
      "patient": {
        "reference": "Patient/8a12314e-8bcf-43f2-9ea4-df06e8e2d2b1"
      },
      "occurrenceDateTime": "2025-01-02T00:00:00.000+00:00",
      "recorded": "2025-01-02T00:00:00.000+00:00",
      "primarySource": true
    },
    "request": {
      "method": "PUT",
      "url": "Immunization/8727cedb-1627-4390-9cae-d27ad08a3a7a"
    }
  }, {
    "fullUrl": "https://madie.cms.gov/Immunization/59a1b2b3-4ecd-4960-85db-6765d89ef7bf",
    "resource": {
      "resourceType": "Immunization",
      "id": "59a1b2b3-4ecd-4960-85db-6765d89ef7bf",
      "meta": {
        "profile": [ "http://hl7.org/fhir/us/qicore/StructureDefinition/qicore-immunization" ]
      },
      "status": "completed",
      "vaccineCode": {
        "coding": [ {
          "system": "http://hl7.org/fhir/sid/cvx",
          "code": "51",
          "display": "Haemophilus influenzae type b conjugate and Hepatitis B vaccine"
        } ]
      },
      "patient": {
        "reference": "Patient/8a12314e-8bcf-43f2-9ea4-df06e8e2d2b1"
      },
      "occurrenceDateTime": "2025-01-10T00:00:00.000+00:00",
      "recorded": "2025-01-02T00:00:00.000+00:00",
      "primarySource": true
    },
    "request": {
      "method": "PUT",
      "url": "Immunization/59a1b2b3-4ecd-4960-85db-6765d89ef7bf"
    }
  }, {
    "fullUrl": "https://madie.cms.gov/Immunization/1e4452ee-a882-4097-8192-0322b9c45c50",
    "resource": {
      "resourceType": "Immunization",
      "id": "1e4452ee-a882-4097-8192-0322b9c45c50",
      "meta": {
        "profile": [ "http://hl7.org/fhir/us/qicore/StructureDefinition/qicore-immunization" ]
      },
      "status": "completed",
      "vaccineCode": {
        "coding": [ {
          "system": "http://hl7.org/fhir/sid/cvx",
          "code": "51",
          "display": "Haemophilus influenzae type b conjugate and Hepatitis B vaccine"
        } ]
      },
      "patient": {
        "reference": "Patient/8a12314e-8bcf-43f2-9ea4-df06e8e2d2b1"
      },
      "occurrenceDateTime": "2025-01-12T00:00:00.000+00:00",
      "recorded": "2025-01-02T00:00:00.000+00:00",
      "primarySource": true
    },
    "request": {
      "method": "PUT",
      "url": "Immunization/1e4452ee-a882-4097-8192-0322b9c45c50"
    }
  }, {
    "fullUrl": "https://madie.cms.gov/Immunization/b8daae5c-7799-4fbd-96c4-842572c928a6",
    "resource": {
      "resourceType": "Immunization",
      "id": "b8daae5c-7799-4fbd-96c4-842572c928a6",
      "meta": {
        "profile": [ "http://hl7.org/fhir/us/qicore/StructureDefinition/qicore-immunization" ]
      },
      "status": "completed",
      "vaccineCode": {
        "coding": [ {
          "system": "http://hl7.org/fhir/sid/cvx",
          "code": "94",
          "display": "measles, mumps, rubella, and varicella virus vaccine"
        } ]
      },
      "patient": {
        "reference": "Patient/8a12314e-8bcf-43f2-9ea4-df06e8e2d2b1"
      },
      "occurrenceDateTime": "2025-01-02T00:00:00.000+00:00",
      "recorded": "2025-01-02T00:00:00.000+00:00",
      "primarySource": true
    },
    "request": {
      "method": "PUT",
      "url": "Immunization/b8daae5c-7799-4fbd-96c4-842572c928a6"
    }
  }, {
    "fullUrl": "https://madie.cms.gov/Immunization/d7c1819a-87ca-4fb2-81fb-694e3affb9c4",
    "resource": {
      "resourceType": "Immunization",
      "id": "d7c1819a-87ca-4fb2-81fb-694e3affb9c4",
      "meta": {
        "profile": [ "http://hl7.org/fhir/us/qicore/StructureDefinition/qicore-immunization" ]
      },
      "status": "completed",
      "vaccineCode": {
        "coding": [ {
          "system": "http://hl7.org/fhir/sid/cvx",
          "code": "215",
          "display": "Pneumococcal conjugate vaccine 15-valent (PCV15), polysaccharide CRM197 conjugate, adjuvant, preservative free"
        } ]
      },
      "patient": {
        "reference": "Patient/8a12314e-8bcf-43f2-9ea4-df06e8e2d2b1"
      },
      "occurrenceDateTime": "2025-01-12T00:00:00.000+00:00",
      "recorded": "2025-01-02T00:00:00.000+00:00",
      "primarySource": true
    },
    "request": {
      "method": "PUT",
      "url": "Immunization/d7c1819a-87ca-4fb2-81fb-694e3affb9c4"
    }
  }, {
    "fullUrl": "https://madie.cms.gov/Immunization/dd0b79fc-45c3-4420-b917-e48f3f58994a",
    "resource": {
      "resourceType": "Immunization",
      "id": "dd0b79fc-45c3-4420-b917-e48f3f58994a",
      "meta": {
        "profile": [ "http://hl7.org/fhir/us/qicore/StructureDefinition/qicore-immunization" ]
      },
      "status": "completed",
      "vaccineCode": {
        "coding": [ {
          "system": "http://hl7.org/fhir/sid/cvx",
          "code": "215",
          "display": "Pneumococcal conjugate vaccine 15-valent (PCV15), polysaccharide CRM197 conjugate, adjuvant, preservative free"
        } ]
      },
      "patient": {
        "reference": "Patient/8a12314e-8bcf-43f2-9ea4-df06e8e2d2b1"
      },
      "occurrenceDateTime": "2025-01-14T00:00:00.000+00:00",
      "recorded": "2025-01-02T00:00:00.000+00:00",
      "primarySource": true
    },
    "request": {
      "method": "PUT",
      "url": "Immunization/dd0b79fc-45c3-4420-b917-e48f3f58994a"
    }
  }, {
    "fullUrl": "https://madie.cms.gov/Immunization/95132bd1-12e5-469b-82f2-5a8d1f071d1d",
    "resource": {
      "resourceType": "Immunization",
      "id": "95132bd1-12e5-469b-82f2-5a8d1f071d1d",
      "meta": {
        "profile": [ "http://hl7.org/fhir/us/qicore/StructureDefinition/qicore-immunization" ]
      },
      "status": "completed",
      "vaccineCode": {
        "coding": [ {
          "system": "http://hl7.org/fhir/sid/cvx",
          "code": "215",
          "display": "Pneumococcal conjugate vaccine 15-valent (PCV15), polysaccharide CRM197 conjugate, adjuvant, preservative free"
        } ]
      },
      "patient": {
        "reference": "Patient/8a12314e-8bcf-43f2-9ea4-df06e8e2d2b1"
      },
      "occurrenceDateTime": "2025-01-20T00:00:00.000+00:00",
      "recorded": "2025-01-02T00:00:00.000+00:00",
      "primarySource": true
    },
    "request": {
      "method": "PUT",
      "url": "Immunization/95132bd1-12e5-469b-82f2-5a8d1f071d1d"
    }
  }, {
    "fullUrl": "https://madie.cms.gov/Immunization/50b070c8-c0ec-4fdc-860d-18e43471bc5e",
    "resource": {
      "resourceType": "Immunization",
      "id": "50b070c8-c0ec-4fdc-860d-18e43471bc5e",
      "meta": {
        "profile": [ "http://hl7.org/fhir/us/qicore/StructureDefinition/qicore-immunization" ]
      },
      "status": "completed",
      "vaccineCode": {
        "coding": [ {
          "system": "http://hl7.org/fhir/sid/cvx",
          "code": "215",
          "display": "Pneumococcal conjugate vaccine 15-valent (PCV15), polysaccharide CRM197 conjugate, adjuvant, preservative free"
        } ]
      },
      "patient": {
        "reference": "Patient/8a12314e-8bcf-43f2-9ea4-df06e8e2d2b1"
      },
      "occurrenceDateTime": "2025-01-22T00:00:00.000+00:00",
      "recorded": "2025-01-02T00:00:00.000+00:00",
      "primarySource": true
    },
    "request": {
      "method": "PUT",
      "url": "Immunization/50b070c8-c0ec-4fdc-860d-18e43471bc5e"
    }
  }, {
    "fullUrl": "https://madie.cms.gov/Immunization/9bc0e585-e9c8-4b4f-b9e0-1bbb5a7f4ec3",
    "resource": {
      "resourceType": "Immunization",
      "id": "9bc0e585-e9c8-4b4f-b9e0-1bbb5a7f4ec3",
      "meta": {
        "profile": [ "http://hl7.org/fhir/us/qicore/StructureDefinition/qicore-immunization" ]
      },
      "status": "completed",
      "vaccineCode": {
        "coding": [ {
          "system": "http://hl7.org/fhir/sid/cvx",
          "code": "85",
          "display": "hepatitis A vaccine, unspecified formulation"
        } ]
      },
      "patient": {
        "reference": "Patient/8a12314e-8bcf-43f2-9ea4-df06e8e2d2b1"
      },
      "occurrenceDateTime": "2025-01-02T00:00:00.000+00:00",
      "recorded": "2025-01-02T00:00:00.000+00:00",
      "primarySource": true
    },
    "request": {
      "method": "PUT",
      "url": "Immunization/9bc0e585-e9c8-4b4f-b9e0-1bbb5a7f4ec3"
    }
  }, {
    "fullUrl": "https://madie.cms.gov/Immunization/2a14c71c-25a9-4e66-8490-37ee7679ca86",
    "resource": {
      "resourceType": "Immunization",
      "id": "2a14c71c-25a9-4e66-8490-37ee7679ca86",
      "meta": {
        "profile": [ "http://hl7.org/fhir/us/qicore/StructureDefinition/qicore-immunization" ]
      },
      "status": "completed",
      "vaccineCode": {
        "coding": [ {
          "system": "http://hl7.org/fhir/sid/cvx",
          "code": "119",
          "display": "rotavirus, live, monovalent vaccine"
        } ]
      },
      "patient": {
        "reference": "Patient/8a12314e-8bcf-43f2-9ea4-df06e8e2d2b1"
      },
      "occurrenceDateTime": "2025-01-02T00:00:00.000+00:00",
      "recorded": "2025-01-02T00:00:00.000+00:00",
      "primarySource": true
    },
    "request": {
      "method": "PUT",
      "url": "Immunization/2a14c71c-25a9-4e66-8490-37ee7679ca86"
    }
  }, {
    "fullUrl": "https://madie.cms.gov/Immunization/7ca94e1b-5f0c-4488-8c06-87c269d29a01",
    "resource": {
      "resourceType": "Immunization",
      "id": "7ca94e1b-5f0c-4488-8c06-87c269d29a01",
      "meta": {
        "profile": [ "http://hl7.org/fhir/us/qicore/StructureDefinition/qicore-immunization" ]
      },
      "status": "completed",
      "vaccineCode": {
        "coding": [ {
          "system": "http://hl7.org/fhir/sid/cvx",
          "code": "119",
          "display": "rotavirus, live, monovalent vaccine"
        } ]
      },
      "patient": {
        "reference": "Patient/8a12314e-8bcf-43f2-9ea4-df06e8e2d2b1"
      },
      "occurrenceDateTime": "2025-01-07T00:00:00.000+00:00",
      "recorded": "2025-01-02T00:00:00.000+00:00",
      "primarySource": true
    },
    "request": {
      "method": "PUT",
      "url": "Immunization/7ca94e1b-5f0c-4488-8c06-87c269d29a01"
    }
  }, {
    "fullUrl": "https://madie.cms.gov/Immunization/eabe0ddd-66f8-444e-8629-c80351fe3307",
    "resource": {
      "resourceType": "Immunization",
      "id": "eabe0ddd-66f8-444e-8629-c80351fe3307",
      "meta": {
        "profile": [ "http://hl7.org/fhir/us/qicore/StructureDefinition/qicore-immunization" ]
      },
      "status": "completed",
      "vaccineCode": {
        "coding": [ {
          "system": "http://hl7.org/fhir/sid/cvx",
          "code": "153",
          "display": "Influenza, injectable, MDCK, preservative free"
        } ]
      },
      "patient": {
        "reference": "Patient/8a12314e-8bcf-43f2-9ea4-df06e8e2d2b1"
      },
      "occurrenceDateTime": "2025-01-02T00:00:00.000+00:00",
      "recorded": "2025-01-02T00:00:00.000+00:00",
      "primarySource": true
    },
    "request": {
      "method": "PUT",
      "url": "Immunization/eabe0ddd-66f8-444e-8629-c80351fe3307"
    }
  }, {
    "fullUrl": "https://madie.cms.gov/Immunization/0a71054f-2de3-463f-8864-0b7d2121a70d",
    "resource": {
      "resourceType": "Immunization",
      "id": "0a71054f-2de3-463f-8864-0b7d2121a70d",
      "meta": {
        "profile": [ "http://hl7.org/fhir/us/qicore/StructureDefinition/qicore-immunization" ]
      },
      "status": "completed",
      "vaccineCode": {
        "coding": [ {
          "system": "http://hl7.org/fhir/sid/cvx",
          "code": "153",
          "display": "Influenza, injectable, MDCK, preservative free"
        } ]
      },
      "patient": {
        "reference": "Patient/8a12314e-8bcf-43f2-9ea4-df06e8e2d2b1"
      },
      "occurrenceDateTime": "2025-01-10T00:00:00.000+00:00",
      "recorded": "2025-01-02T00:00:00.000+00:00",
      "primarySource": true
    },
    "request": {
      "method": "PUT",
      "url": "Immunization/0a71054f-2de3-463f-8864-0b7d2121a70d"
    }
  }, {
    "fullUrl": "https://madie.cms.gov/MeasureReport/4aec1b16-8f58-4996-960c-c9f68a75c1d1",
    "resource": {
      "resourceType": "MeasureReport",
      "id": "4aec1b16-8f58-4996-960c-c9f68a75c1d1",
      "meta": {
        "profile": [ "http://hl7.org/fhir/us/cqfmeasures/StructureDefinition/test-case-cqfm" ]
      },
      "contained": [ {
        "resourceType": "Parameters",
        "id": "f35bae2b-8bf4-4738-8c0e-f9a710b71aa1-parameters",
        "parameter": [ {
          "name": "subject",
          "valueString": "8a12314e-8bcf-43f2-9ea4-df06e8e2d2b1"
        } ]
      } ],
      "extension": [ {
        "url": "http://hl7.org/fhir/StructureDefinition/cqf-inputParameters",
        "valueReference": {
          "reference": "#f35bae2b-8bf4-4738-8c0e-f9a710b71aa1-parameters"
        }
      }, {
        "url": "http://hl7.org/fhir/us/cqfmeasures/StructureDefinition/cqfm-testCaseDescription",
        "valueMarkdown": "Patient has lymphatic malignant neoplasm. Testing for condition encounter diagnosis to meet 100% coverage."
      } ],
      "modifierExtension": [ {
        "url": "http://hl7.org/fhir/us/cqfmeasures/StructureDefinition/cqfm-isTestCase",
        "valueBoolean": true
      } ],
      "status": "complete",
      "type": "individual",
      "measure": "https://madie.cms.gov/Measure/CMS117FHIRChildImmunStatus",
      "period": {
        "start": "2026-01-01",
        "end": "2026-12-31"
      },
      "group": [ {
        "id": "Group_1",
        "population": [ {
          "id": "InitialPopulation_1",
          "code": {
            "coding": [ {
              "system": "http://terminology.hl7.org/CodeSystem/measure-population",
              "code": "initial-population",
              "display": "Initial Population"
            } ]
          },
          "count": 1
        }, {
          "id": "Denominator_1",
          "code": {
            "coding": [ {
              "system": "http://terminology.hl7.org/CodeSystem/measure-population",
              "code": "denominator",
              "display": "Denominator"
            } ]
          },
          "count": 1
        }, {
          "id": "DenominatorExclusion_1",
          "code": {
            "coding": [ {
              "system": "http://terminology.hl7.org/CodeSystem/measure-population",
              "code": "denominator-exclusion",
              "display": "Denominator Exclusion"
            } ]
          },
          "count": 1
        }, {
          "id": "Numerator_1",
          "code": {
            "coding": [ {
              "system": "http://terminology.hl7.org/CodeSystem/measure-population",
              "code": "numerator",
              "display": "Numerator"
            } ]
          },
          "count": 0
        } ],
        "measureScore": {
          "value": 1.0
        }
      } ],
      "evaluatedResource": [ {
        "reference": "Patient/8a12314e-8bcf-43f2-9ea4-df06e8e2d2b1"
      }, {
        "reference": "Encounter/e7cc70a3-264f-4c92-b85e-3a3754db4055"
      }, {
        "reference": "Condition/924c0c4e-75ca-4d8a-96ac-5b0e55deabc9"
      }, {
        "reference": "Immunization/682af909-3d2f-4f68-8b4f-5d35c885ebe4"
      }, {
        "reference": "Immunization/a596a2c6-683c-4cfd-871b-333c6961a1c7"
      }, {
        "reference": "Immunization/a3bc3386-0fab-490a-9fe8-6c8ff7479df4"
      }, {
        "reference": "Immunization/f4b719f4-c3df-4132-bb0a-83a32cc8742c"
      }, {
        "reference": "Immunization/eb666b38-0fac-49ae-968b-0da7230952af"
      }, {
        "reference": "Immunization/06de2aa0-06d7-4814-9eff-165666d40030"
      }, {
        "reference": "Immunization/7799b2f2-573b-4a4b-a00c-0ee9d20c003d"
      }, {
        "reference": "Immunization/490bd6d6-8baa-44da-a996-c1d1fa5171ef"
      }, {
        "reference": "Immunization/4a3649ec-e4b8-4a55-833a-4c75d1b151e6"
      }, {
        "reference": "Immunization/44a44749-94f4-497f-9c11-6979f312262c"
      }, {
        "reference": "Immunization/133105f3-9f15-48e8-aba0-eaae44652951"
      }, {
        "reference": "Immunization/8727cedb-1627-4390-9cae-d27ad08a3a7a"
      }, {
        "reference": "Immunization/59a1b2b3-4ecd-4960-85db-6765d89ef7bf"
      }, {
        "reference": "Immunization/1e4452ee-a882-4097-8192-0322b9c45c50"
      }, {
        "reference": "Immunization/b8daae5c-7799-4fbd-96c4-842572c928a6"
      }, {
        "reference": "Immunization/d7c1819a-87ca-4fb2-81fb-694e3affb9c4"
      }, {
        "reference": "Immunization/dd0b79fc-45c3-4420-b917-e48f3f58994a"
      }, {
        "reference": "Immunization/95132bd1-12e5-469b-82f2-5a8d1f071d1d"
      }, {
        "reference": "Immunization/50b070c8-c0ec-4fdc-860d-18e43471bc5e"
      }, {
        "reference": "Immunization/9bc0e585-e9c8-4b4f-b9e0-1bbb5a7f4ec3"
      }, {
        "reference": "Immunization/2a14c71c-25a9-4e66-8490-37ee7679ca86"
      }, {
        "reference": "Immunization/7ca94e1b-5f0c-4488-8c06-87c269d29a01"
      }, {
        "reference": "Immunization/eabe0ddd-66f8-444e-8629-c80351fe3307"
      }, {
        "reference": "Immunization/0a71054f-2de3-463f-8864-0b7d2121a70d"
      } ]
    },
    "request": {
      "method": "PUT",
      "url": "MeasureReport/4aec1b16-8f58-4996-960c-c9f68a75c1d1"
    }
  } ]
}