{
  "resourceType": "Bundle",
  "id": "612e6f6002c62a011f2f1989",
  "type": "transaction",
  "entry": [ {
    "fullUrl": "https://madie.cms.gov/Patient/62663a2c-27c6-4dbf-8c16-f84700734204",
    "resource": {
      "resourceType": "Patient",
      "id": "62663a2c-27c6-4dbf-8c16-f84700734204",
      "meta": {
        "profile": [ "http://hl7.org/fhir/us/qicore/StructureDefinition/qicore-patient" ]
      },
      "text": {
        "status": "generated",
        "div": "<div xmlns=\"http://www.w3.org/1999/xhtml\"><div class=\"hapiHeaderText\">DxVTEDuringEDGT1hrB4Enc <b>IPPASS </b></div><table class=\"hapiPropertyTable\"><tbody><tr><td>Identifier</td><td>5834e23c307441a4d02e1245a3af3e165ea071f2007213b315046e3ff6ee189f</td></tr><tr><td>Date of birth</td><td><span>03 March 1974</span></td></tr></tbody></table></div>"
      },
      "extension": [ {
        "url": "http://hl7.org/fhir/us/core/StructureDefinition/us-core-race",
        "extension": [ {
          "url": "ombCategory",
          "valueCoding": {
            "system": "urn:oid:2.16.840.1.113883.6.238",
            "code": "1002-5",
            "display": "American Indian or Alaska Native",
            "userSelected": true
          }
        }, {
          "url": "text",
          "valueString": "American Indian or Alaska Native"
        } ]
      }, {
        "url": "http://hl7.org/fhir/us/core/StructureDefinition/us-core-ethnicity",
        "extension": [ {
          "url": "ombCategory",
          "valueCoding": {
            "system": "urn:oid:2.16.840.1.113883.6.238",
            "code": "2186-5",
            "display": "Not Hispanic or Latino",
            "userSelected": true
          }
        }, {
          "url": "text",
          "valueString": "Not Hispanic or Latino"
        } ]
      } ],
      "identifier": [ {
        "type": {
          "coding": [ {
            "system": "http://terminology.hl7.org/CodeSystem/v2-0203",
            "code": "MR"
          } ]
        },
        "system": "https://bonnie-fhir.healthit.gov/",
        "value": "612e6f6002c62a011f2f1989"
      } ],
      "active": true,
      "name": [ {
        "use": "usual",
        "family": "IPPass",
        "given": [ "DxVTEDuringEDGT1hrB4Enc" ]
      } ],
      "gender": "female",
      "birthDate": "1975-03-03"
    },
    "request": {
      "method": "PUT",
      "url": "Patient/62663a2c-27c6-4dbf-8c16-f84700734204"
    }
  }, {
    "fullUrl": "https://madie.cms.gov/Encounter/3b56c9ab-7f4e-4bcf-8328-7574305c16e2",
    "resource": {
      "resourceType": "Encounter",
      "id": "3b56c9ab-7f4e-4bcf-8328-7574305c16e2",
      "meta": {
        "profile": [ "http://hl7.org/fhir/us/qicore/StructureDefinition/qicore-encounter" ]
      },
      "status": "finished",
      "class": {
        "system": "http://terminology.hl7.org/CodeSystem/v3-ActCode",
        "code": "OBSENC",
        "display": "observation encounter"
      },
      "type": [ {
        "coding": [ {
          "system": "http://snomed.info/sct",
          "code": "4525004"
        } ]
      } ],
      "subject": {
        "reference": "Patient/62663a2c-27c6-4dbf-8c16-f84700734204"
      },
      "period": {
        "start": "2026-12-04T04:00:00.000+00:00",
        "end": "2026-12-04T07:50:00.000+00:00"
      },
      "length": {
        "value": 0,
        "unit": "days"
      }
    },
    "request": {
      "method": "PUT",
      "url": "Encounter/3b56c9ab-7f4e-4bcf-8328-7574305c16e2"
    }
  }, {
    "fullUrl": "https://madie.cms.gov/Encounter/48b3a0ec-55e5-4531-af03-0d568d5589d9",
    "resource": {
      "resourceType": "Encounter",
      "id": "48b3a0ec-55e5-4531-af03-0d568d5589d9",
      "meta": {
        "profile": [ "http://hl7.org/fhir/us/qicore/StructureDefinition/qicore-encounter" ]
      },
      "status": "finished",
      "class": {
        "system": "http://terminology.hl7.org/CodeSystem/v3-ActCode",
        "code": "IMP",
        "display": "inpatient encounter"
      },
      "type": [ {
        "coding": [ {
          "system": "http://snomed.info/sct",
          "code": "8715000"
        } ]
      } ],
      "subject": {
        "reference": "Patient/62663a2c-27c6-4dbf-8c16-f84700734204"
      },
      "period": {
        "start": "2026-12-04T09:00:00.000+00:00",
        "end": "2026-12-30T08:15:00.000+00:00"
      },
      "length": {
        "value": 26,
        "unit": "days"
      }
    },
    "request": {
      "method": "PUT",
      "url": "Encounter/48b3a0ec-55e5-4531-af03-0d568d5589d9"
    }
  }, {
    "fullUrl": "https://madie.cms.gov/Coverage/3c1266e3-03be-4929-83db-826aa97fb3cf",
    "resource": {
      "resourceType": "Coverage",
      "id": "3c1266e3-03be-4929-83db-826aa97fb3cf",
      "status": "active",
      "beneficiary": {
        "reference": "Patient/62663a2c-27c6-4dbf-8c16-f84700734204"
      },
      "period": {
        "start": "1975-03-03T08:00:00.000+00:00"
      },
      "payor": [ {
        "reference": "Organization/94857586-0c19-4523-8f08-d2998f49a73c"
      } ]
    },
    "request": {
      "method": "PUT",
      "url": "Coverage/3c1266e3-03be-4929-83db-826aa97fb3cf"
    }
  }, {
    "fullUrl": "https://madie.cms.gov/Condition/f0ec9d73-a5c2-48ca-8820-199ca81bb91b",
    "resource": {
      "resourceType": "Condition",
      "id": "f0ec9d73-a5c2-48ca-8820-199ca81bb91b",
      "meta": {
        "profile": [ "http://hl7.org/fhir/us/qicore/StructureDefinition/qicore-condition-problems-health-concerns" ]
      },
      "category": [ {
        "coding": [ {
          "system": "http://terminology.hl7.org/CodeSystem/condition-category",
          "code": "problem-list-item",
          "display": "Problem List Item"
        } ]
      } ],
      "code": {
        "coding": [ {
          "system": "http://snomed.info/sct",
          "code": "1001000119102"
        }, {
          "system": "http://hl7.org/fhir/sid/icd-10-cm",
          "code": "I26.02"
        } ]
      },
      "subject": {
        "reference": "Patient/62663a2c-27c6-4dbf-8c16-f84700734204"
      },
      "onsetPeriod": {
        "start": "2026-12-04T06:00:00.000+00:00"
      }
    },
    "request": {
      "method": "PUT",
      "url": "Condition/f0ec9d73-a5c2-48ca-8820-199ca81bb91b"
    }
  }, {
    "fullUrl": "https://madie.cms.gov/Organization/94857586-0c19-4523-8f08-d2998f49a73c",
    "resource": {
      "resourceType": "Organization",
      "id": "94857586-0c19-4523-8f08-d2998f49a73c",
      "meta": {
        "profile": [ "http://hl7.org/fhir/us/qicore/StructureDefinition/qicore-organization" ]
      },
      "identifier": [ {
        "use": "temp",
        "system": "urn:oid:2.16.840.1.113883.4.4",
        "value": "21-3259825"
      } ],
      "active": true,
      "type": [ {
        "coding": [ {
          "system": "http://terminology.hl7.org/CodeSystem/organization-type",
          "code": "pay",
          "display": "Payer"
        } ]
      } ],
      "name": "Blue Cross Blue Shield of Texas",
      "telecom": [ {
        "system": "phone",
        "value": "(+1) 972-766-6900"
      } ],
      "address": [ {
        "use": "billing",
        "type": "postal",
        "line": [ "P.O. Box 660044" ],
        "city": "Dallas",
        "state": "TX",
        "postalCode": "75266-0044",
        "country": "USA"
      } ]
    },
    "request": {
      "method": "PUT",
      "url": "Organization/94857586-0c19-4523-8f08-d2998f49a73c"
    }
  }, {
    "fullUrl": "https://madie.cms.gov/Practitioner/8384ddcb-84eb-458e-aa10-760aa4b90846",
    "resource": {
      "resourceType": "Practitioner",
      "id": "8384ddcb-84eb-458e-aa10-760aa4b90846",
      "identifier": [ {
        "system": "http://hl7.org/fhir/sid/us-npi",
        "value": "123456"
      } ],
      "name": [ {
        "family": "Evil",
        "prefix": [ "Dr" ]
      } ]
    },
    "request": {
      "method": "PUT",
      "url": "Practitioner/8384ddcb-84eb-458e-aa10-760aa4b90846"
    }
  }, {
    "fullUrl": "https://madie.cms.gov/MeasureReport/f95f596a-ac6f-4422-9491-cd23c2552f17",
    "resource": {
      "resourceType": "MeasureReport",
      "id": "f95f596a-ac6f-4422-9491-cd23c2552f17",
      "meta": {
        "profile": [ "http://hl7.org/fhir/us/cqfmeasures/StructureDefinition/test-case-cqfm" ]
      },
      "contained": [ {
        "resourceType": "Parameters",
        "id": "fde53c8a-7ef3-4c78-ab80-c294959756c8-parameters",
        "parameter": [ {
          "name": "subject",
          "valueString": "62663a2c-27c6-4dbf-8c16-f84700734204"
        } ]
      } ],
      "extension": [ {
        "url": "http://hl7.org/fhir/StructureDefinition/cqf-inputParameters",
        "valueReference": {
          "reference": "#fde53c8a-7ef3-4c78-ab80-c294959756c8-parameters"
        }
      }, {
        "url": "http://hl7.org/fhir/us/cqfmeasures/StructureDefinition/cqfm-testCaseDescription",
        "valueMarkdown": "Dx of Obstetrics VTE before Encouter\n"
      } ],
      "modifierExtension": [ {
        "url": "http://hl7.org/fhir/us/cqfmeasures/StructureDefinition/cqfm-isTestCase",
        "valueBoolean": true
      } ],
      "status": "complete",
      "type": "individual",
      "measure": "https://madie.cms.gov/Measure/CMS190FHIRVTEProphylaxisICU",
      "period": {
        "start": "2026-01-01",
        "end": "2026-12-31"
      },
      "group": [ {
        "id": "Group_1",
        "population": [ {
          "id": "InitialPopulation_1",
          "code": {
            "coding": [ {
              "system": "http://terminology.hl7.org/CodeSystem/measure-population",
              "code": "initial-population",
              "display": "Initial Population"
            } ]
          },
          "count": 1
        }, {
          "id": "Denominator_1",
          "code": {
            "coding": [ {
              "system": "http://terminology.hl7.org/CodeSystem/measure-population",
              "code": "denominator",
              "display": "Denominator"
            } ]
          },
          "count": 0
        }, {
          "id": "DenominatorExclusion_1",
          "code": {
            "coding": [ {
              "system": "http://terminology.hl7.org/CodeSystem/measure-population",
              "code": "denominator-exclusion",
              "display": "Denominator Exclusion"
            } ]
          },
          "count": 0
        }, {
          "id": "Numerator_1",
          "code": {
            "coding": [ {
              "system": "http://terminology.hl7.org/CodeSystem/measure-population",
              "code": "numerator",
              "display": "Numerator"
            } ]
          },
          "count": 0
        }, {
          "id": "DenominatorException_1",
          "code": {
            "coding": [ {
              "system": "http://terminology.hl7.org/CodeSystem/measure-population",
              "code": "denominator-exception",
              "display": "Denominator Exception"
            } ]
          },
          "count": 0
        } ],
        "measureScore": {
          "value": 0.0
        }
      } ],
      "evaluatedResource": [ {
        "reference": "Patient/62663a2c-27c6-4dbf-8c16-f84700734204"
      }, {
        "reference": "Encounter/3b56c9ab-7f4e-4bcf-8328-7574305c16e2"
      }, {
        "reference": "Encounter/48b3a0ec-55e5-4531-af03-0d568d5589d9"
      }, {
        "reference": "Coverage/3c1266e3-03be-4929-83db-826aa97fb3cf"
      }, {
        "reference": "Condition/f0ec9d73-a5c2-48ca-8820-199ca81bb91b"
      }, {
        "reference": "Organization/94857586-0c19-4523-8f08-d2998f49a73c"
      }, {
        "reference": "Practitioner/8384ddcb-84eb-458e-aa10-760aa4b90846"
      } ]
    },
    "request": {
      "method": "PUT",
      "url": "MeasureReport/f95f596a-ac6f-4422-9491-cd23c2552f17"
    }
  } ]
}