{
  "resourceType": "Bundle",
  "id": "62c880ed0111a60120dc2213",
  "type": "transaction",
  "entry": [ {
    "fullUrl": "https://madie.cms.gov/Patient/d8cb1d04-842e-4e67-93dc-5510163b7040",
    "resource": {
      "resourceType": "Patient",
      "id": "d8cb1d04-842e-4e67-93dc-5510163b7040",
      "meta": {
        "profile": [ "http://hl7.org/fhir/us/qicore/StructureDefinition/qicore-patient" ]
      },
      "text": {
        "status": "generated",
        "div": "<div xmlns=\"http://www.w3.org/1999/xhtml\"><div class=\"hapiHeaderText\">MultCancerDxRadTxInvalidCode<b>DENOMFailPop2</b></div><table class=\"hapiPropertyTable\"><tbody><tr><td>Date of birth</td><td><span>04 March 1978</span></td></tr></tbody></table></div>"
      },
      "extension": [ {
        "url": "http://hl7.org/fhir/us/core/StructureDefinition/us-core-race",
        "extension": [ {
          "url": "ombCategory",
          "valueCoding": {
            "system": "urn:oid:2.16.840.1.113883.6.238",
            "code": "1002-5",
            "display": "American Indian or Alaska Native",
            "userSelected": true
          }
        }, {
          "url": "text",
          "valueString": "American Indian or Alaska Native"
        } ]
      }, {
        "url": "http://hl7.org/fhir/us/core/StructureDefinition/us-core-ethnicity",
        "extension": [ {
          "url": "ombCategory",
          "valueCoding": {
            "system": "urn:oid:2.16.840.1.113883.6.238",
            "code": "2135-2",
            "display": "Hispanic or Latino",
            "userSelected": true
          }
        }, {
          "url": "text",
          "valueString": "Hispanic or Latino"
        } ]
      } ],
      "identifier": [ {
        "type": {
          "coding": [ {
            "system": "http://terminology.hl7.org/CodeSystem/v2-0203",
            "code": "MR"
          } ]
        },
        "system": "https://bonnie-fhir.healthit.gov/",
        "value": "62c880eb0111a60120dc21eb"
      } ],
      "active": true,
      "name": [ {
        "use": "usual",
        "family": "DENOMFailPop2",
        "given": [ "MultCancerDxRadTxInvalidCode" ]
      } ],
      "gender": "female",
      "birthDate": "1979-03-04"
    },
    "request": {
      "method": "PUT",
      "url": "Patient/d8cb1d04-842e-4e67-93dc-5510163b7040"
    }
  }, {
    "fullUrl": "https://madie.cms.gov/Condition/01f645fb-49bc-4504-8482-47a86faaf5d7",
    "resource": {
      "resourceType": "Condition",
      "id": "01f645fb-49bc-4504-8482-47a86faaf5d7",
      "meta": {
        "profile": [ "http://hl7.org/fhir/us/qicore/StructureDefinition/qicore-condition" ]
      },
      "clinicalStatus": {
        "coding": [ {
          "system": "http://terminology.hl7.org/CodeSystem/condition-clinical",
          "code": "active",
          "display": "active"
        } ]
      },
      "verificationStatus": {
        "coding": [ {
          "system": "http://terminology.hl7.org/CodeSystem/condition-ver-status",
          "code": "confirmed",
          "display": "confirmed"
        } ]
      },
      "category": [ {
        "coding": [ {
          "system": "http://terminology.hl7.org/CodeSystem/condition-category",
          "code": "problem-list-item",
          "display": "Problem List Item"
        } ]
      } ],
      "code": {
        "coding": [ {
          "system": "http://snomed.info/sct",
          "code": "107691000119101"
        } ]
      },
      "subject": {
        "reference": "Patient/d8cb1d04-842e-4e67-93dc-5510163b7040"
      },
      "onsetDateTime": "2026-01-10T08:00:00.000+00:00"
    },
    "request": {
      "method": "PUT",
      "url": "Condition/01f645fb-49bc-4504-8482-47a86faaf5d7"
    }
  }, {
    "fullUrl": "https://madie.cms.gov/Condition/3bb1a39f-68cd-420a-917f-df7208617dfe",
    "resource": {
      "resourceType": "Condition",
      "id": "3bb1a39f-68cd-420a-917f-df7208617dfe",
      "meta": {
        "profile": [ "http://hl7.org/fhir/us/qicore/StructureDefinition/qicore-condition" ]
      },
      "clinicalStatus": {
        "coding": [ {
          "system": "http://terminology.hl7.org/CodeSystem/condition-clinical",
          "code": "inactive",
          "display": "inactive"
        } ]
      },
      "verificationStatus": {
        "coding": [ {
          "system": "http://terminology.hl7.org/CodeSystem/condition-ver-status",
          "code": "confirmed",
          "display": "confirmed"
        } ]
      },
      "category": [ {
        "coding": [ {
          "system": "http://terminology.hl7.org/CodeSystem/condition-category",
          "code": "problem-list-item",
          "display": "Problem List Item"
        } ]
      } ],
      "code": {
        "coding": [ {
          "system": "http://hl7.org/fhir/sid/icd-10-cm",
          "code": "C02.3"
        } ]
      },
      "subject": {
        "reference": "Patient/d8cb1d04-842e-4e67-93dc-5510163b7040"
      },
      "onsetDateTime": "2026-03-10T08:00:00.000+00:00",
      "abatementDateTime": "2026-03-10T08:15:00.000+00:00"
    },
    "request": {
      "method": "PUT",
      "url": "Condition/3bb1a39f-68cd-420a-917f-df7208617dfe"
    }
  }, {
    "fullUrl": "https://madie.cms.gov/Coverage/6bebe6e0-8ef9-4de8-9c8d-2f3f28a2a8aa",
    "resource": {
      "resourceType": "Coverage",
      "id": "6bebe6e0-8ef9-4de8-9c8d-2f3f28a2a8aa",
      "meta": {
        "profile": [ "http://hl7.org/fhir/us/qicore/StructureDefinition/qicore-coverage" ]
      },
      "status": "active",
      "beneficiary": {
        "reference": "Patient/d8cb1d04-842e-4e67-93dc-5510163b7040"
      },
      "period": {
        "start": "1979-03-04T08:00:00.000+00:00"
      },
      "payor": [ {
        "reference": "Organization/b1d08f23-af63-4e78-bf8c-b93d8f2b7a59"
      } ]
    },
    "request": {
      "method": "PUT",
      "url": "Coverage/6bebe6e0-8ef9-4de8-9c8d-2f3f28a2a8aa"
    }
  }, {
    "fullUrl": "https://madie.cms.gov/Encounter/cacd8f5c-00fb-4980-ad23-0339b84df1ac",
    "resource": {
      "resourceType": "Encounter",
      "id": "cacd8f5c-00fb-4980-ad23-0339b84df1ac",
      "meta": {
        "profile": [ "http://hl7.org/fhir/us/qicore/StructureDefinition/qicore-encounter" ]
      },
      "status": "finished",
      "class": {
        "system": "http://terminology.hl7.org/CodeSystem/v3-ActCode",
        "code": "AMB",
        "display": "ambulatory",
        "userSelected": true
      },
      "type": [ {
        "coding": [ {
          "system": "http://www.ama-assn.org/go/cpt",
          "code": "00000"
        } ]
      } ],
      "subject": {
        "reference": "Patient/d8cb1d04-842e-4e67-93dc-5510163b7040"
      },
      "period": {
        "start": "2026-02-10T08:00:00.000+00:00",
        "end": "2026-02-10T08:15:00.000+00:00"
      }
    },
    "request": {
      "method": "PUT",
      "url": "Encounter/cacd8f5c-00fb-4980-ad23-0339b84df1ac"
    }
  }, {
    "fullUrl": "https://madie.cms.gov/Organization/b1d08f23-af63-4e78-bf8c-b93d8f2b7a59",
    "resource": {
      "resourceType": "Organization",
      "id": "b1d08f23-af63-4e78-bf8c-b93d8f2b7a59",
      "meta": {
        "profile": [ "http://hl7.org/fhir/us/qicore/StructureDefinition/qicore-organization" ]
      },
      "identifier": [ {
        "use": "temp",
        "system": "urn:oid:2.16.840.1.113883.4.4",
        "value": "21-3259825"
      } ],
      "active": true,
      "type": [ {
        "coding": [ {
          "system": "http://terminology.hl7.org/CodeSystem/organization-type",
          "code": "pay",
          "display": "Payer"
        } ]
      } ],
      "name": "Blue Cross Blue Shield of Texas",
      "telecom": [ {
        "system": "phone",
        "value": "(+1) 972-766-6900"
      } ],
      "address": [ {
        "use": "billing",
        "type": "postal",
        "line": [ "P.O. Box 660044" ],
        "city": "Dallas",
        "state": "TX",
        "postalCode": "75266-0044",
        "country": "USA"
      } ]
    },
    "request": {
      "method": "PUT",
      "url": "Organization/b1d08f23-af63-4e78-bf8c-b93d8f2b7a59"
    }
  }, {
    "fullUrl": "https://madie.cms.gov/Practitioner/bb0fe677-c009-42f9-90e7-1f435f961543",
    "resource": {
      "resourceType": "Practitioner",
      "id": "bb0fe677-c009-42f9-90e7-1f435f961543",
      "meta": {
        "profile": [ "http://hl7.org/fhir/us/qicore/StructureDefinition/qicore-practitioner" ]
      },
      "identifier": [ {
        "system": "http://hl7.org/fhir/sid/us-npi",
        "value": "123456"
      } ],
      "name": [ {
        "family": "Evil",
        "prefix": [ "Dr" ]
      } ]
    },
    "request": {
      "method": "PUT",
      "url": "Practitioner/bb0fe677-c009-42f9-90e7-1f435f961543"
    }
  }, {
    "fullUrl": "https://madie.cms.gov/MeasureReport/bbe22448-39c3-4d3f-b311-7499120891a2",
    "resource": {
      "resourceType": "MeasureReport",
      "id": "bbe22448-39c3-4d3f-b311-7499120891a2",
      "meta": {
        "profile": [ "http://hl7.org/fhir/us/cqfmeasures/StructureDefinition/test-case-cqfm" ]
      },
      "contained": [ {
        "resourceType": "Parameters",
        "id": "28afedb0-1325-4023-9879-81c4f3c1672c-parameters",
        "parameter": [ {
          "name": "subject",
          "valueString": "d8cb1d04-842e-4e67-93dc-5510163b7040"
        } ]
      } ],
      "extension": [ {
        "url": "http://hl7.org/fhir/StructureDefinition/cqf-inputParameters",
        "valueReference": {
          "reference": "#28afedb0-1325-4023-9879-81c4f3c1672c-parameters"
        }
      }, {
        "url": "http://hl7.org/fhir/us/cqfmeasures/StructureDefinition/cqfm-testCaseDescription",
        "valueMarkdown": " Patient has more than one cancer diagnoses on different dates within the measurement period. 1 cancer diagnosis overlaps radiation treatment management but radiation treatment management code is invalid. \n"
      } ],
      "modifierExtension": [ {
        "url": "http://hl7.org/fhir/us/cqfmeasures/StructureDefinition/cqfm-isTestCase",
        "valueBoolean": true
      } ],
      "status": "complete",
      "type": "individual",
      "measure": "https://madie.cms.gov/Measure/CMS157FHIRPainIntensityQuantified",
      "period": {
        "start": "2026-01-01",
        "end": "2026-12-31"
      },
      "group": [ {
        "id": "Group_1",
        "population": [ {
          "id": "InitialPopulation_1",
          "code": {
            "coding": [ {
              "system": "http://terminology.hl7.org/CodeSystem/measure-population",
              "code": "initial-population",
              "display": "Initial Population"
            } ]
          },
          "count": 0
        }, {
          "id": "Denominator_1",
          "code": {
            "coding": [ {
              "system": "http://terminology.hl7.org/CodeSystem/measure-population",
              "code": "denominator",
              "display": "Denominator"
            } ]
          },
          "count": 0
        }, {
          "id": "Numerator_1",
          "code": {
            "coding": [ {
              "system": "http://terminology.hl7.org/CodeSystem/measure-population",
              "code": "numerator",
              "display": "Numerator"
            } ]
          },
          "count": 0
        } ],
        "measureScore": {
          "value": 0.0
        }
      }, {
        "id": "Group_2",
        "population": [ {
          "id": "InitialPopulation_2",
          "code": {
            "coding": [ {
              "system": "http://terminology.hl7.org/CodeSystem/measure-population",
              "code": "initial-population",
              "display": "Initial Population"
            } ]
          },
          "count": 0
        }, {
          "id": "Denominator_2",
          "code": {
            "coding": [ {
              "system": "http://terminology.hl7.org/CodeSystem/measure-population",
              "code": "denominator",
              "display": "Denominator"
            } ]
          },
          "count": 0
        }, {
          "id": "Numerator_2",
          "code": {
            "coding": [ {
              "system": "http://terminology.hl7.org/CodeSystem/measure-population",
              "code": "numerator",
              "display": "Numerator"
            } ]
          },
          "count": 0
        } ],
        "measureScore": {
          "value": 0.0
        }
      } ],
      "evaluatedResource": [ {
        "reference": "Patient/d8cb1d04-842e-4e67-93dc-5510163b7040"
      }, {
        "reference": "Condition/01f645fb-49bc-4504-8482-47a86faaf5d7"
      }, {
        "reference": "Condition/3bb1a39f-68cd-420a-917f-df7208617dfe"
      }, {
        "reference": "Coverage/6bebe6e0-8ef9-4de8-9c8d-2f3f28a2a8aa"
      }, {
        "reference": "Encounter/cacd8f5c-00fb-4980-ad23-0339b84df1ac"
      }, {
        "reference": "Organization/b1d08f23-af63-4e78-bf8c-b93d8f2b7a59"
      }, {
        "reference": "Practitioner/bb0fe677-c009-42f9-90e7-1f435f961543"
      } ]
    },
    "request": {
      "method": "PUT",
      "url": "MeasureReport/bbe22448-39c3-4d3f-b311-7499120891a2"
    }
  } ]
}