{
  "resourceType": "Bundle",
  "id": "tests-NUMERPass-1Encounter3GlucoseResultsLT40-bundle",
  "type": "transaction",
  "entry": [ {
    "fullUrl": "https://madie.cms.gov/Encounter/f7d8199a-634a-4561-9db6-58dfdd97c390",
    "resource": {
      "resourceType": "Encounter",
      "id": "f7d8199a-634a-4561-9db6-58dfdd97c390",
      "meta": {
        "profile": [ "http://hl7.org/fhir/us/qicore/StructureDefinition/qicore-encounter" ]
      },
      "status": "finished",
      "class": {
        "system": "http://terminology.hl7.org/CodeSystem/v3-ActCode",
        "code": "IMP",
        "display": "Inpatient encounter"
      },
      "type": [ {
        "coding": [ {
          "system": "http://snomed.info/sct",
          "code": "183452005",
          "display": "Inpatient encounter"
        } ]
      } ],
      "period": {
        "start": "2026-02-03T08:00:00.000+00:00",
        "end": "2026-02-06T08:15:00.000+00:00"
      }
    },
    "request": {
      "method": "PUT",
      "url": "Encounter/f7d8199a-634a-4561-9db6-58dfdd97c390"
    }
  }, {
    "fullUrl": "https://madie.cms.gov/MedicationAdministration/a17c7816-ca24-406f-a574-2a83e9f265f9",
    "resource": {
      "resourceType": "MedicationAdministration",
      "id": "a17c7816-ca24-406f-a574-2a83e9f265f9",
      "meta": {
        "profile": [ "http://hl7.org/fhir/us/qicore/StructureDefinition/qicore-medicationadministration" ]
      },
      "status": "completed",
      "medicationCodeableConcept": {
        "coding": [ {
          "system": "http://www.nlm.nih.gov/research/umls/rxnorm",
          "code": "1652239",
          "display": "Hypoglycemics Severe Hypoglycemia"
        } ]
      },
      "subject": {
        "reference": "Patient/2adf5469-46a1-4020-be3b-01f91f8acc9d"
      },
      "effectivePeriod": {
        "start": "2026-02-04T08:00:00.000+00:00",
        "end": "2026-02-04T08:15:00.000+00:00"
      }
    },
    "request": {
      "method": "PUT",
      "url": "MedicationAdministration/a17c7816-ca24-406f-a574-2a83e9f265f9"
    }
  }, {
    "fullUrl": "https://madie.cms.gov/Observation/5ed80e77-f9e4-4914-ab3f-80d8624eb765",
    "resource": {
      "resourceType": "Observation",
      "id": "5ed80e77-f9e4-4914-ab3f-80d8624eb765",
      "meta": {
        "profile": [ "http://hl7.org/fhir/us/qicore/StructureDefinition/qicore-observation-lab" ]
      },
      "status": "final",
      "code": {
        "coding": [ {
          "system": "http://loinc.org",
          "code": "1556-0",
          "display": "Glucose Lab Test Mass Per Volume"
        } ]
      },
      "subject": {
        "reference": "Patient/2adf5469-46a1-4020-be3b-01f91f8acc9d"
      },
      "effectivePeriod": {
        "start": "2026-02-04T11:45:00.000+00:00",
        "end": "2026-02-04T11:45:00.000+00:00"
      },
      "issued": "2026-02-04T11:45:00.000+00:00",
      "valueQuantity": {
        "value": 30,
        "unit": "mg/dL"
      }
    },
    "request": {
      "method": "PUT",
      "url": "Observation/5ed80e77-f9e4-4914-ab3f-80d8624eb765"
    }
  }, {
    "fullUrl": "https://madie.cms.gov/Observation/eec4c9af-4eec-4701-912c-525050d81083",
    "resource": {
      "resourceType": "Observation",
      "id": "eec4c9af-4eec-4701-912c-525050d81083",
      "meta": {
        "profile": [ "http://hl7.org/fhir/us/qicore/StructureDefinition/qicore-observation-lab" ]
      },
      "status": "final",
      "code": {
        "coding": [ {
          "system": "http://loinc.org",
          "code": "1556-0",
          "display": "Glucose Lab Test Mass Per Volume"
        } ]
      },
      "subject": {
        "reference": "Patient/2adf5469-46a1-4020-be3b-01f91f8acc9d"
      },
      "effectivePeriod": {
        "start": "2026-02-04T10:00:00.000+00:00",
        "end": "2026-02-04T10:00:00.000+00:00"
      },
      "issued": "2026-02-04T10:00:00.000+00:00",
      "valueQuantity": {
        "value": 39,
        "unit": "mg/dL"
      }
    },
    "request": {
      "method": "PUT",
      "url": "Observation/eec4c9af-4eec-4701-912c-525050d81083"
    }
  }, {
    "fullUrl": "https://madie.cms.gov/Observation/f4ae63b5-fd8e-421d-8bbb-99f2265cc189",
    "resource": {
      "resourceType": "Observation",
      "id": "f4ae63b5-fd8e-421d-8bbb-99f2265cc189",
      "meta": {
        "profile": [ "http://hl7.org/fhir/us/qicore/StructureDefinition/qicore-observation-lab" ]
      },
      "status": "final",
      "code": {
        "coding": [ {
          "system": "http://loinc.org",
          "code": "1556-0",
          "display": "Glucose Lab Test Mass Per Volume"
        } ]
      },
      "subject": {
        "reference": "Patient/2adf5469-46a1-4020-be3b-01f91f8acc9d"
      },
      "effectivePeriod": {
        "start": "2026-02-05T07:00:00.000+00:00",
        "end": "2026-02-05T07:00:00.000+00:00"
      },
      "issued": "2026-02-05T07:00:00.000+00:00",
      "valueQuantity": {
        "value": 30,
        "unit": "mg/dL"
      }
    },
    "request": {
      "method": "PUT",
      "url": "Observation/f4ae63b5-fd8e-421d-8bbb-99f2265cc189"
    }
  }, {
    "fullUrl": "https://madie.cms.gov/Patient/2adf5469-46a1-4020-be3b-01f91f8acc9d",
    "resource": {
      "resourceType": "Patient",
      "id": "2adf5469-46a1-4020-be3b-01f91f8acc9d",
      "meta": {
        "profile": [ "http://hl7.org/fhir/us/qicore/StructureDefinition/qicore-patient" ]
      },
      "extension": [ {
        "url": "http://hl7.org/fhir/us/core/StructureDefinition/us-core-race",
        "extension": [ {
          "url": "ombCategory",
          "valueCoding": {
            "system": "urn:oid:2.16.840.1.113883.6.238",
            "code": "2106-3",
            "display": "White"
          }
        }, {
          "url": "text",
          "valueString": "White"
        } ]
      }, {
        "url": "http://hl7.org/fhir/us/core/StructureDefinition/us-core-ethnicity",
        "extension": [ {
          "url": "ombCategory",
          "valueCoding": {
            "system": "urn:oid:2.16.840.1.113883.6.238",
            "code": "2135-2",
            "display": "Hispanic or Latino"
          }
        }, {
          "url": "text",
          "valueString": "Hispanic or Latino"
        } ]
      }, {
        "url": "http://hl7.org/fhir/us/core/StructureDefinition/us-core-sex",
        "valueCode": "248153007"
      } ],
      "identifier": [ {
        "system": "http://hospital.smarthealthit.org",
        "value": "999999999"
      } ],
      "name": [ {
        "family": "Example",
        "given": [ "Patient" ]
      } ],
      "gender": "female",
      "birthDate": "2000-02-03"
    },
    "request": {
      "method": "PUT",
      "url": "Patient/2adf5469-46a1-4020-be3b-01f91f8acc9d"
    }
  }, {
    "fullUrl": "https://madie.cms.gov/MeasureReport/af8c832f-f1ad-407a-9751-575339d08367",
    "resource": {
      "resourceType": "MeasureReport",
      "id": "af8c832f-f1ad-407a-9751-575339d08367",
      "meta": {
        "profile": [ "http://hl7.org/fhir/us/cqfmeasures/StructureDefinition/test-case-cqfm" ]
      },
      "contained": [ {
        "resourceType": "Parameters",
        "id": "28607322-efe5-4f9a-b09c-9d5d58ec3fc1-parameters",
        "parameter": [ {
          "name": "subject",
          "valueString": "2adf5469-46a1-4020-be3b-01f91f8acc9d"
        } ]
      } ],
      "extension": [ {
        "url": "http://hl7.org/fhir/StructureDefinition/cqf-inputParameters",
        "valueReference": {
          "reference": "#28607322-efe5-4f9a-b09c-9d5d58ec3fc1-parameters"
        }
      }, {
        "url": "http://hl7.org/fhir/us/cqfmeasures/StructureDefinition/cqfm-testCaseDescription",
        "valueMarkdown": "Encounter with meds and 3 glucose labs. All results are less than 40, and all within 24 hours of hypo med. Meets num = 1 harm per encounter."
      } ],
      "modifierExtension": [ {
        "url": "http://hl7.org/fhir/us/cqfmeasures/StructureDefinition/cqfm-isTestCase",
        "valueBoolean": true
      } ],
      "status": "complete",
      "type": "individual",
      "measure": "https://madie.cms.gov/Measure/CMS816FHIRHHHypo",
      "period": {
        "start": "2026-01-01",
        "end": "2026-12-31"
      },
      "group": [ {
        "id": "Group_1",
        "population": [ {
          "id": "InitialPopulation_1",
          "code": {
            "coding": [ {
              "system": "http://terminology.hl7.org/CodeSystem/measure-population",
              "code": "initial-population",
              "display": "Initial Population"
            } ]
          },
          "count": 1
        }, {
          "id": "Denominator_1",
          "code": {
            "coding": [ {
              "system": "http://terminology.hl7.org/CodeSystem/measure-population",
              "code": "denominator",
              "display": "Denominator"
            } ]
          },
          "count": 1
        }, {
          "id": "Numerator_1",
          "code": {
            "coding": [ {
              "system": "http://terminology.hl7.org/CodeSystem/measure-population",
              "code": "numerator",
              "display": "Numerator"
            } ]
          },
          "count": 1
        } ],
        "measureScore": {
          "value": 0.0
        }
      } ],
      "evaluatedResource": [ {
        "reference": "Encounter/f7d8199a-634a-4561-9db6-58dfdd97c390"
      }, {
        "reference": "MedicationAdministration/a17c7816-ca24-406f-a574-2a83e9f265f9"
      }, {
        "reference": "Observation/5ed80e77-f9e4-4914-ab3f-80d8624eb765"
      }, {
        "reference": "Observation/eec4c9af-4eec-4701-912c-525050d81083"
      }, {
        "reference": "Observation/f4ae63b5-fd8e-421d-8bbb-99f2265cc189"
      }, {
        "reference": "Patient/2adf5469-46a1-4020-be3b-01f91f8acc9d"
      } ]
    },
    "request": {
      "method": "PUT",
      "url": "MeasureReport/af8c832f-f1ad-407a-9751-575339d08367"
    }
  } ]
}