{
  "resourceType": "Bundle",
  "id": "62fa764613ff3e2aae784d72",
  "type": "collection",
  "entry": [ {
    "fullUrl": "https://madie.cms.gov/Patient/e656adac-2016-40a4-833f-0c5a02952ba3",
    "resource": {
      "resourceType": "Patient",
      "id": "e656adac-2016-40a4-833f-0c5a02952ba3",
      "meta": {
        "profile": [ "http://hl7.org/fhir/us/qicore/StructureDefinition/qicore-patient" ]
      },
      "extension": [ {
        "url": "http://hl7.org/fhir/us/core/StructureDefinition/us-core-race",
        "extension": [ {
          "url": "ombCategory",
          "valueCoding": {
            "system": "urn:oid:2.16.840.1.113883.6.238",
            "code": "2106-3",
            "display": "White",
            "userSelected": true
          }
        }, {
          "url": "text",
          "valueString": "White"
        } ]
      }, {
        "url": "http://hl7.org/fhir/us/core/StructureDefinition/us-core-ethnicity",
        "extension": [ {
          "url": "ombCategory",
          "valueCoding": {
            "system": "urn:oid:2.16.840.1.113883.6.238",
            "code": "2135-2",
            "display": "Hispanic or Latino",
            "userSelected": true
          }
        }, {
          "url": "text",
          "valueString": "Hispanic or Latino"
        } ]
      } ],
      "identifier": [ {
        "type": {
          "coding": [ {
            "system": "http://terminology.hl7.org/CodeSystem/v2-0203",
            "code": "MR"
          } ]
        },
        "system": "https://bonnie-fhir.healthit.gov/",
        "value": "62fa764613ff3e2aae784d72"
      } ],
      "name": [ {
        "family": "DENEXCEPop3Pass",
        "given": [ "PalliativeCareCarotidInter" ]
      } ],
      "gender": "male",
      "birthDate": "1950-12-31"
    }
  }, {
    "fullUrl": "https://madie.cms.gov/Encounter/ea1bdd7f-e305-48ed-bddc-9f69a8c88488",
    "resource": {
      "resourceType": "Encounter",
      "id": "ea1bdd7f-e305-48ed-bddc-9f69a8c88488",
      "meta": {
        "profile": [ "http://hl7.org/fhir/us/qicore/StructureDefinition/qicore-encounter" ]
      },
      "status": "finished",
      "class": {
        "system": "http://terminology.hl7.org/CodeSystem/v3-ActCode",
        "code": "AMB",
        "display": "ambulatory"
      },
      "type": [ {
        "coding": [ {
          "system": "http://www.ama-assn.org/go/cpt",
          "code": "99402",
          "userSelected": true
        } ]
      } ],
      "subject": {
        "reference": "Patient/e656adac-2016-40a4-833f-0c5a02952ba3"
      },
      "period": {
        "start": "2026-01-01T13:00:00.000+00:00",
        "end": "2026-01-01T13:30:00.000+00:00"
      }
    }
  }, {
    "fullUrl": "https://madie.cms.gov/Procedure/5b868af7-0a02-472a-8f76-44606b244012",
    "resource": {
      "resourceType": "Procedure",
      "id": "5b868af7-0a02-472a-8f76-44606b244012",
      "meta": {
        "profile": [ "http://hl7.org/fhir/us/qicore/StructureDefinition/qicore-procedure" ]
      },
      "extension": [ {
        "url": "http://hl7.org/fhir/us/qicore/StructureDefinition/qicore-recorded",
        "valueDateTime": "2026-12-31T09:00:00.000+00:00"
      } ],
      "status": "completed",
      "code": {
        "coding": [ {
          "system": "http://snomed.info/sct",
          "version": "http://snomed.info/sct/900000000000207008/version/20250201",
          "code": "103735009",
          "display": "Palliative care (regime/therapy)",
          "userSelected": true
        } ]
      },
      "subject": {
        "reference": "Patient/e656adac-2016-40a4-833f-0c5a02952ba3"
      },
      "performedPeriod": {
        "start": "2026-12-31T08:00:00.000+00:00"
      }
    }
  }, {
    "fullUrl": "https://madie.cms.gov/Condition/46424ca3-1296-4d35-988a-49b7e348275b",
    "resource": {
      "resourceType": "Condition",
      "id": "46424ca3-1296-4d35-988a-49b7e348275b",
      "meta": {
        "profile": [ "http://hl7.org/fhir/us/qicore/StructureDefinition/qicore-condition-problems-health-concerns" ]
      },
      "clinicalStatus": {
        "coding": [ {
          "system": "http://terminology.hl7.org/CodeSystem/condition-clinical",
          "code": "active",
          "display": "Active",
          "userSelected": true
        } ]
      },
      "category": [ {
        "coding": [ {
          "system": "http://terminology.hl7.org/CodeSystem/condition-category",
          "code": "problem-list-item",
          "display": "Problem List Item"
        } ]
      } ],
      "code": {
        "coding": [ {
          "system": "http://snomed.info/sct",
          "version": "http://snomed.info/sct/900000000000207008/version/20250201",
          "code": "102781000119107",
          "display": "Sensory neuropathy due to type 1 diabetes mellitus (disorder)",
          "userSelected": true
        } ]
      },
      "subject": {
        "reference": "Patient/e656adac-2016-40a4-833f-0c5a02952ba3"
      },
      "onsetPeriod": {
        "start": "2025-12-31T08:00:00.000+00:00"
      },
      "recordedDate": "2026-01-01T08:00:00.000+00:00"
    }
  }, {
    "fullUrl": "https://madie.cms.gov/Coverage/88b1989b-4a23-462e-9f45-0338fe54c23f",
    "resource": {
      "resourceType": "Coverage",
      "id": "88b1989b-4a23-462e-9f45-0338fe54c23f",
      "meta": {
        "profile": [ "http://hl7.org/fhir/us/qicore/StructureDefinition/qicore-coverage" ]
      },
      "status": "active",
      "subscriberId": "123456",
      "beneficiary": {
        "reference": "Patient/e656adac-2016-40a4-833f-0c5a02952ba3"
      },
      "relationship": {
        "coding": [ {
          "system": "http://terminology.hl7.org/CodeSystem/subscriber-relationship",
          "code": "self",
          "display": "Self",
          "userSelected": true
        } ]
      },
      "payor": [ {
        "reference": "Organization/87699d2b-d431-457f-851d-4b3c6cc4ff74"
      } ]
    }
  }, {
    "fullUrl": "https://madie.cms.gov/Organization/87699d2b-d431-457f-851d-4b3c6cc4ff74",
    "resource": {
      "resourceType": "Organization",
      "id": "87699d2b-d431-457f-851d-4b3c6cc4ff74",
      "meta": {
        "profile": [ "http://hl7.org/fhir/us/qicore/StructureDefinition/qicore-organization" ]
      },
      "identifier": [ {
        "use": "temp",
        "system": "urn:oid:2.16.840.1.113883.4.4",
        "value": "21-3259825"
      } ],
      "active": true,
      "type": [ {
        "coding": [ {
          "system": "http://terminology.hl7.org/CodeSystem/organization-type",
          "code": "pay",
          "display": "Payer"
        } ]
      } ],
      "name": "Blue Cross Blue Shield of Texas",
      "telecom": [ {
        "system": "phone",
        "value": "(+1) 972-766-6900"
      } ],
      "address": [ {
        "use": "billing",
        "type": "postal",
        "line": [ "P.O. Box 660044" ],
        "city": "Dallas",
        "state": "TX",
        "postalCode": "75266-0044",
        "country": "USA"
      } ]
    }
  }, {
    "fullUrl": "https://madie.cms.gov/Practitioner/9af6907d-c9c1-467b-8a04-7f51646eef8a",
    "resource": {
      "resourceType": "Practitioner",
      "id": "9af6907d-c9c1-467b-8a04-7f51646eef8a",
      "meta": {
        "profile": [ "http://hl7.org/fhir/us/qicore/StructureDefinition/qicore-practitioner" ]
      },
      "identifier": [ {
        "system": "http://hl7.org/fhir/sid/us-npi",
        "value": "1689411712"
      } ],
      "name": [ {
        "family": "Evil",
        "prefix": [ "Dr" ]
      } ]
    }
  }, {
    "fullUrl": "https://madie.cms.gov/MeasureReport/c0a2d9e7-1144-4e67-954f-56080d7ffd06",
    "resource": {
      "resourceType": "MeasureReport",
      "id": "c0a2d9e7-1144-4e67-954f-56080d7ffd06",
      "meta": {
        "profile": [ "http://hl7.org/fhir/us/cqfmeasures/StructureDefinition/test-case-cqfm" ]
      },
      "contained": [ {
        "resourceType": "Parameters",
        "id": "7d401612-5223-421a-92e8-d7518bfdbf09-parameters",
        "parameter": [ {
          "name": "subject",
          "valueString": "e656adac-2016-40a4-833f-0c5a02952ba3"
        } ]
      } ],
      "extension": [ {
        "url": "http://hl7.org/fhir/StructureDefinition/cqf-inputParameters",
        "valueReference": {
          "reference": "#7d401612-5223-421a-92e8-d7518bfdbf09-parameters"
        }
      }, {
        "url": "http://hl7.org/fhir/us/cqfmeasures/StructureDefinition/cqfm-testCaseDescription",
        "valueMarkdown": "Enc first day of MP, DM last day of MP,  Palliative Care procedure performed last  day of  MP, expected to pass the exceptions d/t has palliative care."
      } ],
      "modifierExtension": [ {
        "url": "http://hl7.org/fhir/us/cqfmeasures/StructureDefinition/cqfm-isTestCase",
        "valueBoolean": true
      } ],
      "status": "complete",
      "type": "individual",
      "measure": "https://madie.cms.gov/Measure/CMS347FHIRStatinPreventionTxCVD",
      "period": {
        "start": "2026-01-01",
        "end": "2026-12-31"
      },
      "group": [ {
        "id": "Group_1",
        "population": [ {
          "id": "InitialPopulation_1",
          "code": {
            "coding": [ {
              "system": "http://terminology.hl7.org/CodeSystem/measure-population",
              "code": "initial-population",
              "display": "Initial Population"
            } ]
          },
          "count": 0
        }, {
          "id": "Denominator_1",
          "code": {
            "coding": [ {
              "system": "http://terminology.hl7.org/CodeSystem/measure-population",
              "code": "denominator",
              "display": "Denominator"
            } ]
          },
          "count": 0
        }, {
          "id": "DenominatorExclusion_1",
          "code": {
            "coding": [ {
              "system": "http://terminology.hl7.org/CodeSystem/measure-population",
              "code": "denominator-exclusion",
              "display": "Denominator Exclusion"
            } ]
          },
          "count": 0
        }, {
          "id": "Numerator_1",
          "code": {
            "coding": [ {
              "system": "http://terminology.hl7.org/CodeSystem/measure-population",
              "code": "numerator",
              "display": "Numerator"
            } ]
          },
          "count": 0
        }, {
          "id": "DenominatorException_1",
          "code": {
            "coding": [ {
              "system": "http://terminology.hl7.org/CodeSystem/measure-population",
              "code": "denominator-exception",
              "display": "Denominator Exception"
            } ]
          },
          "count": 0
        } ],
        "measureScore": {
          "value": 1.0
        }
      }, {
        "id": "Group_2",
        "population": [ {
          "id": "InitialPopulation_2",
          "code": {
            "coding": [ {
              "system": "http://terminology.hl7.org/CodeSystem/measure-population",
              "code": "initial-population",
              "display": "Initial Population"
            } ]
          },
          "count": 0
        }, {
          "id": "Denominator_2",
          "code": {
            "coding": [ {
              "system": "http://terminology.hl7.org/CodeSystem/measure-population",
              "code": "denominator",
              "display": "Denominator"
            } ]
          },
          "count": 0
        }, {
          "id": "DenominatorExclusion_2",
          "code": {
            "coding": [ {
              "system": "http://terminology.hl7.org/CodeSystem/measure-population",
              "code": "denominator-exclusion",
              "display": "Denominator Exclusion"
            } ]
          },
          "count": 0
        }, {
          "id": "Numerator_2",
          "code": {
            "coding": [ {
              "system": "http://terminology.hl7.org/CodeSystem/measure-population",
              "code": "numerator",
              "display": "Numerator"
            } ]
          },
          "count": 0
        }, {
          "id": "DenominatorException_2",
          "code": {
            "coding": [ {
              "system": "http://terminology.hl7.org/CodeSystem/measure-population",
              "code": "denominator-exception",
              "display": "Denominator Exception"
            } ]
          },
          "count": 0
        } ],
        "measureScore": {
          "value": 1.0
        }
      }, {
        "id": "Group_3",
        "population": [ {
          "id": "InitialPopulation_3",
          "code": {
            "coding": [ {
              "system": "http://terminology.hl7.org/CodeSystem/measure-population",
              "code": "initial-population",
              "display": "Initial Population"
            } ]
          },
          "count": 1
        }, {
          "id": "Denominator_3",
          "code": {
            "coding": [ {
              "system": "http://terminology.hl7.org/CodeSystem/measure-population",
              "code": "denominator",
              "display": "Denominator"
            } ]
          },
          "count": 1
        }, {
          "id": "DenominatorExclusion_3",
          "code": {
            "coding": [ {
              "system": "http://terminology.hl7.org/CodeSystem/measure-population",
              "code": "denominator-exclusion",
              "display": "Denominator Exclusion"
            } ]
          },
          "count": 0
        }, {
          "id": "Numerator_3",
          "code": {
            "coding": [ {
              "system": "http://terminology.hl7.org/CodeSystem/measure-population",
              "code": "numerator",
              "display": "Numerator"
            } ]
          },
          "count": 0
        }, {
          "id": "DenominatorException_3",
          "code": {
            "coding": [ {
              "system": "http://terminology.hl7.org/CodeSystem/measure-population",
              "code": "denominator-exception",
              "display": "Denominator Exception"
            } ]
          },
          "count": 1
        } ],
        "measureScore": {
          "value": 1.0
        }
      }, {
        "id": "Group_4",
        "population": [ {
          "id": "InitialPopulation_4",
          "code": {
            "coding": [ {
              "system": "http://terminology.hl7.org/CodeSystem/measure-population",
              "code": "initial-population",
              "display": "Initial Population"
            } ]
          },
          "count": 0
        }, {
          "id": "Denominator_4",
          "code": {
            "coding": [ {
              "system": "http://terminology.hl7.org/CodeSystem/measure-population",
              "code": "denominator",
              "display": "Denominator"
            } ]
          },
          "count": 0
        }, {
          "id": "DenominatorExclusion_4",
          "code": {
            "coding": [ {
              "system": "http://terminology.hl7.org/CodeSystem/measure-population",
              "code": "denominator-exclusion",
              "display": "Denominator Exclusion"
            } ]
          },
          "count": 0
        }, {
          "id": "Numerator_4",
          "code": {
            "coding": [ {
              "system": "http://terminology.hl7.org/CodeSystem/measure-population",
              "code": "numerator",
              "display": "Numerator"
            } ]
          },
          "count": 0
        }, {
          "id": "DenominatorException_4",
          "code": {
            "coding": [ {
              "system": "http://terminology.hl7.org/CodeSystem/measure-population",
              "code": "denominator-exception",
              "display": "Denominator Exception"
            } ]
          },
          "count": 0
        } ],
        "measureScore": {
          "value": 1.0
        }
      } ],
      "evaluatedResource": [ {
        "reference": "Patient/e656adac-2016-40a4-833f-0c5a02952ba3"
      }, {
        "reference": "Encounter/ea1bdd7f-e305-48ed-bddc-9f69a8c88488"
      }, {
        "reference": "Procedure/5b868af7-0a02-472a-8f76-44606b244012"
      }, {
        "reference": "Condition/46424ca3-1296-4d35-988a-49b7e348275b"
      }, {
        "reference": "Coverage/88b1989b-4a23-462e-9f45-0338fe54c23f"
      }, {
        "reference": "Organization/87699d2b-d431-457f-851d-4b3c6cc4ff74"
      }, {
        "reference": "Practitioner/9af6907d-c9c1-467b-8a04-7f51646eef8a"
      } ]
    }
  } ]
}