{
  "resourceType": "Bundle",
  "id": "NUMERFail-VR36OrthogonalMissingResult",
  "type": "collection",
  "entry": [ {
    "fullUrl": "https://madie.cms.gov/Patient/3ce4f1d8-4779-4982-a03f-7cb6873a15e4",
    "resource": {
      "resourceType": "Patient",
      "id": "3ce4f1d8-4779-4982-a03f-7cb6873a15e4",
      "meta": {
        "profile": [ "http://hl7.org/fhir/us/qicore/StructureDefinition/qicore-patient" ]
      },
      "extension": [ {
        "url": "http://hl7.org/fhir/us/core/StructureDefinition/us-core-race",
        "extension": [ {
          "url": "ombCategory",
          "valueCoding": {
            "system": "urn:oid:2.16.840.1.113883.6.238",
            "code": "2028-9",
            "display": "Asian"
          }
        }, {
          "url": "text",
          "valueString": "Asian"
        } ]
      }, {
        "url": "http://hl7.org/fhir/us/core/StructureDefinition/us-core-ethnicity",
        "extension": [ {
          "url": "ombCategory",
          "valueCoding": {
            "system": "urn:oid:2.16.840.1.113883.6.238",
            "code": "2135-2",
            "display": "Hispanic or Latino"
          }
        }, {
          "url": "text",
          "valueString": "Hispanic or Latino"
        } ]
      } ],
      "identifier": [ {
        "system": "http://hospital.smarthealthit.org",
        "value": "999999995"
      } ],
      "name": [ {
        "family": "Bertha",
        "given": [ "Betty" ]
      } ],
      "gender": "female",
      "birthDate": "2008-01-01"
    }
  }, {
    "fullUrl": "https://madie.cms.gov/Encounter/d42be21a-ef7c-4560-8cc9-8d154abb6b28",
    "resource": {
      "resourceType": "Encounter",
      "id": "d42be21a-ef7c-4560-8cc9-8d154abb6b28",
      "meta": {
        "profile": [ "http://hl7.org/fhir/us/qicore/StructureDefinition/qicore-encounter" ]
      },
      "status": "finished",
      "class": {
        "system": "http://terminology.hl7.org/CodeSystem/v3-ActCode",
        "code": "AMB",
        "display": "ambulatory"
      },
      "type": [ {
        "coding": [ {
          "system": "http://snomed.info/sct",
          "code": "185317003",
          "display": "Telephone encounter (procedure)"
        } ]
      } ],
      "subject": {
        "reference": "Patient/3ce4f1d8-4779-4982-a03f-7cb6873a15e4"
      },
      "period": {
        "start": "2026-01-01T01:00:00.000+00:00",
        "end": "2026-01-01T01:15:00.000+00:00"
      }
    }
  }, {
    "fullUrl": "https://madie.cms.gov/Encounter/671ecfad-cd6d-48b3-93b7-640d7a34cf5c",
    "resource": {
      "resourceType": "Encounter",
      "id": "671ecfad-cd6d-48b3-93b7-640d7a34cf5c",
      "meta": {
        "profile": [ "http://hl7.org/fhir/us/qicore/StructureDefinition/qicore-encounter" ]
      },
      "status": "finished",
      "class": {
        "system": "http://terminology.hl7.org/CodeSystem/v3-ActCode",
        "code": "AMB",
        "display": "ambulatory"
      },
      "type": [ {
        "coding": [ {
          "system": "http://snomed.info/sct",
          "code": "185317003",
          "display": "Telephone encounter (procedure)"
        } ]
      } ],
      "subject": {
        "reference": "Patient/3ce4f1d8-4779-4982-a03f-7cb6873a15e4"
      },
      "period": {
        "start": "2026-01-02T01:00:00.000+00:00",
        "end": "2026-01-02T01:15:00.000+00:00"
      }
    }
  }, {
    "fullUrl": "https://madie.cms.gov/Condition/eb6d477f-929c-496f-a44e-0c9aa0774f43",
    "resource": {
      "resourceType": "Condition",
      "id": "eb6d477f-929c-496f-a44e-0c9aa0774f43",
      "meta": {
        "profile": [ "http://hl7.org/fhir/us/qicore/StructureDefinition/qicore-condition-problems-health-concerns" ]
      },
      "clinicalStatus": {
        "coding": [ {
          "system": "http://terminology.hl7.org/CodeSystem/condition-clinical",
          "code": "active"
        } ]
      },
      "category": [ {
        "coding": [ {
          "system": "http://terminology.hl7.org/CodeSystem/condition-category",
          "code": "problem-list-item",
          "display": "Problem List Item"
        } ]
      } ],
      "code": {
        "coding": [ {
          "system": "http://snomed.info/sct",
          "version": "http://snomed.info/sct/731000124108/version/20250301",
          "code": "10091002",
          "display": "High output heart failure (disorder)"
        } ]
      },
      "subject": {
        "reference": "Patient/3ce4f1d8-4779-4982-a03f-7cb6873a15e4"
      },
      "onsetDateTime": "2025-12-31T23:59:00.000+00:00"
    }
  }, {
    "fullUrl": "https://madie.cms.gov/Observation/45f802fa-3399-4335-badb-1a806c48b655",
    "resource": {
      "resourceType": "Observation",
      "id": "45f802fa-3399-4335-badb-1a806c48b655",
      "meta": {
        "profile": [ "http://hl7.org/fhir/us/qicore/StructureDefinition/qicore-observation-screening-assessment" ]
      },
      "status": "final",
      "category": [ {
        "coding": [ {
          "system": "http://terminology.hl7.org/CodeSystem/observation-category",
          "code": "survey",
          "display": "survey"
        } ],
        "text": "survey"
      } ],
      "code": {
        "coding": [ {
          "system": "http://loinc.org",
          "code": "72008-6",
          "display": "VR-36 Mental component summary (MCS) score - orthogonal method T-score"
        } ]
      },
      "subject": {
        "reference": "Patient/3ce4f1d8-4779-4982-a03f-7cb6873a15e4"
      },
      "effectivePeriod": {
        "start": "2026-01-01T23:00:00.000+00:00",
        "end": "2026-01-01T23:59:00.000+00:00"
      },
      "valueInteger": 4
    }
  }, {
    "fullUrl": "https://madie.cms.gov/Observation/2c780653-b191-4393-99de-b1219fe8cd52",
    "resource": {
      "resourceType": "Observation",
      "id": "2c780653-b191-4393-99de-b1219fe8cd52",
      "meta": {
        "profile": [ "http://hl7.org/fhir/us/qicore/StructureDefinition/qicore-observation-screening-assessment" ]
      },
      "status": "final",
      "category": [ {
        "coding": [ {
          "system": "http://terminology.hl7.org/CodeSystem/observation-category",
          "code": "survey",
          "display": "survey"
        } ],
        "text": "survey"
      } ],
      "code": {
        "coding": [ {
          "system": "http://loinc.org",
          "code": "72008-6",
          "display": "VR-36 Mental component summary (MCS) score - orthogonal method T-score"
        } ]
      },
      "subject": {
        "reference": "Patient/3ce4f1d8-4779-4982-a03f-7cb6873a15e4"
      },
      "effectivePeriod": {
        "start": "2026-01-31T23:00:00.000+00:00",
        "end": "2026-01-31T23:59:00.000+00:00"
      },
      "valueInteger": 4
    }
  }, {
    "fullUrl": "https://madie.cms.gov/Observation/84c9086a-8cf8-4bf0-a4f0-602ed1040be9",
    "resource": {
      "resourceType": "Observation",
      "id": "84c9086a-8cf8-4bf0-a4f0-602ed1040be9",
      "meta": {
        "profile": [ "http://hl7.org/fhir/us/qicore/StructureDefinition/qicore-observation-screening-assessment" ]
      },
      "status": "final",
      "category": [ {
        "coding": [ {
          "system": "http://terminology.hl7.org/CodeSystem/observation-category",
          "code": "survey",
          "display": "survey"
        } ],
        "text": "survey"
      } ],
      "code": {
        "coding": [ {
          "system": "http://loinc.org",
          "code": "72007-8",
          "display": "VR-36 Physical component summary (PCS) score - orthogonal method T-score"
        } ]
      },
      "subject": {
        "reference": "Patient/3ce4f1d8-4779-4982-a03f-7cb6873a15e4"
      },
      "effectivePeriod": {
        "start": "2026-01-01T23:00:00.000+00:00",
        "end": "2026-01-01T23:59:00.000+00:00"
      },
      "valueInteger": 4
    }
  }, {
    "fullUrl": "https://madie.cms.gov/Observation/e5c15dd0-7585-4cde-92c3-01eb14612ca7",
    "resource": {
      "resourceType": "Observation",
      "id": "e5c15dd0-7585-4cde-92c3-01eb14612ca7",
      "meta": {
        "profile": [ "http://hl7.org/fhir/us/qicore/StructureDefinition/qicore-observation-screening-assessment" ]
      },
      "status": "final",
      "category": [ {
        "coding": [ {
          "system": "http://terminology.hl7.org/CodeSystem/observation-category",
          "code": "survey",
          "display": "survey"
        } ],
        "text": "survey"
      } ],
      "code": {
        "coding": [ {
          "system": "http://loinc.org",
          "code": "72007-8",
          "display": "VR-36 Physical component summary (PCS) score - orthogonal method T-score"
        } ]
      },
      "subject": {
        "reference": "Patient/3ce4f1d8-4779-4982-a03f-7cb6873a15e4"
      },
      "effectivePeriod": {
        "start": "2026-01-31T23:00:00.000+00:00",
        "end": "2026-01-31T23:59:00.000+00:00"
      },
      "dataAbsentReason": {
        "coding": [ {
          "system": "http://terminology.hl7.org/CodeSystem/data-absent-reason",
          "code": "unknown",
          "display": "Unknown"
        } ]
      }
    }
  }, {
    "fullUrl": "https://madie.cms.gov/MeasureReport/51f94af9-fa7c-45c3-80ca-dab953f93437",
    "resource": {
      "resourceType": "MeasureReport",
      "id": "51f94af9-fa7c-45c3-80ca-dab953f93437",
      "meta": {
        "profile": [ "http://hl7.org/fhir/us/cqfmeasures/StructureDefinition/test-case-cqfm" ]
      },
      "contained": [ {
        "resourceType": "Parameters",
        "id": "4f9ebf05-2a75-4068-9d47-31dee927ff24-parameters",
        "parameter": [ {
          "name": "subject",
          "valueString": "3ce4f1d8-4779-4982-a03f-7cb6873a15e4"
        } ]
      } ],
      "extension": [ {
        "url": "http://hl7.org/fhir/StructureDefinition/cqf-inputParameters",
        "valueReference": {
          "reference": "#4f9ebf05-2a75-4068-9d47-31dee927ff24-parameters"
        }
      }, {
        "url": "http://hl7.org/fhir/us/cqfmeasures/StructureDefinition/cqfm-testCaseDescription",
        "valueMarkdown": "Patient has all VR36 Orthogonal Assessments during the correct timeframe but one FSA is missing a result."
      } ],
      "modifierExtension": [ {
        "url": "http://hl7.org/fhir/us/cqfmeasures/StructureDefinition/cqfm-isTestCase",
        "valueBoolean": true
      } ],
      "status": "complete",
      "type": "individual",
      "measure": "https://madie.cms.gov/Measure/CMS90FHIRFSAforHeartFailure",
      "period": {
        "start": "2026-01-01",
        "end": "2026-12-31"
      },
      "group": [ {
        "id": "Group_1",
        "population": [ {
          "id": "InitialPopulation_1",
          "code": {
            "coding": [ {
              "system": "http://terminology.hl7.org/CodeSystem/measure-population",
              "code": "initial-population",
              "display": "Initial Population"
            } ]
          },
          "count": 1
        }, {
          "id": "Denominator_1",
          "code": {
            "coding": [ {
              "system": "http://terminology.hl7.org/CodeSystem/measure-population",
              "code": "denominator",
              "display": "Denominator"
            } ]
          },
          "count": 1
        }, {
          "id": "DenominatorExclusion_1",
          "code": {
            "coding": [ {
              "system": "http://terminology.hl7.org/CodeSystem/measure-population",
              "code": "denominator-exclusion",
              "display": "Denominator Exclusion"
            } ]
          },
          "count": 0
        }, {
          "id": "Numerator_1",
          "code": {
            "coding": [ {
              "system": "http://terminology.hl7.org/CodeSystem/measure-population",
              "code": "numerator",
              "display": "Numerator"
            } ]
          },
          "count": 0
        } ],
        "measureScore": {
          "value": 1.0
        }
      } ],
      "evaluatedResource": [ {
        "reference": "Patient/3ce4f1d8-4779-4982-a03f-7cb6873a15e4"
      }, {
        "reference": "Encounter/d42be21a-ef7c-4560-8cc9-8d154abb6b28"
      }, {
        "reference": "Encounter/671ecfad-cd6d-48b3-93b7-640d7a34cf5c"
      }, {
        "reference": "Condition/eb6d477f-929c-496f-a44e-0c9aa0774f43"
      }, {
        "reference": "Observation/45f802fa-3399-4335-badb-1a806c48b655"
      }, {
        "reference": "Observation/2c780653-b191-4393-99de-b1219fe8cd52"
      }, {
        "reference": "Observation/84c9086a-8cf8-4bf0-a4f0-602ed1040be9"
      }, {
        "reference": "Observation/e5c15dd0-7585-4cde-92c3-01eb14612ca7"
      } ]
    }
  } ]
}