{
  "resourceType": "Bundle",
  "id": "63487c2e0968f8012254017c",
  "type": "transaction",
  "entry": [ {
    "fullUrl": "https://madie.cms.gov/Patient/4b7b91d4-6f82-4db4-bc04-846bc01796b1",
    "resource": {
      "resourceType": "Patient",
      "id": "4b7b91d4-6f82-4db4-bc04-846bc01796b1",
      "meta": {
        "profile": [ "http://hl7.org/fhir/us/qicore/StructureDefinition/qicore-patient" ]
      },
      "text": {
        "status": "generated",
        "div": "<div xmlns=\"http://www.w3.org/1999/xhtml\"><div class=\"hapiHeaderText\">AssessG2P0 <b>DENPASS </b></div><table class=\"hapiPropertyTable\"><tbody><tr><td>Identifier</td><td>7ba44015901d3cd7e5539bec3f21dcf010a0d16b413410d65a34b2ae152ba10f</td></tr><tr><td>Date of birth</td><td><span>14 February 1985</span></td></tr></tbody></table></div>"
      },
      "extension": [ {
        "url": "http://hl7.org/fhir/us/core/StructureDefinition/us-core-race",
        "extension": [ {
          "url": "ombCategory",
          "valueCoding": {
            "system": "urn:oid:2.16.840.1.113883.6.238",
            "code": "1002-5",
            "display": "American Indian or Alaska Native",
            "userSelected": true
          }
        }, {
          "url": "text",
          "valueString": "American Indian or Alaska Native"
        } ]
      }, {
        "url": "http://hl7.org/fhir/us/core/StructureDefinition/us-core-ethnicity",
        "extension": [ {
          "url": "ombCategory",
          "valueCoding": {
            "system": "urn:oid:2.16.840.1.113883.6.238",
            "code": "2135-2",
            "display": "Hispanic or Latino",
            "userSelected": true
          }
        }, {
          "url": "text",
          "valueString": "Hispanic or Latino"
        } ]
      } ],
      "identifier": [ {
        "type": {
          "coding": [ {
            "system": "http://terminology.hl7.org/CodeSystem/v2-0203",
            "code": "MR"
          } ]
        },
        "system": "https://bonnie-fhir.healthit.gov/",
        "value": "63487c2e0968f8012254017c"
      } ],
      "active": true,
      "name": [ {
        "use": "usual",
        "family": "DENPass",
        "given": [ "AssessG2P0" ]
      } ],
      "gender": "female",
      "birthDate": "1998-02-14"
    },
    "request": {
      "method": "PUT",
      "url": "Patient/4b7b91d4-6f82-4db4-bc04-846bc01796b1"
    }
  }, {
    "fullUrl": "https://madie.cms.gov/Observation/421f1b0f-447e-464b-86ea-781cbb3b3b36",
    "resource": {
      "resourceType": "Observation",
      "id": "421f1b0f-447e-464b-86ea-781cbb3b3b36",
      "meta": {
        "profile": [ "http://hl7.org/fhir/us/qicore/StructureDefinition/qicore-simple-observation" ]
      },
      "status": "final",
      "category": [ {
        "coding": [ {
          "system": "http://terminology.hl7.org/CodeSystem/observation-category",
          "code": "exam",
          "display": "exam",
          "userSelected": true
        } ]
      } ],
      "code": {
        "coding": [ {
          "system": "http://loinc.org",
          "code": "11977-6"
        } ]
      },
      "subject": {
        "reference": "Patient/4b7b91d4-6f82-4db4-bc04-846bc01796b1"
      },
      "effectiveDateTime": "2026-04-08T09:00:00.000+00:00",
      "valueInteger": 0
    },
    "request": {
      "method": "PUT",
      "url": "Observation/421f1b0f-447e-464b-86ea-781cbb3b3b36"
    }
  }, {
    "fullUrl": "https://madie.cms.gov/Observation/14b47414-dcc8-4fc5-b913-01aea9e0784c",
    "resource": {
      "resourceType": "Observation",
      "id": "14b47414-dcc8-4fc5-b913-01aea9e0784c",
      "meta": {
        "profile": [ "http://hl7.org/fhir/us/qicore/StructureDefinition/qicore-simple-observation" ]
      },
      "status": "final",
      "category": [ {
        "coding": [ {
          "system": "http://terminology.hl7.org/CodeSystem/observation-category",
          "code": "exam",
          "display": "exam",
          "userSelected": true
        } ]
      } ],
      "code": {
        "coding": [ {
          "system": "http://loinc.org",
          "code": "11996-6"
        } ]
      },
      "subject": {
        "reference": "Patient/4b7b91d4-6f82-4db4-bc04-846bc01796b1"
      },
      "effectiveDateTime": "2026-04-09T08:00:00.000+00:00",
      "valueInteger": 2
    },
    "request": {
      "method": "PUT",
      "url": "Observation/14b47414-dcc8-4fc5-b913-01aea9e0784c"
    }
  }, {
    "fullUrl": "https://madie.cms.gov/Observation/52e61c37-ec70-44c5-a58f-1785b22fed1e",
    "resource": {
      "resourceType": "Observation",
      "id": "52e61c37-ec70-44c5-a58f-1785b22fed1e",
      "meta": {
        "profile": [ "http://hl7.org/fhir/us/qicore/StructureDefinition/qicore-simple-observation" ]
      },
      "status": "final",
      "category": [ {
        "coding": [ {
          "system": "http://terminology.hl7.org/CodeSystem/observation-category",
          "code": "exam",
          "display": "exam",
          "userSelected": true
        } ]
      } ],
      "code": {
        "coding": [ {
          "system": "http://loinc.org",
          "code": "11884-4"
        } ]
      },
      "subject": {
        "reference": "Patient/4b7b91d4-6f82-4db4-bc04-846bc01796b1"
      },
      "effectiveDateTime": "2026-06-08T07:00:00.000+00:00",
      "valueQuantity": {
        "value": 37,
        "system": "http://unitsofmeasure.org",
        "code": "wk"
      }
    },
    "request": {
      "method": "PUT",
      "url": "Observation/52e61c37-ec70-44c5-a58f-1785b22fed1e"
    }
  }, {
    "fullUrl": "https://madie.cms.gov/Observation/8bace09d-e639-45eb-ac81-0e710412f8d2",
    "resource": {
      "resourceType": "Observation",
      "id": "8bace09d-e639-45eb-ac81-0e710412f8d2",
      "meta": {
        "profile": [ "http://hl7.org/fhir/us/qicore/StructureDefinition/qicore-simple-observation" ]
      },
      "status": "final",
      "category": [ {
        "coding": [ {
          "system": "http://terminology.hl7.org/CodeSystem/observation-category",
          "code": "exam",
          "display": "exam",
          "userSelected": true
        } ]
      } ],
      "code": {
        "coding": [ {
          "system": "http://loinc.org",
          "code": "93857-1"
        } ]
      },
      "subject": {
        "reference": "Patient/4b7b91d4-6f82-4db4-bc04-846bc01796b1"
      },
      "effectiveDateTime": "2026-06-08T07:15:00.000+00:00",
      "valueDateTime": "2026-06-08T07:15:00.000+00:00"
    },
    "request": {
      "method": "PUT",
      "url": "Observation/8bace09d-e639-45eb-ac81-0e710412f8d2"
    }
  }, {
    "fullUrl": "https://madie.cms.gov/Encounter/21d1201f-e58e-4c40-b459-3fa2bbe76455",
    "resource": {
      "resourceType": "Encounter",
      "id": "21d1201f-e58e-4c40-b459-3fa2bbe76455",
      "meta": {
        "profile": [ "http://hl7.org/fhir/us/qicore/StructureDefinition/qicore-encounter" ]
      },
      "status": "finished",
      "class": {
        "system": "http://terminology.hl7.org/CodeSystem/v3-ActCode",
        "code": "IMP",
        "display": "inpatient encounter"
      },
      "type": [ {
        "coding": [ {
          "system": "http://snomed.info/sct",
          "code": "8715000"
        } ]
      } ],
      "subject": {
        "reference": "Patient/4b7b91d4-6f82-4db4-bc04-846bc01796b1"
      },
      "period": {
        "start": "2026-06-08T05:00:00.000+00:00",
        "end": "2026-06-10T08:15:00.000+00:00"
      },
      "length": {
        "value": 2,
        "unit": "days"
      },
      "reasonReference": [ {
        "reference": "Condition/37e7257e-b0c3-4e42-a87e-75cb023bda49"
      } ]
    },
    "request": {
      "method": "PUT",
      "url": "Encounter/21d1201f-e58e-4c40-b459-3fa2bbe76455"
    }
  }, {
    "fullUrl": "https://madie.cms.gov/Procedure/41057635-7d02-4ad0-beea-0d3af992df61",
    "resource": {
      "resourceType": "Procedure",
      "id": "41057635-7d02-4ad0-beea-0d3af992df61",
      "meta": {
        "profile": [ "http://hl7.org/fhir/us/qicore/StructureDefinition/qicore-procedure" ]
      },
      "extension": [ {
        "url": "http://hl7.org/fhir/us/qicore/StructureDefinition/qicore-recorded",
        "valueDateTime": "2014-04-05T13:35:00.000+00:00"
      } ],
      "status": "completed",
      "code": {
        "coding": [ {
          "system": "http://www.cms.gov/Medicare/Coding/ICD10",
          "code": "10D00Z0"
        } ]
      },
      "subject": {
        "reference": "Patient/4b7b91d4-6f82-4db4-bc04-846bc01796b1"
      },
      "performedPeriod": {
        "start": "2026-06-08T06:00:00.000+00:00",
        "end": "2026-06-08T07:15:00.000+00:00"
      }
    },
    "request": {
      "method": "PUT",
      "url": "Procedure/41057635-7d02-4ad0-beea-0d3af992df61"
    }
  }, {
    "fullUrl": "https://madie.cms.gov/Procedure/35fe26b6-772e-4df6-9aa5-94d21feb4288",
    "resource": {
      "resourceType": "Procedure",
      "id": "35fe26b6-772e-4df6-9aa5-94d21feb4288",
      "meta": {
        "profile": [ "http://hl7.org/fhir/us/qicore/StructureDefinition/qicore-procedure" ]
      },
      "extension": [ {
        "url": "http://hl7.org/fhir/us/qicore/StructureDefinition/qicore-recorded",
        "valueDateTime": "2014-04-05T13:35:00.000+00:00"
      } ],
      "status": "completed",
      "code": {
        "coding": [ {
          "system": "http://www.cms.gov/Medicare/Coding/ICD10",
          "code": "10D00Z0"
        } ]
      },
      "subject": {
        "reference": "Patient/4b7b91d4-6f82-4db4-bc04-846bc01796b1"
      },
      "performedPeriod": {
        "start": "2026-06-08T06:00:00.000+00:00",
        "end": "2026-06-08T07:15:00.000+00:00"
      }
    },
    "request": {
      "method": "PUT",
      "url": "Procedure/35fe26b6-772e-4df6-9aa5-94d21feb4288"
    }
  }, {
    "fullUrl": "https://madie.cms.gov/Condition/37e7257e-b0c3-4e42-a87e-75cb023bda49",
    "resource": {
      "resourceType": "Condition",
      "id": "37e7257e-b0c3-4e42-a87e-75cb023bda49",
      "meta": {
        "profile": [ "http://hl7.org/fhir/us/qicore/StructureDefinition/qicore-condition-encounter-diagnosis" ]
      },
      "category": [ {
        "coding": [ {
          "system": "http://terminology.hl7.org/CodeSystem/condition-category",
          "code": "encounter-diagnosis",
          "display": "Encounter Diagnosis"
        } ]
      } ],
      "code": {
        "coding": [ {
          "system": "http://snomed.info/sct",
          "version": "2022-09",
          "code": "169826009",
          "display": "Single live birth from singleton pregnancy (finding)",
          "userSelected": true
        } ]
      },
      "subject": {
        "reference": "Patient/4b7b91d4-6f82-4db4-bc04-846bc01796b1"
      },
      "encounter": {
        "reference": "Encounter/21d1201f-e58e-4c40-b459-3fa2bbe76455"
      },
      "recordedDate": "2026-10-18T08:00:00.000+00:00"
    },
    "request": {
      "method": "PUT",
      "url": "Condition/37e7257e-b0c3-4e42-a87e-75cb023bda49"
    }
  }, {
    "fullUrl": "https://madie.cms.gov/Coverage/bac6fa1f-064d-452e-bd5e-6d3ae247a8a3",
    "resource": {
      "resourceType": "Coverage",
      "id": "bac6fa1f-064d-452e-bd5e-6d3ae247a8a3",
      "meta": {
        "profile": [ "http://hl7.org/fhir/us/qicore/StructureDefinition/qicore-coverage" ]
      },
      "status": "active",
      "subscriberId": "523435",
      "beneficiary": {
        "reference": "Patient/4b7b91d4-6f82-4db4-bc04-846bc01796b1"
      },
      "relationship": {
        "coding": [ {
          "system": "http://terminology.hl7.org/CodeSystem/subscriber-relationship",
          "code": "self"
        } ]
      },
      "payor": [ {
        "reference": "Organization/bbe57bd1-e781-43b3-bd84-3a3daf81fec8"
      } ]
    },
    "request": {
      "method": "PUT",
      "url": "Coverage/bac6fa1f-064d-452e-bd5e-6d3ae247a8a3"
    }
  }, {
    "fullUrl": "https://madie.cms.gov/Organization/bbe57bd1-e781-43b3-bd84-3a3daf81fec8",
    "resource": {
      "resourceType": "Organization",
      "id": "bbe57bd1-e781-43b3-bd84-3a3daf81fec8",
      "meta": {
        "profile": [ "http://hl7.org/fhir/us/qicore/StructureDefinition/qicore-organization" ]
      },
      "identifier": [ {
        "use": "temp",
        "system": "urn:oid:2.16.840.1.113883.4.4",
        "value": "21-3259825"
      } ],
      "active": true,
      "type": [ {
        "coding": [ {
          "system": "http://terminology.hl7.org/CodeSystem/organization-type",
          "code": "pay",
          "display": "Payer"
        } ]
      } ],
      "name": "Blue Cross Blue Shield of Texas",
      "telecom": [ {
        "system": "phone",
        "value": "(+1) 972-766-6900"
      } ],
      "address": [ {
        "use": "billing",
        "type": "postal",
        "line": [ "P.O. Box 660044" ],
        "city": "Dallas",
        "state": "TX",
        "postalCode": "75266-0044",
        "country": "USA"
      } ]
    },
    "request": {
      "method": "PUT",
      "url": "Organization/bbe57bd1-e781-43b3-bd84-3a3daf81fec8"
    }
  }, {
    "fullUrl": "https://madie.cms.gov/Practitioner/50387296-aae9-4d77-a1a2-00114e729359",
    "resource": {
      "resourceType": "Practitioner",
      "id": "50387296-aae9-4d77-a1a2-00114e729359",
      "meta": {
        "profile": [ "http://hl7.org/fhir/us/qicore/StructureDefinition/qicore-practitioner" ]
      },
      "identifier": [ {
        "system": "http://hl7.org/fhir/sid/us-npi",
        "value": "1234567890"
      } ],
      "name": [ {
        "family": "Evil",
        "prefix": [ "Dr" ]
      } ]
    },
    "request": {
      "method": "PUT",
      "url": "Practitioner/50387296-aae9-4d77-a1a2-00114e729359"
    }
  }, {
    "fullUrl": "https://madie.cms.gov/MeasureReport/4a3bd40f-76d7-460e-88b0-91464951443b",
    "resource": {
      "resourceType": "MeasureReport",
      "id": "4a3bd40f-76d7-460e-88b0-91464951443b",
      "meta": {
        "profile": [ "http://hl7.org/fhir/us/cqfmeasures/StructureDefinition/test-case-cqfm" ]
      },
      "contained": [ {
        "resourceType": "Parameters",
        "id": "69004d66-5840-45ae-a479-84630be19452-parameters",
        "parameter": [ {
          "name": "subject",
          "valueString": "4b7b91d4-6f82-4db4-bc04-846bc01796b1"
        } ]
      } ],
      "extension": [ {
        "url": "http://hl7.org/fhir/StructureDefinition/cqf-inputParameters",
        "valueReference": {
          "reference": "#69004d66-5840-45ae-a479-84630be19452-parameters"
        }
      }, {
        "url": "http://hl7.org/fhir/us/cqfmeasures/StructureDefinition/cqfm-testCaseDescription",
        "valueMarkdown": "This patient has Gravida 2 Parity 0.  This measure accepts Parity 0 for denom regardless of Gravida value (union).\n"
      } ],
      "modifierExtension": [ {
        "url": "http://hl7.org/fhir/us/cqfmeasures/StructureDefinition/cqfm-isTestCase",
        "valueBoolean": true
      } ],
      "status": "complete",
      "type": "individual",
      "measure": "https://madie.cms.gov/Measure/CMS0334FHIRPCCesareanBirth",
      "period": {
        "start": "2026-01-01",
        "end": "2026-12-31"
      },
      "group": [ {
        "id": "Group_1",
        "population": [ {
          "id": "InitialPopulation_1",
          "code": {
            "coding": [ {
              "system": "http://terminology.hl7.org/CodeSystem/measure-population",
              "code": "initial-population",
              "display": "Initial Population"
            } ]
          },
          "count": 1
        }, {
          "id": "Denominator_1",
          "code": {
            "coding": [ {
              "system": "http://terminology.hl7.org/CodeSystem/measure-population",
              "code": "denominator",
              "display": "Denominator"
            } ]
          },
          "count": 1
        }, {
          "id": "DenominatorExclusion_1",
          "code": {
            "coding": [ {
              "system": "http://terminology.hl7.org/CodeSystem/measure-population",
              "code": "denominator-exclusion",
              "display": "Denominator Exclusion"
            } ]
          },
          "count": 0
        }, {
          "id": "Numerator_1",
          "code": {
            "coding": [ {
              "system": "http://terminology.hl7.org/CodeSystem/measure-population",
              "code": "numerator",
              "display": "Numerator"
            } ]
          },
          "count": 1
        } ],
        "measureScore": {
          "value": 0.0
        }
      } ],
      "evaluatedResource": [ {
        "reference": "Patient/4b7b91d4-6f82-4db4-bc04-846bc01796b1"
      }, {
        "reference": "Observation/421f1b0f-447e-464b-86ea-781cbb3b3b36"
      }, {
        "reference": "Observation/14b47414-dcc8-4fc5-b913-01aea9e0784c"
      }, {
        "reference": "Observation/52e61c37-ec70-44c5-a58f-1785b22fed1e"
      }, {
        "reference": "Observation/8bace09d-e639-45eb-ac81-0e710412f8d2"
      }, {
        "reference": "Encounter/21d1201f-e58e-4c40-b459-3fa2bbe76455"
      }, {
        "reference": "Procedure/41057635-7d02-4ad0-beea-0d3af992df61"
      }, {
        "reference": "Procedure/35fe26b6-772e-4df6-9aa5-94d21feb4288"
      }, {
        "reference": "Condition/37e7257e-b0c3-4e42-a87e-75cb023bda49"
      }, {
        "reference": "Coverage/bac6fa1f-064d-452e-bd5e-6d3ae247a8a3"
      }, {
        "reference": "Organization/bbe57bd1-e781-43b3-bd84-3a3daf81fec8"
      }, {
        "reference": "Practitioner/50387296-aae9-4d77-a1a2-00114e729359"
      } ]
    },
    "request": {
      "method": "PUT",
      "url": "MeasureReport/4a3bd40f-76d7-460e-88b0-91464951443b"
    }
  } ]
}