{
  "resourceType": "Bundle",
  "id": "1316343131354",
  "type": "collection",
  "entry": [ {
    "fullUrl": "https://madie.cms.gov/Patient/b6995e3c-319c-45f1-8aca-4db81b6730f6",
    "resource": {
      "resourceType": "Patient",
      "id": "b6995e3c-319c-45f1-8aca-4db81b6730f6",
      "meta": {
        "profile": [ "http://hl7.org/fhir/us/qicore/StructureDefinition/qicore-patient" ]
      },
      "extension": [ {
        "url": "http://hl7.org/fhir/us/core/StructureDefinition/us-core-race",
        "extension": [ {
          "url": "ombCategory",
          "valueCoding": {
            "system": "urn:oid:2.16.840.1.113883.6.238",
            "code": "2106-3",
            "display": "White"
          }
        }, {
          "url": "text",
          "valueString": "White"
        } ]
      }, {
        "url": "http://hl7.org/fhir/us/core/StructureDefinition/us-core-ethnicity",
        "extension": [ {
          "url": "ombCategory",
          "valueCoding": {
            "system": "urn:oid:2.16.840.1.113883.6.238",
            "code": "2186-5",
            "display": "Not Hispanic or Latino"
          }
        }, {
          "url": "text",
          "valueString": "Not Hispanic or Latino"
        } ]
      }, {
        "url": "http://hl7.org/fhir/us/core/StructureDefinition/us-core-sex",
        "valueCode": "248152002"
      } ],
      "identifier": [ {
        "type": {
          "coding": [ {
            "system": "http://terminology.hl7.org/CodeSystem/v2-0203",
            "code": "MR"
          } ]
        },
        "system": "https://bonnie-fhir.healthit.gov/",
        "value": "749646313131"
      } ],
      "active": true,
      "name": [ {
        "use": "usual",
        "family": "IPPass",
        "given": [ "OVPtProvEncsHF" ]
      } ],
      "gender": "female",
      "birthDate": "1923-07-08"
    }
  }, {
    "fullUrl": "https://madie.cms.gov/Encounter/ff515f1f-c0dd-4c6b-b989-84bc4f5b6a95",
    "resource": {
      "resourceType": "Encounter",
      "id": "ff515f1f-c0dd-4c6b-b989-84bc4f5b6a95",
      "meta": {
        "profile": [ "http://hl7.org/fhir/us/qicore/StructureDefinition/qicore-encounter" ]
      },
      "status": "finished",
      "class": {
        "system": "http://terminology.hl7.org/CodeSystem/v3-ActCode",
        "code": "AMB",
        "display": "ambulatory"
      },
      "type": [ {
        "coding": [ {
          "system": "http://www.ama-assn.org/go/cpt",
          "version": "2024",
          "code": "99213"
        } ]
      } ],
      "subject": {
        "reference": "Patient/b6995e3c-319c-45f1-8aca-4db81b6730f6"
      },
      "period": {
        "start": "2026-05-01T14:40:00.000+00:00",
        "end": "2026-05-01T14:40:00.000+00:00"
      },
      "length": {
        "value": 0,
        "unit": "days"
      }
    }
  }, {
    "fullUrl": "https://madie.cms.gov/Encounter/a32ea500-0641-4a1b-a0cb-bad2a96b15da",
    "resource": {
      "resourceType": "Encounter",
      "id": "a32ea500-0641-4a1b-a0cb-bad2a96b15da",
      "meta": {
        "profile": [ "http://hl7.org/fhir/us/qicore/StructureDefinition/qicore-encounter" ]
      },
      "status": "finished",
      "class": {
        "system": "http://terminology.hl7.org/CodeSystem/v3-ActCode",
        "code": "AMB",
        "display": "ambulatory"
      },
      "type": [ {
        "coding": [ {
          "system": "http://snomed.info/sct",
          "version": "http://snomed.info/sct/731000124108/version/20240301",
          "code": "401271004"
        } ]
      } ],
      "subject": {
        "reference": "Patient/b6995e3c-319c-45f1-8aca-4db81b6730f6"
      },
      "period": {
        "start": "2026-07-02T11:50:00.000+00:00",
        "end": "2026-07-02T11:50:00.000+00:00"
      },
      "length": {
        "value": 0,
        "unit": "days"
      }
    }
  }, {
    "fullUrl": "https://madie.cms.gov/AllergyIntolerance/9dba6ddd-03f5-4480-8962-47b8b9b0ea35",
    "resource": {
      "resourceType": "AllergyIntolerance",
      "id": "9dba6ddd-03f5-4480-8962-47b8b9b0ea35",
      "meta": {
        "profile": [ "http://hl7.org/fhir/us/qicore/StructureDefinition/qicore-allergyintolerance" ]
      },
      "clinicalStatus": {
        "coding": [ {
          "system": "http://terminology.hl7.org/CodeSystem/allergyintolerance-clinical",
          "code": "active",
          "display": "Active"
        } ]
      },
      "code": {
        "coding": [ {
          "system": "http://www.nlm.nih.gov/research/umls/rxnorm",
          "version": "04012024",
          "code": "10600"
        } ]
      },
      "patient": {
        "reference": "Patient/b6995e3c-319c-45f1-8aca-4db81b6730f6"
      },
      "onsetPeriod": {
        "start": "2026-07-02T11:50:00.000+00:00"
      }
    }
  }, {
    "fullUrl": "https://madie.cms.gov/Condition/fcc1be25-2039-44db-89e1-71b8e6450f84",
    "resource": {
      "resourceType": "Condition",
      "id": "fcc1be25-2039-44db-89e1-71b8e6450f84",
      "meta": {
        "profile": [ "http://hl7.org/fhir/us/qicore/StructureDefinition/qicore-condition-problems-health-concerns" ]
      },
      "clinicalStatus": {
        "coding": [ {
          "system": "http://terminology.hl7.org/CodeSystem/condition-clinical",
          "code": "active",
          "display": "Active"
        } ]
      },
      "verificationStatus": {
        "coding": [ {
          "system": "http://terminology.hl7.org/CodeSystem/condition-ver-status",
          "code": "confirmed",
          "display": "Confirmed"
        } ]
      },
      "category": [ {
        "coding": [ {
          "system": "http://terminology.hl7.org/CodeSystem/condition-category",
          "code": "problem-list-item",
          "display": "Problem List Item"
        } ]
      } ],
      "code": {
        "coding": [ {
          "system": "http://hl7.org/fhir/sid/icd-10-cm",
          "version": "2024",
          "code": "I50.83"
        } ]
      },
      "subject": {
        "reference": "Patient/b6995e3c-319c-45f1-8aca-4db81b6730f6"
      },
      "onsetPeriod": {
        "start": "2026-04-21T10:00:00.000+00:00"
      }
    }
  }, {
    "fullUrl": "https://madie.cms.gov/Condition/f46d9ab6-a296-4377-8751-f4140a4c1633",
    "resource": {
      "resourceType": "Condition",
      "id": "f46d9ab6-a296-4377-8751-f4140a4c1633",
      "meta": {
        "profile": [ "http://hl7.org/fhir/us/qicore/StructureDefinition/qicore-condition-problems-health-concerns" ]
      },
      "clinicalStatus": {
        "coding": [ {
          "system": "http://terminology.hl7.org/CodeSystem/condition-clinical",
          "code": "active",
          "display": "Active"
        } ]
      },
      "category": [ {
        "coding": [ {
          "system": "http://terminology.hl7.org/CodeSystem/condition-category",
          "code": "problem-list-item",
          "display": "Problem List Item"
        } ]
      } ],
      "code": {
        "coding": [ {
          "system": "http://snomed.info/sct",
          "version": "http://snomed.info/sct/731000124108/version/20250301",
          "code": "134401001",
          "display": "Left ventricular systolic dysfunction (disorder)"
        } ]
      },
      "subject": {
        "reference": "Patient/b6995e3c-319c-45f1-8aca-4db81b6730f6"
      },
      "onsetPeriod": {
        "start": "2026-02-14T14:40:00.000+00:00"
      }
    }
  }, {
    "fullUrl": "https://madie.cms.gov/MeasureReport/0c508e3f-3eb3-4453-91a3-06f5e4cf6dcb",
    "resource": {
      "resourceType": "MeasureReport",
      "id": "0c508e3f-3eb3-4453-91a3-06f5e4cf6dcb",
      "meta": {
        "profile": [ "http://hl7.org/fhir/us/cqfmeasures/StructureDefinition/test-case-cqfm" ]
      },
      "contained": [ {
        "resourceType": "Parameters",
        "id": "b7330bd4-c3fb-4d31-aa31-9eaae45403a3-parameters",
        "parameter": [ {
          "name": "subject",
          "valueString": "b6995e3c-319c-45f1-8aca-4db81b6730f6"
        } ]
      } ],
      "extension": [ {
        "url": "http://hl7.org/fhir/StructureDefinition/cqf-inputParameters",
        "valueReference": {
          "reference": "#b7330bd4-c3fb-4d31-aa31-9eaae45403a3-parameters"
        }
      }, {
        "url": "http://hl7.org/fhir/us/cqfmeasures/StructureDefinition/cqfm-testCaseDescription",
        "valueMarkdown": "Patient with office visit and patient provider interaction encounters and heart failure diagnosis. Patient included in initial population due to 2 encounters and heart failure diagnosis during measurement period. "
      } ],
      "modifierExtension": [ {
        "url": "http://hl7.org/fhir/us/cqfmeasures/StructureDefinition/cqfm-isTestCase",
        "valueBoolean": true
      } ],
      "status": "complete",
      "type": "individual",
      "measure": "https://madie.cms.gov/Measure/CMS144FHIRHFBetaBlockerForLVSD",
      "period": {
        "start": "2026-01-01",
        "end": "2026-12-31"
      },
      "group": [ {
        "id": "Group_1",
        "population": [ {
          "id": "InitialPopulation_1",
          "code": {
            "coding": [ {
              "system": "http://terminology.hl7.org/CodeSystem/measure-population",
              "code": "initial-population",
              "display": "Initial Population"
            } ]
          },
          "count": 1
        }, {
          "id": "Denominator_1",
          "code": {
            "coding": [ {
              "system": "http://terminology.hl7.org/CodeSystem/measure-population",
              "code": "denominator",
              "display": "Denominator"
            } ]
          },
          "count": 0
        }, {
          "id": "DenominatorExclusion_1",
          "code": {
            "coding": [ {
              "system": "http://terminology.hl7.org/CodeSystem/measure-population",
              "code": "denominator-exclusion",
              "display": "Denominator Exclusion"
            } ]
          },
          "count": 0
        }, {
          "id": "Numerator_1",
          "code": {
            "coding": [ {
              "system": "http://terminology.hl7.org/CodeSystem/measure-population",
              "code": "numerator",
              "display": "Numerator"
            } ]
          },
          "count": 0
        }, {
          "id": "DenominatorException_1",
          "code": {
            "coding": [ {
              "system": "http://terminology.hl7.org/CodeSystem/measure-population",
              "code": "denominator-exception",
              "display": "Denominator Exception"
            } ]
          },
          "count": 0
        } ],
        "measureScore": {
          "value": 1.0
        }
      } ],
      "evaluatedResource": [ {
        "reference": "Patient/b6995e3c-319c-45f1-8aca-4db81b6730f6"
      }, {
        "reference": "Encounter/ff515f1f-c0dd-4c6b-b989-84bc4f5b6a95"
      }, {
        "reference": "Encounter/a32ea500-0641-4a1b-a0cb-bad2a96b15da"
      }, {
        "reference": "AllergyIntolerance/9dba6ddd-03f5-4480-8962-47b8b9b0ea35"
      }, {
        "reference": "Condition/fcc1be25-2039-44db-89e1-71b8e6450f84"
      }, {
        "reference": "Condition/f46d9ab6-a296-4377-8751-f4140a4c1633"
      } ]
    }
  } ]
}