{
  "resourceType": "Bundle",
  "id": "649f3586ee658463ed0fd36a",
  "type": "collection",
  "entry": [ {
    "fullUrl": "https://madie.cms.gov/Patient/8002d0cb-c4c0-4f54-96b0-c0e701947c07",
    "resource": {
      "resourceType": "Patient",
      "id": "8002d0cb-c4c0-4f54-96b0-c0e701947c07",
      "meta": {
        "profile": [ "http://hl7.org/fhir/us/qicore/StructureDefinition/qicore-patient" ]
      },
      "extension": [ {
        "url": "http://hl7.org/fhir/us/core/StructureDefinition/us-core-race",
        "extension": [ {
          "url": "ombCategory",
          "valueCoding": {
            "system": "urn:oid:2.16.840.1.113883.6.238",
            "code": "2054-5",
            "display": "Black or African American",
            "userSelected": true
          }
        }, {
          "url": "text",
          "valueString": "Black or African American"
        } ]
      }, {
        "url": "http://hl7.org/fhir/us/core/StructureDefinition/us-core-ethnicity",
        "extension": [ {
          "url": "ombCategory",
          "valueCoding": {
            "system": "urn:oid:2.16.840.1.113883.6.238",
            "code": "2186-5",
            "display": "Not Hispanic or Latino",
            "userSelected": true
          }
        }, {
          "url": "text",
          "valueString": "Not Hispanic or Latino"
        } ]
      } ],
      "identifier": [ {
        "type": {
          "coding": [ {
            "system": "http://terminology.hl7.org/CodeSystem/v2-0203",
            "code": "MR"
          } ]
        },
        "system": "https://bonnie-fhir.healthit.gov/",
        "value": "649f3586ee658463ed0fd36a"
      } ],
      "name": [ {
        "family": "NUMFail",
        "given": [ "2LabBeforeMP1LabDuringMP" ]
      } ],
      "gender": "female",
      "birthDate": "2001-02-04"
    }
  }, {
    "fullUrl": "https://madie.cms.gov/Condition/f3e1067a-1b1d-4973-99c0-fb0e641a85b7",
    "resource": {
      "resourceType": "Condition",
      "id": "f3e1067a-1b1d-4973-99c0-fb0e641a85b7",
      "meta": {
        "profile": [ "http://hl7.org/fhir/us/qicore/StructureDefinition/qicore-condition-problems-health-concerns" ]
      },
      "clinicalStatus": {
        "coding": [ {
          "system": "http://terminology.hl7.org/CodeSystem/condition-clinical",
          "code": "active",
          "display": "active",
          "userSelected": true
        } ]
      },
      "category": [ {
        "coding": [ {
          "system": "http://terminology.hl7.org/CodeSystem/condition-category",
          "code": "problem-list-item",
          "display": "Problem List Item"
        } ]
      } ],
      "code": {
        "coding": [ {
          "system": "http://hl7.org/fhir/sid/icd-9-cm",
          "version": "2013",
          "code": "042",
          "display": "Human immunodeficiency virus [HIV] disease",
          "userSelected": true
        }, {
          "system": "http://snomed.info/sct",
          "version": "http://snomed.info/sct/731000124108/version/20250301",
          "code": "165816005",
          "userSelected": true
        } ]
      },
      "subject": {
        "reference": "Patient/8002d0cb-c4c0-4f54-96b0-c0e701947c07"
      },
      "onsetDateTime": "2018-09-28T08:00:00.000+00:00",
      "recordedDate": "2018-09-28T08:00:00.000+00:00"
    }
  }, {
    "fullUrl": "https://madie.cms.gov/Encounter/6e2232ab-33fb-41da-a11f-1d0dffdf5ca4",
    "resource": {
      "resourceType": "Encounter",
      "id": "6e2232ab-33fb-41da-a11f-1d0dffdf5ca4",
      "meta": {
        "profile": [ "http://hl7.org/fhir/us/qicore/StructureDefinition/qicore-encounter" ]
      },
      "status": "finished",
      "class": {
        "system": "http://terminology.hl7.org/CodeSystem/v3-ActCode",
        "code": "AMB",
        "display": "ambulatory"
      },
      "type": [ {
        "coding": [ {
          "system": "http://www.ama-assn.org/go/cpt",
          "version": "2023",
          "code": "99391",
          "display": "Periodic comprehensive preventive medicine reevaluation and management of an individual including an age and gender appropriate history, examination, counseling/anticipatory guidance/risk factor reduction interventions, and the ordering of laboratory/diagnostic procedures, established patient; infant (age younger than 1 year)",
          "userSelected": true
        } ]
      } ],
      "subject": {
        "reference": "Patient/8002d0cb-c4c0-4f54-96b0-c0e701947c07"
      },
      "period": {
        "start": "2026-10-31T08:00:00.000+00:00",
        "end": "2026-10-31T08:15:00.000+00:00"
      }
    }
  }, {
    "fullUrl": "https://madie.cms.gov/Observation/7f068d18-9c45-4466-a843-a2627a9e0b5a",
    "resource": {
      "resourceType": "Observation",
      "id": "7f068d18-9c45-4466-a843-a2627a9e0b5a",
      "meta": {
        "profile": [ "http://hl7.org/fhir/us/qicore/StructureDefinition/qicore-observation-lab" ]
      },
      "status": "final",
      "category": [ {
        "coding": [ {
          "system": "http://terminology.hl7.org/CodeSystem/observation-category",
          "code": "laboratory",
          "display": "Laboratory"
        } ]
      }, {
        "coding": [ {
          "system": "http://terminology.hl7.org/CodeSystem/observation-category",
          "code": "survey"
        } ]
      } ],
      "code": {
        "coding": [ {
          "system": "http://loinc.org",
          "version": "2.73",
          "code": "11084-1",
          "display": "Reagin Ab [Titer] in Serum",
          "userSelected": true
        } ]
      },
      "subject": {
        "reference": "Patient/8002d0cb-c4c0-4f54-96b0-c0e701947c07"
      },
      "effectiveDateTime": "2024-10-31T08:16:00.000+00:00",
      "issued": "2024-10-31T08:16:00.000+00:00",
      "dataAbsentReason": {
        "coding": [ {
          "system": "http://terminology.hl7.org/CodeSystem/data-absent-reason",
          "code": "unknown",
          "display": "Unknown"
        } ]
      }
    }
  }, {
    "fullUrl": "https://madie.cms.gov/Observation/52387af8-affa-4b2b-b67f-4040804a8a82",
    "resource": {
      "resourceType": "Observation",
      "id": "52387af8-affa-4b2b-b67f-4040804a8a82",
      "meta": {
        "profile": [ "http://hl7.org/fhir/us/qicore/StructureDefinition/qicore-observation-lab" ]
      },
      "status": "final",
      "category": [ {
        "coding": [ {
          "system": "http://terminology.hl7.org/CodeSystem/observation-category",
          "code": "laboratory",
          "display": "Laboratory"
        } ]
      }, {
        "coding": [ {
          "system": "http://terminology.hl7.org/CodeSystem/observation-category",
          "code": "survey"
        } ]
      } ],
      "code": {
        "coding": [ {
          "system": "http://loinc.org",
          "version": "2.73",
          "code": "21414-8",
          "display": "Neisseria gonorrhoeae DNA [Presence] in Cervical mucus by NAA with probe detection",
          "userSelected": true
        } ]
      },
      "subject": {
        "reference": "Patient/8002d0cb-c4c0-4f54-96b0-c0e701947c07"
      },
      "effectiveDateTime": "2024-10-31T08:00:00.000+00:00",
      "issued": "2024-10-31T08:00:00.000+00:00",
      "dataAbsentReason": {
        "coding": [ {
          "system": "http://terminology.hl7.org/CodeSystem/data-absent-reason",
          "code": "unknown",
          "display": "Unknown"
        } ]
      }
    }
  }, {
    "fullUrl": "https://madie.cms.gov/Observation/4e9f4ec1-3ed9-48c1-925d-4b7f9b1f51d7",
    "resource": {
      "resourceType": "Observation",
      "id": "4e9f4ec1-3ed9-48c1-925d-4b7f9b1f51d7",
      "meta": {
        "profile": [ "http://hl7.org/fhir/us/qicore/StructureDefinition/qicore-observation-lab" ]
      },
      "status": "final",
      "category": [ {
        "coding": [ {
          "system": "http://terminology.hl7.org/CodeSystem/observation-category",
          "code": "laboratory",
          "display": "Laboratory"
        } ]
      }, {
        "coding": [ {
          "system": "http://terminology.hl7.org/CodeSystem/observation-category",
          "code": "survey"
        } ]
      } ],
      "code": {
        "coding": [ {
          "system": "http://loinc.org",
          "version": "2.73",
          "code": "14463-4",
          "display": "Chlamydia trachomatis [Presence] in Cervix by Organism specific culture",
          "userSelected": true
        } ]
      },
      "subject": {
        "reference": "Patient/8002d0cb-c4c0-4f54-96b0-c0e701947c07"
      },
      "effectivePeriod": {
        "start": "2026-10-31T08:16:00.000+00:00",
        "end": "2026-10-31T08:17:00.000+00:00"
      },
      "issued": "2026-10-31T08:16:00.000+00:00",
      "dataAbsentReason": {
        "coding": [ {
          "system": "http://terminology.hl7.org/CodeSystem/data-absent-reason",
          "code": "unknown",
          "display": "Unknown"
        } ]
      }
    }
  }, {
    "fullUrl": "https://madie.cms.gov/Coverage/4bdd9a61-abe2-45a0-b2fb-455ecf38358e",
    "resource": {
      "resourceType": "Coverage",
      "id": "4bdd9a61-abe2-45a0-b2fb-455ecf38358e",
      "meta": {
        "profile": [ "http://hl7.org/fhir/us/qicore/StructureDefinition/qicore-coverage" ]
      },
      "status": "active",
      "subscriberId": "123456",
      "beneficiary": {
        "reference": "Patient/8002d0cb-c4c0-4f54-96b0-c0e701947c07"
      },
      "relationship": {
        "coding": [ {
          "system": "http://terminology.hl7.org/CodeSystem/subscriber-relationship",
          "code": "self",
          "display": "Self"
        } ]
      },
      "payor": [ {
        "reference": "Organization/8cbd0e48-514a-466f-be1c-88d753ae6c79"
      } ]
    }
  }, {
    "fullUrl": "https://madie.cms.gov/Organization/8cbd0e48-514a-466f-be1c-88d753ae6c79",
    "resource": {
      "resourceType": "Organization",
      "id": "8cbd0e48-514a-466f-be1c-88d753ae6c79",
      "meta": {
        "profile": [ "http://hl7.org/fhir/us/qicore/StructureDefinition/qicore-organization" ]
      },
      "identifier": [ {
        "use": "temp",
        "system": "urn:oid:2.16.840.1.113883.4.4",
        "value": "21-3259825"
      } ],
      "active": true,
      "type": [ {
        "coding": [ {
          "system": "http://terminology.hl7.org/CodeSystem/organization-type",
          "code": "pay",
          "display": "Payer"
        } ]
      } ],
      "name": "Blue Cross Blue Shield of Texas",
      "telecom": [ {
        "system": "phone",
        "value": "(+1) 972-766-6900"
      } ],
      "address": [ {
        "use": "billing",
        "type": "postal",
        "line": [ "P.O. Box 660044" ],
        "city": "Dallas",
        "state": "TX",
        "postalCode": "75266-0044",
        "country": "USA"
      } ]
    }
  }, {
    "fullUrl": "https://madie.cms.gov/Practitioner/b9844b1d-229a-4dad-baf4-004123052f99",
    "resource": {
      "resourceType": "Practitioner",
      "id": "b9844b1d-229a-4dad-baf4-004123052f99",
      "meta": {
        "profile": [ "http://hl7.org/fhir/us/qicore/StructureDefinition/qicore-practitioner" ]
      },
      "identifier": [ {
        "system": "http://hl7.org/fhir/sid/us-npi",
        "value": "1689411712"
      } ],
      "name": [ {
        "family": "Evil",
        "prefix": [ "Dr" ]
      } ]
    }
  }, {
    "fullUrl": "https://madie.cms.gov/MeasureReport/6a270cd2-6764-461f-b12b-d5f3f6fa3bee",
    "resource": {
      "resourceType": "MeasureReport",
      "id": "6a270cd2-6764-461f-b12b-d5f3f6fa3bee",
      "meta": {
        "profile": [ "http://hl7.org/fhir/us/cqfmeasures/StructureDefinition/test-case-cqfm" ]
      },
      "contained": [ {
        "resourceType": "Parameters",
        "id": "dbcf6e48-ff2c-42b6-8793-7a1e74b32073-parameters",
        "parameter": [ {
          "name": "subject",
          "valueString": "8002d0cb-c4c0-4f54-96b0-c0e701947c07"
        } ]
      } ],
      "extension": [ {
        "url": "http://hl7.org/fhir/StructureDefinition/cqf-inputParameters",
        "valueReference": {
          "reference": "#dbcf6e48-ff2c-42b6-8793-7a1e74b32073-parameters"
        }
      }, {
        "url": "http://hl7.org/fhir/us/cqfmeasures/StructureDefinition/cqfm-testCaseDescription",
        "valueMarkdown": "Patient is over 13 years old with an encounter - 2 STI screen before MP, 1 STI screen during MP"
      } ],
      "modifierExtension": [ {
        "url": "http://hl7.org/fhir/us/cqfmeasures/StructureDefinition/cqfm-isTestCase",
        "valueBoolean": true
      } ],
      "status": "complete",
      "type": "individual",
      "measure": "https://madie.cms.gov/Measure/CMS1188FHIRHIVSTITesting",
      "period": {
        "start": "2026-01-01",
        "end": "2026-12-31"
      },
      "group": [ {
        "id": "Group_1",
        "population": [ {
          "id": "InitialPopulation_1",
          "code": {
            "coding": [ {
              "system": "http://terminology.hl7.org/CodeSystem/measure-population",
              "code": "initial-population",
              "display": "Initial Population"
            } ]
          },
          "count": 1
        }, {
          "id": "Denominator_1",
          "code": {
            "coding": [ {
              "system": "http://terminology.hl7.org/CodeSystem/measure-population",
              "code": "denominator",
              "display": "Denominator"
            } ]
          },
          "count": 1
        }, {
          "id": "Numerator_1",
          "code": {
            "coding": [ {
              "system": "http://terminology.hl7.org/CodeSystem/measure-population",
              "code": "numerator",
              "display": "Numerator"
            } ]
          },
          "count": 0
        } ],
        "measureScore": {
          "value": 1.0
        }
      } ],
      "evaluatedResource": [ {
        "reference": "Patient/8002d0cb-c4c0-4f54-96b0-c0e701947c07"
      }, {
        "reference": "Condition/f3e1067a-1b1d-4973-99c0-fb0e641a85b7"
      }, {
        "reference": "Encounter/6e2232ab-33fb-41da-a11f-1d0dffdf5ca4"
      }, {
        "reference": "Observation/7f068d18-9c45-4466-a843-a2627a9e0b5a"
      }, {
        "reference": "Observation/52387af8-affa-4b2b-b67f-4040804a8a82"
      }, {
        "reference": "Observation/4e9f4ec1-3ed9-48c1-925d-4b7f9b1f51d7"
      }, {
        "reference": "Coverage/4bdd9a61-abe2-45a0-b2fb-455ecf38358e"
      }, {
        "reference": "Organization/8cbd0e48-514a-466f-be1c-88d753ae6c79"
      }, {
        "reference": "Practitioner/b9844b1d-229a-4dad-baf4-004123052f99"
      } ]
    }
  } ]
}