{
  "resourceType": "Bundle",
  "id": "NUMERPass-VR12OrthogonalResulted",
  "type": "collection",
  "entry": [ {
    "fullUrl": "https://madie.cms.gov/Patient/57db5524-8599-4e70-a8b1-be637ec5310e",
    "resource": {
      "resourceType": "Patient",
      "id": "57db5524-8599-4e70-a8b1-be637ec5310e",
      "meta": {
        "profile": [ "http://hl7.org/fhir/us/qicore/StructureDefinition/qicore-patient" ]
      },
      "extension": [ {
        "url": "http://hl7.org/fhir/us/core/StructureDefinition/us-core-race",
        "extension": [ {
          "url": "ombCategory",
          "valueCoding": {
            "system": "urn:oid:2.16.840.1.113883.6.238",
            "code": "2028-9",
            "display": "Asian"
          }
        }, {
          "url": "text",
          "valueString": "Asian"
        } ]
      }, {
        "url": "http://hl7.org/fhir/us/core/StructureDefinition/us-core-ethnicity",
        "extension": [ {
          "url": "ombCategory",
          "valueCoding": {
            "system": "urn:oid:2.16.840.1.113883.6.238",
            "code": "2135-2",
            "display": "Hispanic or Latino"
          }
        }, {
          "url": "text",
          "valueString": "Hispanic or Latino"
        } ]
      } ],
      "identifier": [ {
        "system": "http://hospital.smarthealthit.org",
        "value": "999999995"
      } ],
      "name": [ {
        "family": "Bertha",
        "given": [ "Betty" ]
      } ],
      "gender": "female",
      "birthDate": "2008-01-01"
    }
  }, {
    "fullUrl": "https://madie.cms.gov/Encounter/beb5701d-00cd-4f33-9acd-fc6a6f9d68fd",
    "resource": {
      "resourceType": "Encounter",
      "id": "beb5701d-00cd-4f33-9acd-fc6a6f9d68fd",
      "meta": {
        "profile": [ "http://hl7.org/fhir/us/qicore/StructureDefinition/qicore-encounter" ]
      },
      "status": "finished",
      "class": {
        "system": "http://terminology.hl7.org/CodeSystem/v3-ActCode",
        "code": "AMB",
        "display": "ambulatory"
      },
      "type": [ {
        "coding": [ {
          "system": "http://snomed.info/sct",
          "code": "185317003",
          "display": "Telephone encounter (procedure)"
        } ]
      } ],
      "subject": {
        "reference": "Patient/57db5524-8599-4e70-a8b1-be637ec5310e"
      },
      "period": {
        "start": "2026-01-01T01:00:00.000+00:00",
        "end": "2026-01-01T01:15:00.000+00:00"
      }
    }
  }, {
    "fullUrl": "https://madie.cms.gov/Encounter/b4f243aa-3705-4e7b-9755-2b3a17ba01fe",
    "resource": {
      "resourceType": "Encounter",
      "id": "b4f243aa-3705-4e7b-9755-2b3a17ba01fe",
      "meta": {
        "profile": [ "http://hl7.org/fhir/us/qicore/StructureDefinition/qicore-encounter" ]
      },
      "status": "finished",
      "class": {
        "system": "http://terminology.hl7.org/CodeSystem/v3-ActCode",
        "code": "AMB",
        "display": "ambulatory"
      },
      "type": [ {
        "coding": [ {
          "system": "http://snomed.info/sct",
          "code": "185317003",
          "display": "Telephone encounter (procedure)"
        } ]
      } ],
      "subject": {
        "reference": "Patient/57db5524-8599-4e70-a8b1-be637ec5310e"
      },
      "period": {
        "start": "2026-01-02T01:00:00.000+00:00",
        "end": "2026-01-02T01:15:00.000+00:00"
      }
    }
  }, {
    "fullUrl": "https://madie.cms.gov/Condition/b7090252-50be-420a-a8d8-a32aa61517ed",
    "resource": {
      "resourceType": "Condition",
      "id": "b7090252-50be-420a-a8d8-a32aa61517ed",
      "meta": {
        "profile": [ "http://hl7.org/fhir/us/qicore/StructureDefinition/qicore-condition-problems-health-concerns" ]
      },
      "clinicalStatus": {
        "coding": [ {
          "system": "http://terminology.hl7.org/CodeSystem/condition-clinical",
          "code": "active"
        } ]
      },
      "category": [ {
        "coding": [ {
          "system": "http://terminology.hl7.org/CodeSystem/condition-category",
          "code": "problem-list-item",
          "display": "Problem List Item"
        } ]
      } ],
      "code": {
        "coding": [ {
          "system": "http://snomed.info/sct",
          "version": "http://snomed.info/sct/731000124108/version/20250301",
          "code": "10091002",
          "display": "High output heart failure (disorder)"
        } ]
      },
      "subject": {
        "reference": "Patient/57db5524-8599-4e70-a8b1-be637ec5310e"
      },
      "onsetDateTime": "2025-12-31T23:59:00.000+00:00"
    }
  }, {
    "fullUrl": "https://madie.cms.gov/Observation/005d90d1-e476-48bd-aeaa-2e49f0dd6654",
    "resource": {
      "resourceType": "Observation",
      "id": "005d90d1-e476-48bd-aeaa-2e49f0dd6654",
      "meta": {
        "profile": [ "http://hl7.org/fhir/us/qicore/StructureDefinition/qicore-observation-screening-assessment" ]
      },
      "status": "final",
      "category": [ {
        "coding": [ {
          "system": "http://terminology.hl7.org/CodeSystem/observation-category",
          "code": "survey",
          "display": "survey"
        } ],
        "text": "survey"
      } ],
      "code": {
        "coding": [ {
          "system": "http://loinc.org",
          "code": "72028-4",
          "display": "VR-12 Mental component summary (MCS) score - orthogonal method T-score"
        } ]
      },
      "subject": {
        "reference": "Patient/57db5524-8599-4e70-a8b1-be637ec5310e"
      },
      "effectivePeriod": {
        "start": "2026-01-01T23:00:00.000+00:00",
        "end": "2026-01-01T23:59:00.000+00:00"
      },
      "valueInteger": 4
    }
  }, {
    "fullUrl": "https://madie.cms.gov/Observation/64d09b6a-edb9-47fd-b7ce-c8188a0a0b76",
    "resource": {
      "resourceType": "Observation",
      "id": "64d09b6a-edb9-47fd-b7ce-c8188a0a0b76",
      "meta": {
        "profile": [ "http://hl7.org/fhir/us/qicore/StructureDefinition/qicore-observation-screening-assessment" ]
      },
      "status": "final",
      "category": [ {
        "coding": [ {
          "system": "http://terminology.hl7.org/CodeSystem/observation-category",
          "code": "survey",
          "display": "survey"
        } ],
        "text": "survey"
      } ],
      "code": {
        "coding": [ {
          "system": "http://loinc.org",
          "code": "72028-4",
          "display": "VR-12 Mental component summary (MCS) score - orthogonal method T-score"
        } ]
      },
      "subject": {
        "reference": "Patient/57db5524-8599-4e70-a8b1-be637ec5310e"
      },
      "effectivePeriod": {
        "start": "2026-01-31T23:00:00.000+00:00",
        "end": "2026-01-31T23:59:00.000+00:00"
      },
      "valueInteger": 4
    }
  }, {
    "fullUrl": "https://madie.cms.gov/Observation/3c4182b3-21db-42dd-b687-c3b0fdacdfe0",
    "resource": {
      "resourceType": "Observation",
      "id": "3c4182b3-21db-42dd-b687-c3b0fdacdfe0",
      "meta": {
        "profile": [ "http://hl7.org/fhir/us/qicore/StructureDefinition/qicore-observation-screening-assessment" ]
      },
      "status": "final",
      "category": [ {
        "coding": [ {
          "system": "http://terminology.hl7.org/CodeSystem/observation-category",
          "code": "survey",
          "display": "survey"
        } ],
        "text": "survey"
      } ],
      "code": {
        "coding": [ {
          "system": "http://loinc.org",
          "code": "72027-6",
          "display": "VR-12 Physical component summary (PCS) score - orthogonal method T-score"
        } ]
      },
      "subject": {
        "reference": "Patient/57db5524-8599-4e70-a8b1-be637ec5310e"
      },
      "effectivePeriod": {
        "start": "2026-01-01T23:00:00.000+00:00",
        "end": "2026-01-01T23:59:00.000+00:00"
      },
      "valueInteger": 4
    }
  }, {
    "fullUrl": "https://madie.cms.gov/Observation/83f0bbd1-724e-48ca-8ec2-fc442dd14040",
    "resource": {
      "resourceType": "Observation",
      "id": "83f0bbd1-724e-48ca-8ec2-fc442dd14040",
      "meta": {
        "profile": [ "http://hl7.org/fhir/us/qicore/StructureDefinition/qicore-observation-screening-assessment" ]
      },
      "status": "final",
      "category": [ {
        "coding": [ {
          "system": "http://terminology.hl7.org/CodeSystem/observation-category",
          "code": "survey",
          "display": "survey"
        } ],
        "text": "survey"
      } ],
      "code": {
        "coding": [ {
          "system": "http://loinc.org",
          "code": "72027-6",
          "display": "VR-12 Physical component summary (PCS) score - orthogonal method T-score"
        } ]
      },
      "subject": {
        "reference": "Patient/57db5524-8599-4e70-a8b1-be637ec5310e"
      },
      "effectivePeriod": {
        "start": "2026-01-31T23:00:00.000+00:00",
        "end": "2026-01-31T23:59:00.000+00:00"
      },
      "valueInteger": 4
    }
  }, {
    "fullUrl": "https://madie.cms.gov/MeasureReport/f0ee655a-0278-4757-8f4d-2eedf5e13ce4",
    "resource": {
      "resourceType": "MeasureReport",
      "id": "f0ee655a-0278-4757-8f4d-2eedf5e13ce4",
      "meta": {
        "profile": [ "http://hl7.org/fhir/us/cqfmeasures/StructureDefinition/test-case-cqfm" ]
      },
      "contained": [ {
        "resourceType": "Parameters",
        "id": "b86675df-d9c7-473d-b0a4-6d3e40504f56-parameters",
        "parameter": [ {
          "name": "subject",
          "valueString": "57db5524-8599-4e70-a8b1-be637ec5310e"
        } ]
      } ],
      "extension": [ {
        "url": "http://hl7.org/fhir/StructureDefinition/cqf-inputParameters",
        "valueReference": {
          "reference": "#b86675df-d9c7-473d-b0a4-6d3e40504f56-parameters"
        }
      }, {
        "url": "http://hl7.org/fhir/us/cqfmeasures/StructureDefinition/cqfm-testCaseDescription",
        "valueMarkdown": "Patient has all VR12 Orthogonal results during the correct timeframe"
      } ],
      "modifierExtension": [ {
        "url": "http://hl7.org/fhir/us/cqfmeasures/StructureDefinition/cqfm-isTestCase",
        "valueBoolean": true
      } ],
      "status": "complete",
      "type": "individual",
      "measure": "https://madie.cms.gov/Measure/CMS90FHIRFSAforHeartFailure",
      "period": {
        "start": "2026-01-01",
        "end": "2026-12-31"
      },
      "group": [ {
        "id": "Group_1",
        "population": [ {
          "id": "InitialPopulation_1",
          "code": {
            "coding": [ {
              "system": "http://terminology.hl7.org/CodeSystem/measure-population",
              "code": "initial-population",
              "display": "Initial Population"
            } ]
          },
          "count": 1
        }, {
          "id": "Denominator_1",
          "code": {
            "coding": [ {
              "system": "http://terminology.hl7.org/CodeSystem/measure-population",
              "code": "denominator",
              "display": "Denominator"
            } ]
          },
          "count": 1
        }, {
          "id": "DenominatorExclusion_1",
          "code": {
            "coding": [ {
              "system": "http://terminology.hl7.org/CodeSystem/measure-population",
              "code": "denominator-exclusion",
              "display": "Denominator Exclusion"
            } ]
          },
          "count": 0
        }, {
          "id": "Numerator_1",
          "code": {
            "coding": [ {
              "system": "http://terminology.hl7.org/CodeSystem/measure-population",
              "code": "numerator",
              "display": "Numerator"
            } ]
          },
          "count": 1
        } ],
        "measureScore": {
          "value": 1.0
        }
      } ],
      "evaluatedResource": [ {
        "reference": "Patient/57db5524-8599-4e70-a8b1-be637ec5310e"
      }, {
        "reference": "Encounter/beb5701d-00cd-4f33-9acd-fc6a6f9d68fd"
      }, {
        "reference": "Encounter/b4f243aa-3705-4e7b-9755-2b3a17ba01fe"
      }, {
        "reference": "Condition/b7090252-50be-420a-a8d8-a32aa61517ed"
      }, {
        "reference": "Observation/005d90d1-e476-48bd-aeaa-2e49f0dd6654"
      }, {
        "reference": "Observation/64d09b6a-edb9-47fd-b7ce-c8188a0a0b76"
      }, {
        "reference": "Observation/3c4182b3-21db-42dd-b687-c3b0fdacdfe0"
      }, {
        "reference": "Observation/83f0bbd1-724e-48ca-8ec2-fc442dd14040"
      } ]
    }
  } ]
}