{
  "resourceType": "Bundle",
  "id": "6356cc6154e383debade759d",
  "type": "transaction",
  "entry": [ {
    "fullUrl": "https://madie.cms.gov/Patient/b2d27ac4-8709-4296-85a4-598d9ef02fe7",
    "resource": {
      "resourceType": "Patient",
      "id": "b2d27ac4-8709-4296-85a4-598d9ef02fe7",
      "meta": {
        "profile": [ "http://hl7.org/fhir/us/qicore/StructureDefinition/qicore-patient" ]
      },
      "text": {
        "status": "generated",
        "div": "<div xmlns=\"http://www.w3.org/1999/xhtml\"><div class=\"hapiHeaderText\">LastAssPrfEDDRelvTm42WksB4DelDtTimeEDDRsltNull<b>DENOMFail</b></div><table class=\"hapiPropertyTable\"><tbody><tr><td>Date of birth</td><td><span>01 February 2004</span></td></tr></tbody></table></div>"
      },
      "extension": [ {
        "url": "http://hl7.org/fhir/us/core/StructureDefinition/us-core-race",
        "extension": [ {
          "url": "ombCategory",
          "valueCoding": {
            "system": "urn:oid:2.16.840.1.113883.6.238",
            "code": "1002-5",
            "display": "American Indian or Alaska Native",
            "userSelected": true
          }
        }, {
          "url": "text",
          "valueString": "American Indian or Alaska Native"
        } ]
      }, {
        "url": "http://hl7.org/fhir/us/core/StructureDefinition/us-core-ethnicity",
        "extension": [ {
          "url": "ombCategory",
          "valueCoding": {
            "system": "urn:oid:2.16.840.1.113883.6.238",
            "code": "2135-2",
            "display": "Hispanic or Latino",
            "userSelected": true
          }
        }, {
          "url": "text",
          "valueString": "Hispanic or Latino"
        } ]
      } ],
      "identifier": [ {
        "type": {
          "coding": [ {
            "system": "http://terminology.hl7.org/CodeSystem/v2-0203",
            "code": "MR"
          } ]
        },
        "system": "https://bonnie-fhir.healthit.gov/",
        "value": "6356cc6154e383debade759d"
      } ],
      "active": true,
      "name": [ {
        "use": "usual",
        "family": "DENOMFail",
        "given": [ "LastAssPrfEDDRelvTm42WksB4DelDtTimeEDDRsltNull" ]
      } ],
      "gender": "female",
      "birthDate": "1971-02-01"
    },
    "request": {
      "method": "PUT",
      "url": "Patient/b2d27ac4-8709-4296-85a4-598d9ef02fe7"
    }
  }, {
    "fullUrl": "https://madie.cms.gov/Observation/422408f1-1859-4bfd-bce7-5698e0cd8649",
    "resource": {
      "resourceType": "Observation",
      "id": "422408f1-1859-4bfd-bce7-5698e0cd8649",
      "meta": {
        "profile": [ "http://hl7.org/fhir/us/qicore/StructureDefinition/qicore-simple-observation" ]
      },
      "status": "final",
      "category": [ {
        "coding": [ {
          "system": "http://terminology.hl7.org/CodeSystem/observation-category",
          "code": "exam",
          "display": "exam",
          "userSelected": true
        } ]
      } ],
      "code": {
        "coding": [ {
          "system": "http://loinc.org",
          "code": "93857-1"
        } ]
      },
      "subject": {
        "reference": "Patient/b2d27ac4-8709-4296-85a4-598d9ef02fe7"
      },
      "effectiveDateTime": "2026-02-01T08:00:00.000+00:00",
      "performer": [ {
        "reference": "Organization/example1",
        "display": "Hendricks Country Hospital"
      } ],
      "valueDateTime": "2026-02-01T08:00:00.000+00:00"
    },
    "request": {
      "method": "PUT",
      "url": "Observation/422408f1-1859-4bfd-bce7-5698e0cd8649"
    }
  }, {
    "fullUrl": "https://madie.cms.gov/Observation/8c2d409b-fc33-409b-8d33-8d064b1aca1b",
    "resource": {
      "resourceType": "Observation",
      "id": "8c2d409b-fc33-409b-8d33-8d064b1aca1b",
      "meta": {
        "profile": [ "http://hl7.org/fhir/us/qicore/StructureDefinition/qicore-simple-observation" ]
      },
      "status": "final",
      "category": [ {
        "coding": [ {
          "system": "http://terminology.hl7.org/CodeSystem/observation-category",
          "code": "exam",
          "display": "exam",
          "userSelected": true
        } ]
      } ],
      "code": {
        "coding": [ {
          "system": "http://loinc.org",
          "code": "11778-8"
        } ]
      },
      "subject": {
        "reference": "Patient/b2d27ac4-8709-4296-85a4-598d9ef02fe7"
      },
      "effectiveDateTime": "2025-04-13T08:00:00.000+00:00",
      "performer": [ {
        "reference": "Organization/example1",
        "display": "Hendricks Country Hospital"
      } ]
    },
    "request": {
      "method": "PUT",
      "url": "Observation/8c2d409b-fc33-409b-8d33-8d064b1aca1b"
    }
  }, {
    "fullUrl": "https://madie.cms.gov/Encounter/4afc4a95-1ac0-45cf-a9bc-ace01a52a7b4",
    "resource": {
      "resourceType": "Encounter",
      "id": "4afc4a95-1ac0-45cf-a9bc-ace01a52a7b4",
      "meta": {
        "profile": [ "http://hl7.org/fhir/us/qicore/StructureDefinition/qicore-encounter" ]
      },
      "status": "finished",
      "class": {
        "system": "http://terminology.hl7.org/CodeSystem/v3-ActCode",
        "code": "IMP",
        "display": "inpatient encounter"
      },
      "type": [ {
        "coding": [ {
          "system": "http://snomed.info/sct",
          "code": "183452005"
        }, {
          "system": "http://snomed.info/sct",
          "code": "32485007",
          "userSelected": true
        } ]
      } ],
      "subject": {
        "reference": "Patient/b2d27ac4-8709-4296-85a4-598d9ef02fe7"
      },
      "period": {
        "start": "2026-01-30T08:00:00.000+00:00",
        "end": "2026-02-05T08:15:00.000+00:00"
      }
    },
    "request": {
      "method": "PUT",
      "url": "Encounter/4afc4a95-1ac0-45cf-a9bc-ace01a52a7b4"
    }
  }, {
    "fullUrl": "https://madie.cms.gov/Procedure/8899f56f-80aa-475e-b00e-02892277e539",
    "resource": {
      "resourceType": "Procedure",
      "id": "8899f56f-80aa-475e-b00e-02892277e539",
      "meta": {
        "profile": [ "http://hl7.org/fhir/us/qicore/StructureDefinition/qicore-procedure" ]
      },
      "extension": [ {
        "url": "http://hl7.org/fhir/us/qicore/StructureDefinition/qicore-recorded",
        "valueDateTime": "2014-04-05T13:35:00.000+00:00"
      } ],
      "status": "completed",
      "code": {
        "coding": [ {
          "system": "http://snomed.info/sct",
          "code": "10745001"
        }, {
          "system": "http://snomed.info/sct",
          "code": "11466000",
          "userSelected": true
        } ]
      },
      "subject": {
        "reference": "Patient/b2d27ac4-8709-4296-85a4-598d9ef02fe7"
      },
      "performedPeriod": {
        "start": "2026-02-01T08:00:00.000+00:00",
        "end": "2026-02-05T08:15:00.000+00:00"
      }
    },
    "request": {
      "method": "PUT",
      "url": "Procedure/8899f56f-80aa-475e-b00e-02892277e539"
    }
  }, {
    "fullUrl": "https://madie.cms.gov/Coverage/c602fbac-44fe-4f70-aec9-10e6b0d24662",
    "resource": {
      "resourceType": "Coverage",
      "id": "c602fbac-44fe-4f70-aec9-10e6b0d24662",
      "meta": {
        "profile": [ "http://hl7.org/fhir/us/qicore/StructureDefinition/qicore-coverage" ]
      },
      "status": "active",
      "subscriberId": "523435",
      "beneficiary": {
        "reference": "Patient/b2d27ac4-8709-4296-85a4-598d9ef02fe7"
      },
      "relationship": {
        "coding": [ {
          "system": "http://terminology.hl7.org/CodeSystem/subscriber-relationship",
          "code": "self"
        } ]
      },
      "payor": [ {
        "reference": "Organization/0c6d93aa-e48f-4c3c-a6d8-0fecfd83c986"
      } ]
    },
    "request": {
      "method": "PUT",
      "url": "Coverage/c602fbac-44fe-4f70-aec9-10e6b0d24662"
    }
  }, {
    "fullUrl": "https://madie.cms.gov/Organization/0c6d93aa-e48f-4c3c-a6d8-0fecfd83c986",
    "resource": {
      "resourceType": "Organization",
      "id": "0c6d93aa-e48f-4c3c-a6d8-0fecfd83c986",
      "meta": {
        "profile": [ "http://hl7.org/fhir/us/qicore/StructureDefinition/qicore-organization" ]
      },
      "identifier": [ {
        "use": "temp",
        "system": "urn:oid:2.16.840.1.113883.4.4",
        "value": "21-3259825"
      } ],
      "active": true,
      "type": [ {
        "coding": [ {
          "system": "http://terminology.hl7.org/CodeSystem/organization-type",
          "code": "pay",
          "display": "Payer"
        } ]
      } ],
      "name": "Blue Cross Blue Shield of Texas",
      "telecom": [ {
        "system": "phone",
        "value": "(+1) 972-766-6900"
      } ],
      "address": [ {
        "use": "billing",
        "type": "postal",
        "line": [ "P.O. Box 660044" ],
        "city": "Dallas",
        "state": "TX",
        "postalCode": "75266-0044",
        "country": "USA"
      } ]
    },
    "request": {
      "method": "PUT",
      "url": "Organization/0c6d93aa-e48f-4c3c-a6d8-0fecfd83c986"
    }
  }, {
    "fullUrl": "https://madie.cms.gov/Practitioner/bdd0e975-7542-48a2-8b83-b253cd10ce57",
    "resource": {
      "resourceType": "Practitioner",
      "id": "bdd0e975-7542-48a2-8b83-b253cd10ce57",
      "meta": {
        "profile": [ "http://hl7.org/fhir/us/qicore/StructureDefinition/qicore-practitioner" ]
      },
      "identifier": [ {
        "system": "http://hl7.org/fhir/sid/us-npi",
        "value": "1234567890"
      } ],
      "name": [ {
        "family": "Evil",
        "prefix": [ "Dr" ]
      } ]
    },
    "request": {
      "method": "PUT",
      "url": "Practitioner/bdd0e975-7542-48a2-8b83-b253cd10ce57"
    }
  }, {
    "fullUrl": "https://madie.cms.gov/MeasureReport/cf7ae831-715a-494b-b808-93d6b1f24ab2",
    "resource": {
      "resourceType": "MeasureReport",
      "id": "cf7ae831-715a-494b-b808-93d6b1f24ab2",
      "meta": {
        "profile": [ "http://hl7.org/fhir/us/cqfmeasures/StructureDefinition/test-case-cqfm" ]
      },
      "contained": [ {
        "resourceType": "Parameters",
        "id": "3c286e33-ae6e-41fa-9ab6-56a9832e5a91-parameters",
        "parameter": [ {
          "name": "subject",
          "valueString": "b2d27ac4-8709-4296-85a4-598d9ef02fe7"
        } ]
      } ],
      "extension": [ {
        "url": "http://hl7.org/fhir/StructureDefinition/cqf-inputParameters",
        "valueReference": {
          "reference": "#3c286e33-ae6e-41fa-9ab6-56a9832e5a91-parameters"
        }
      }, {
        "url": "http://hl7.org/fhir/us/cqfmeasures/StructureDefinition/cqfm-testCaseDescription",
        "valueMarkdown": "Last assessment Performed, Estimated Delivery Date, Relevant time, 42 weeks before Delivery Result Date/Time.  However, EDD Result is null.\n"
      } ],
      "modifierExtension": [ {
        "url": "http://hl7.org/fhir/us/cqfmeasures/StructureDefinition/cqfm-isTestCase",
        "valueBoolean": true
      } ],
      "status": "complete",
      "type": "individual",
      "measure": "https://madie.cms.gov/Measure/CMS1028FHIRPCSevereOBComps",
      "period": {
        "start": "2026-01-01",
        "end": "2026-12-31"
      },
      "group": [ {
        "id": "Group_1",
        "population": [ {
          "id": "InitialPopulation_1",
          "code": {
            "coding": [ {
              "system": "http://terminology.hl7.org/CodeSystem/measure-population",
              "code": "initial-population",
              "display": "Initial Population"
            } ]
          },
          "count": 1
        }, {
          "id": "Denominator_1",
          "code": {
            "coding": [ {
              "system": "http://terminology.hl7.org/CodeSystem/measure-population",
              "code": "denominator",
              "display": "Denominator"
            } ]
          },
          "count": 0
        }, {
          "id": "Numerator_1",
          "code": {
            "coding": [ {
              "system": "http://terminology.hl7.org/CodeSystem/measure-population",
              "code": "numerator",
              "display": "Numerator"
            } ]
          },
          "count": 0
        }, {
          "id": "NumeratorExclusion_1",
          "code": {
            "coding": [ {
              "system": "http://terminology.hl7.org/CodeSystem/measure-population",
              "code": "numerator-exclusion",
              "display": "Numerator Exclusion"
            } ]
          },
          "count": 0
        } ],
        "measureScore": {
          "value": 0.0
        }
      }, {
        "id": "Group_2",
        "population": [ {
          "id": "InitialPopulation_2",
          "code": {
            "coding": [ {
              "system": "http://terminology.hl7.org/CodeSystem/measure-population",
              "code": "initial-population",
              "display": "Initial Population"
            } ]
          },
          "count": 1
        }, {
          "id": "Denominator_2",
          "code": {
            "coding": [ {
              "system": "http://terminology.hl7.org/CodeSystem/measure-population",
              "code": "denominator",
              "display": "Denominator"
            } ]
          },
          "count": 0
        }, {
          "id": "Numerator_2",
          "code": {
            "coding": [ {
              "system": "http://terminology.hl7.org/CodeSystem/measure-population",
              "code": "numerator",
              "display": "Numerator"
            } ]
          },
          "count": 0
        }, {
          "id": "NumeratorExclusion_2",
          "code": {
            "coding": [ {
              "system": "http://terminology.hl7.org/CodeSystem/measure-population",
              "code": "numerator-exclusion",
              "display": "Numerator Exclusion"
            } ]
          },
          "count": 0
        } ],
        "measureScore": {
          "value": 0.0
        }
      } ],
      "evaluatedResource": [ {
        "reference": "Patient/b2d27ac4-8709-4296-85a4-598d9ef02fe7"
      }, {
        "reference": "Observation/422408f1-1859-4bfd-bce7-5698e0cd8649"
      }, {
        "reference": "Observation/8c2d409b-fc33-409b-8d33-8d064b1aca1b"
      }, {
        "reference": "Encounter/4afc4a95-1ac0-45cf-a9bc-ace01a52a7b4"
      }, {
        "reference": "Procedure/8899f56f-80aa-475e-b00e-02892277e539"
      }, {
        "reference": "Coverage/c602fbac-44fe-4f70-aec9-10e6b0d24662"
      }, {
        "reference": "Organization/0c6d93aa-e48f-4c3c-a6d8-0fecfd83c986"
      }, {
        "reference": "Practitioner/bdd0e975-7542-48a2-8b83-b253cd10ce57"
      } ]
    },
    "request": {
      "method": "PUT",
      "url": "MeasureReport/cf7ae831-715a-494b-b808-93d6b1f24ab2"
    }
  } ]
}