{
  "resourceType": "Bundle",
  "id": "DENEXFail-MajorInjuryPOAandNPOA",
  "type": "transaction",
  "entry": [ {
    "fullUrl": "https://madie.cms.gov/Encounter/224a3178-f6cb-4037-9125-f2218349586a",
    "resource": {
      "resourceType": "Encounter",
      "id": "224a3178-f6cb-4037-9125-f2218349586a",
      "meta": {
        "profile": [ "http://hl7.org/fhir/us/qicore/StructureDefinition/qicore-encounter" ]
      },
      "status": "finished",
      "class": {
        "system": "http://terminology.hl7.org/CodeSystem/v3-ActCode",
        "code": "IMP",
        "display": "inpatient encounter"
      },
      "type": [ {
        "coding": [ {
          "system": "http://snomed.info/sct",
          "code": "183452005"
        } ]
      } ],
      "subject": {
        "reference": "Patient/972573e8-bd51-4b77-a954-39babec1a055"
      },
      "period": {
        "start": "2026-11-09T11:00:00.000+00:00",
        "end": "2026-11-12T08:15:00.000+00:00"
      },
      "diagnosis": [ {
        "condition": {
          "reference": "Condition/ce1990a8-9298-40ef-88c3-0053d2b09a85"
        }
      }, {
        "condition": {
          "reference": "Condition/210a02dd-8321-47f7-90b5-b884497abe82"
        }
      } ]
    },
    "request": {
      "method": "PUT",
      "url": "Encounter/224a3178-f6cb-4037-9125-f2218349586a"
    }
  }, {
    "fullUrl": "https://madie.cms.gov/Encounter/cd28a1bd-5e0b-4b31-860a-3be27cd0369d",
    "resource": {
      "resourceType": "Encounter",
      "id": "cd28a1bd-5e0b-4b31-860a-3be27cd0369d",
      "meta": {
        "profile": [ "http://hl7.org/fhir/us/qicore/StructureDefinition/qicore-encounter" ]
      },
      "status": "finished",
      "class": {
        "system": "http://terminology.hl7.org/CodeSystem/v3-ActCode",
        "code": "IMP",
        "display": "inpatient encounter"
      },
      "type": [ {
        "coding": [ {
          "system": "http://snomed.info/sct",
          "code": "4525004"
        } ]
      } ],
      "subject": {
        "reference": "Patient/972573e8-bd51-4b77-a954-39babec1a055"
      },
      "period": {
        "start": "2026-11-09T08:00:00.000+00:00",
        "end": "2026-11-09T10:15:00.000+00:00"
      }
    },
    "request": {
      "method": "PUT",
      "url": "Encounter/cd28a1bd-5e0b-4b31-860a-3be27cd0369d"
    }
  }, {
    "fullUrl": "https://madie.cms.gov/Condition/210a02dd-8321-47f7-90b5-b884497abe82",
    "resource": {
      "resourceType": "Condition",
      "id": "210a02dd-8321-47f7-90b5-b884497abe82",
      "meta": {
        "profile": [ "http://hl7.org/fhir/us/qicore/StructureDefinition/qicore-condition-encounter-diagnosis" ]
      },
      "clinicalStatus": {
        "coding": [ {
          "system": "http://terminology.hl7.org/CodeSystem/condition-clinical",
          "code": "active"
        } ]
      },
      "verificationStatus": {
        "coding": [ {
          "system": "http://terminology.hl7.org/CodeSystem/condition-ver-status",
          "code": "confirmed"
        } ]
      },
      "category": [ {
        "coding": [ {
          "system": "http://terminology.hl7.org/CodeSystem/condition-category",
          "code": "encounter-diagnosis",
          "display": "Encounter Diagnosis"
        } ]
      } ],
      "code": {
        "coding": [ {
          "system": "http://hl7.org/fhir/sid/icd-10-cm",
          "code": "M80.00XA"
        } ]
      },
      "subject": {
        "reference": "Patient/972573e8-bd51-4b77-a954-39babec1a055"
      },
      "encounter": {
        "reference": "Encounter/224a3178-f6cb-4037-9125-f2218349586a"
      }
    },
    "request": {
      "method": "PUT",
      "url": "Condition/210a02dd-8321-47f7-90b5-b884497abe82"
    }
  }, {
    "fullUrl": "https://madie.cms.gov/Condition/ce1990a8-9298-40ef-88c3-0053d2b09a85",
    "resource": {
      "resourceType": "Condition",
      "id": "ce1990a8-9298-40ef-88c3-0053d2b09a85",
      "meta": {
        "profile": [ "http://hl7.org/fhir/us/qicore/StructureDefinition/qicore-condition-encounter-diagnosis" ]
      },
      "clinicalStatus": {
        "coding": [ {
          "system": "http://terminology.hl7.org/CodeSystem/condition-clinical",
          "code": "active"
        } ]
      },
      "verificationStatus": {
        "coding": [ {
          "system": "http://terminology.hl7.org/CodeSystem/condition-ver-status",
          "code": "confirmed"
        } ]
      },
      "category": [ {
        "coding": [ {
          "system": "http://terminology.hl7.org/CodeSystem/condition-category",
          "code": "encounter-diagnosis",
          "display": "Encounter Diagnosis"
        } ]
      } ],
      "code": {
        "coding": [ {
          "system": "http://hl7.org/fhir/sid/icd-10-cm",
          "code": "M80.00XA"
        } ]
      },
      "subject": {
        "reference": "Patient/972573e8-bd51-4b77-a954-39babec1a055"
      },
      "encounter": {
        "reference": "Encounter/224a3178-f6cb-4037-9125-f2218349586a"
      }
    },
    "request": {
      "method": "PUT",
      "url": "Condition/ce1990a8-9298-40ef-88c3-0053d2b09a85"
    }
  }, {
    "fullUrl": "https://madie.cms.gov/Patient/972573e8-bd51-4b77-a954-39babec1a055",
    "resource": {
      "resourceType": "Patient",
      "id": "972573e8-bd51-4b77-a954-39babec1a055",
      "meta": {
        "profile": [ "http://hl7.org/fhir/us/qicore/StructureDefinition/qicore-patient" ]
      },
      "extension": [ {
        "url": "http://hl7.org/fhir/us/core/StructureDefinition/us-core-race",
        "extension": [ {
          "url": "ombCategory",
          "valueCoding": {
            "system": "urn:oid:2.16.840.1.113883.6.238",
            "code": "1002-5",
            "display": "American Indian or Alaska Native",
            "userSelected": true
          }
        }, {
          "url": "text",
          "valueString": "American Indian or Alaska Native"
        } ]
      }, {
        "url": "http://hl7.org/fhir/us/core/StructureDefinition/us-core-ethnicity",
        "extension": [ {
          "url": "ombCategory",
          "valueCoding": {
            "system": "urn:oid:2.16.840.1.113883.6.238",
            "code": "2135-2",
            "display": "Hispanic or Latino",
            "userSelected": true
          }
        }, {
          "url": "text",
          "valueString": "Hispanic or Latino"
        } ]
      } ],
      "identifier": [ {
        "type": {
          "coding": [ {
            "system": "http://terminology.hl7.org/CodeSystem/v2-0203",
            "code": "MR"
          } ]
        },
        "system": "https://bonnie-fhir.healthit.gov/",
        "value": "61152a3b98086b7a79cbd7c1"
      } ],
      "active": true,
      "name": [ {
        "use": "usual",
        "family": "DENEXFail",
        "given": [ "MajorInjuryPOAandNPOA" ]
      } ],
      "gender": "female",
      "birthDate": "1964-12-11"
    },
    "request": {
      "method": "PUT",
      "url": "Patient/972573e8-bd51-4b77-a954-39babec1a055"
    }
  }, {
    "fullUrl": "https://madie.cms.gov/Claim/aeb3f5e6-5796-46a1-b0a6-b91cf5e0b40b",
    "resource": {
      "resourceType": "Claim",
      "id": "aeb3f5e6-5796-46a1-b0a6-b91cf5e0b40b",
      "meta": {
        "profile": [ "http://hl7.org/fhir/us/qicore/StructureDefinition/qicore-claim" ]
      },
      "status": "active",
      "type": {
        "coding": [ {
          "system": "http://terminology.hl7.org/CodeSystem/claim-type",
          "code": "professional",
          "display": "Professional"
        } ]
      },
      "use": "claim",
      "patient": {
        "reference": "Patient/972573e8-bd51-4b77-a954-39babec1a055"
      },
      "created": "2026-11-10",
      "provider": {
        "reference": "Practitioner/272790ae-3b08-44af-981c-f1ca5268d2e1"
      },
      "priority": {
        "coding": [ {
          "system": "http://terminology.hl7.org/CodeSystem/processpriority",
          "code": "normal"
        } ]
      },
      "diagnosis": [ {
        "sequence": 1,
        "diagnosisCodeableConcept": {
          "coding": [ {
            "system": "http://hl7.org/fhir/sid/icd-10-cm",
            "code": "M80.00XA"
          } ]
        },
        "onAdmission": {
          "coding": [ {
            "system": "https://www.cms.gov/Medicare/Medicare-Fee-for-Service-Payment/HospitalAcqCond/Coding",
            "code": "N"
          } ]
        }
      } ],
      "insurance": [ {
        "sequence": 1,
        "focal": true,
        "coverage": {
          "reference": "Coverage/5c5e1a77-618f-4da6-b9b1-cea4134d0259"
        }
      } ],
      "item": [ {
        "sequence": 1,
        "diagnosisSequence": [ 1, 2 ],
        "productOrService": {
          "coding": [ {
            "system": "http://terminology.hl7.org/CodeSystem/ex-USCLS",
            "code": "1101"
          } ]
        },
        "encounter": [ {
          "reference": "Encounter/224a3178-f6cb-4037-9125-f2218349586a"
        } ]
      } ]
    },
    "request": {
      "method": "PUT",
      "url": "Claim/aeb3f5e6-5796-46a1-b0a6-b91cf5e0b40b"
    }
  }, {
    "fullUrl": "https://madie.cms.gov/Claim/d4beb569-0904-4ddd-8ef0-704a640e06c4",
    "resource": {
      "resourceType": "Claim",
      "id": "d4beb569-0904-4ddd-8ef0-704a640e06c4",
      "meta": {
        "profile": [ "http://hl7.org/fhir/us/qicore/StructureDefinition/qicore-claim" ]
      },
      "status": "active",
      "type": {
        "coding": [ {
          "system": "http://terminology.hl7.org/CodeSystem/claim-type",
          "code": "professional",
          "display": "Professional"
        } ]
      },
      "use": "claim",
      "patient": {
        "reference": "Patient/972573e8-bd51-4b77-a954-39babec1a055"
      },
      "created": "2026-11-10",
      "provider": {
        "reference": "Practitioner/272790ae-3b08-44af-981c-f1ca5268d2e1"
      },
      "priority": {
        "coding": [ {
          "system": "http://terminology.hl7.org/CodeSystem/processpriority",
          "code": "normal"
        } ]
      },
      "diagnosis": [ {
        "sequence": 2,
        "diagnosisCodeableConcept": {
          "coding": [ {
            "system": "http://hl7.org/fhir/sid/icd-10-cm",
            "code": "M80.00XA"
          } ]
        },
        "onAdmission": {
          "coding": [ {
            "system": "https://www.cms.gov/Medicare/Medicare-Fee-for-Service-Payment/HospitalAcqCond/Coding",
            "code": "W"
          } ]
        }
      } ],
      "insurance": [ {
        "sequence": 1,
        "focal": true,
        "coverage": {
          "reference": "Coverage/5c5e1a77-618f-4da6-b9b1-cea4134d0259"
        }
      } ],
      "item": [ {
        "sequence": 2,
        "diagnosisSequence": [ 1, 2 ],
        "productOrService": {
          "coding": [ {
            "system": "http://terminology.hl7.org/CodeSystem/ex-USCLS",
            "code": "1101"
          } ]
        },
        "encounter": [ {
          "reference": "Encounter/224a3178-f6cb-4037-9125-f2218349586a"
        } ]
      } ]
    },
    "request": {
      "method": "PUT",
      "url": "Claim/d4beb569-0904-4ddd-8ef0-704a640e06c4"
    }
  }, {
    "fullUrl": "https://madie.cms.gov/AdverseEvent/9c7b4a96-5e15-4634-b3c8-de7b649a0307",
    "resource": {
      "resourceType": "AdverseEvent",
      "id": "9c7b4a96-5e15-4634-b3c8-de7b649a0307",
      "meta": {
        "profile": [ "http://hl7.org/fhir/us/qicore/StructureDefinition/qicore-adverseevent" ]
      },
      "actuality": "actual",
      "event": {
        "coding": [ {
          "system": "http://hl7.org/fhir/sid/icd-10-cm",
          "code": "W01.0XXA"
        } ]
      },
      "subject": {
        "reference": "Patient/972573e8-bd51-4b77-a954-39babec1a055"
      },
      "encounter": {
        "reference": "Encounter/224a3178-f6cb-4037-9125-f2218349586a"
      },
      "date": "2026-11-10T08:00:00.000+00:00"
    },
    "request": {
      "method": "PUT",
      "url": "AdverseEvent/9c7b4a96-5e15-4634-b3c8-de7b649a0307"
    }
  }, {
    "fullUrl": "https://madie.cms.gov/Practitioner/272790ae-3b08-44af-981c-f1ca5268d2e1",
    "resource": {
      "resourceType": "Practitioner",
      "id": "272790ae-3b08-44af-981c-f1ca5268d2e1",
      "meta": {
        "profile": [ "http://hl7.org/fhir/us/qicore/StructureDefinition/qicore-practitioner" ]
      },
      "identifier": [ {
        "system": "http://www.cms.gov/identifiers/pracitioners",
        "value": "P12345"
      } ],
      "name": [ {
        "use": "official",
        "family": "Smith",
        "given": [ "John" ]
      } ],
      "qualification": [ {
        "identifier": [ {
          "system": "http://hl7.org/fhir/sid/us-npi",
          "value": "1234567890"
        } ],
        "code": {
          "coding": [ {
            "system": "http://terminology.hl7.org/CodeSystem/v2-0203",
            "code": "MD",
            "display": "Medical License number"
          } ]
        }
      } ]
    },
    "request": {
      "method": "PUT",
      "url": "Practitioner/272790ae-3b08-44af-981c-f1ca5268d2e1"
    }
  }, {
    "fullUrl": "https://madie.cms.gov/Coverage/5c5e1a77-618f-4da6-b9b1-cea4134d0259",
    "resource": {
      "resourceType": "Coverage",
      "id": "5c5e1a77-618f-4da6-b9b1-cea4134d0259",
      "meta": {
        "profile": [ "http://hl7.org/fhir/us/qicore/StructureDefinition/qicore-coverage" ]
      },
      "identifier": [ {
        "use": "official",
        "type": {
          "coding": [ {
            "system": "http://terminology.hl7.org/CodeSystem/v2-0203",
            "code": "MB"
          } ]
        },
        "system": "http://insuranceNumber.org/",
        "value": "123456789"
      } ],
      "status": "active",
      "beneficiary": {
        "reference": "Patient/972573e8-bd51-4b77-a954-39babec1a055"
      },
      "relationship": {
        "coding": [ {
          "system": "http://terminology.hl7.org/CodeSystem/subscriber-relationship",
          "code": "self",
          "display": "Self"
        } ]
      },
      "payor": [ {
        "reference": "Organization/90699406-d859-42f0-bf21-8f740bc2ecb0"
      } ]
    },
    "request": {
      "method": "PUT",
      "url": "Coverage/5c5e1a77-618f-4da6-b9b1-cea4134d0259"
    }
  }, {
    "fullUrl": "https://madie.cms.gov/Organization/90699406-d859-42f0-bf21-8f740bc2ecb0",
    "resource": {
      "resourceType": "Organization",
      "id": "90699406-d859-42f0-bf21-8f740bc2ecb0",
      "meta": {
        "profile": [ "http://hl7.org/fhir/us/qicore/StructureDefinition/qicore-organization" ]
      },
      "identifier": [ {
        "system": "http://cms.gov/insurance-ids",
        "value": "AET12345"
      } ],
      "active": true,
      "type": [ {
        "coding": [ {
          "system": "http://terminology.hl7.org/CodeSystem/organization-type",
          "code": "prov",
          "display": "Healthcare Provider"
        } ]
      } ],
      "name": "Aetna Insurance",
      "telecom": [ {
        "system": "phone",
        "value": "+1-800-123-4567"
      } ],
      "address": [ {
        "line": [ "123 Main Street" ],
        "city": "Cityville",
        "state": "CA",
        "postalCode": "12345",
        "country": "USA"
      } ]
    },
    "request": {
      "method": "PUT",
      "url": "Organization/90699406-d859-42f0-bf21-8f740bc2ecb0"
    }
  }, {
    "fullUrl": "https://madie.cms.gov/MeasureReport/bbd9b46e-e1fe-4003-95fc-1754c130fda3",
    "resource": {
      "resourceType": "MeasureReport",
      "id": "bbd9b46e-e1fe-4003-95fc-1754c130fda3",
      "meta": {
        "profile": [ "http://hl7.org/fhir/us/cqfmeasures/StructureDefinition/test-case-cqfm" ]
      },
      "contained": [ {
        "resourceType": "Parameters",
        "id": "8e1558a8-2858-4efd-95cb-7fe865d9b1b1-parameters",
        "parameter": [ {
          "name": "subject",
          "valueString": "972573e8-bd51-4b77-a954-39babec1a055"
        } ]
      } ],
      "extension": [ {
        "url": "http://hl7.org/fhir/StructureDefinition/cqf-inputParameters",
        "valueReference": {
          "reference": "#8e1558a8-2858-4efd-95cb-7fe865d9b1b1-parameters"
        }
      }, {
        "url": "http://hl7.org/fhir/us/cqfmeasures/StructureDefinition/cqfm-testCaseDescription",
        "valueMarkdown": "Encounter with a major injury POA. Also has another maj injury NPOA. Had adverse event fall during encounter. Major Inj POA doesn't cause exclusion since there was another major injury NPOA with a fall to meet denom and numerator. DENEX fails."
      } ],
      "modifierExtension": [ {
        "url": "http://hl7.org/fhir/us/cqfmeasures/StructureDefinition/cqfm-isTestCase",
        "valueBoolean": true
      } ],
      "status": "complete",
      "type": "individual",
      "measure": "https://madie.cms.gov/Measure/CMS1017FHIRHHFI",
      "period": {
        "start": "2026-01-01",
        "end": "2026-12-31"
      },
      "group": [ {
        "id": "Group_1",
        "population": [ {
          "id": "InitialPopulation_1",
          "code": {
            "coding": [ {
              "system": "http://terminology.hl7.org/CodeSystem/measure-population",
              "code": "initial-population",
              "display": "Initial Population"
            } ]
          },
          "count": 1
        }, {
          "id": "Denominator_1",
          "code": {
            "coding": [ {
              "system": "http://terminology.hl7.org/CodeSystem/measure-population",
              "code": "denominator",
              "display": "Denominator"
            } ]
          },
          "count": 1
        }, {
          "id": "DenominatorExclusion_1",
          "code": {
            "coding": [ {
              "system": "http://terminology.hl7.org/CodeSystem/measure-population",
              "code": "denominator-exclusion",
              "display": "Denominator Exclusion"
            } ]
          },
          "count": 0
        }, {
          "id": "Numerator_1",
          "code": {
            "coding": [ {
              "system": "http://terminology.hl7.org/CodeSystem/measure-population",
              "code": "numerator",
              "display": "Numerator"
            } ]
          },
          "count": 1
        }, {
          "id": "NumeratorExclusion_1",
          "code": {
            "coding": [ {
              "system": "http://terminology.hl7.org/CodeSystem/measure-population",
              "code": "numerator-exclusion",
              "display": "Numerator Exclusion"
            } ]
          },
          "count": 0
        }, {
          "id": "MeasureObservation_1_1_1",
          "code": {
            "coding": [ {
              "system": "http://terminology.hl7.org/CodeSystem/measure-population",
              "code": "measure-observation",
              "display": "Measure Observation"
            } ]
          },
          "count": 3
        }, {
          "id": "MeasureObservation_1_2_1",
          "code": {
            "coding": [ {
              "system": "http://terminology.hl7.org/CodeSystem/measure-population",
              "code": "measure-observation",
              "display": "Measure Observation"
            } ]
          },
          "count": 1
        } ],
        "measureScore": {
          "value": 0.0
        }
      } ],
      "evaluatedResource": [ {
        "reference": "Encounter/224a3178-f6cb-4037-9125-f2218349586a"
      }, {
        "reference": "Encounter/cd28a1bd-5e0b-4b31-860a-3be27cd0369d"
      }, {
        "reference": "Condition/210a02dd-8321-47f7-90b5-b884497abe82"
      }, {
        "reference": "Condition/ce1990a8-9298-40ef-88c3-0053d2b09a85"
      }, {
        "reference": "Patient/972573e8-bd51-4b77-a954-39babec1a055"
      }, {
        "reference": "Claim/aeb3f5e6-5796-46a1-b0a6-b91cf5e0b40b"
      }, {
        "reference": "Claim/d4beb569-0904-4ddd-8ef0-704a640e06c4"
      }, {
        "reference": "AdverseEvent/9c7b4a96-5e15-4634-b3c8-de7b649a0307"
      }, {
        "reference": "Practitioner/272790ae-3b08-44af-981c-f1ca5268d2e1"
      }, {
        "reference": "Coverage/5c5e1a77-618f-4da6-b9b1-cea4134d0259"
      }, {
        "reference": "Organization/90699406-d859-42f0-bf21-8f740bc2ecb0"
      } ]
    },
    "request": {
      "method": "PUT",
      "url": "MeasureReport/bbd9b46e-e1fe-4003-95fc-1754c130fda3"
    }
  } ]
}