{
  "resourceType": "Bundle",
  "id": "c5b2c76c-cc6a-11ed-894b-325096b39f47",
  "type": "collection",
  "entry": [ {
    "fullUrl": "https://madie.cms.gov/Patient/e90d90a7-3071-44de-8089-ad7b6f5f3e5d",
    "resource": {
      "resourceType": "Patient",
      "id": "e90d90a7-3071-44de-8089-ad7b6f5f3e5d",
      "meta": {
        "profile": [ "http://hl7.org/fhir/us/qicore/StructureDefinition/qicore-patient" ]
      },
      "extension": [ {
        "url": "http://hl7.org/fhir/us/core/StructureDefinition/us-core-race",
        "extension": [ {
          "url": "ombCategory",
          "valueCoding": {
            "system": "urn:oid:2.16.840.1.113883.6.238",
            "code": "2106-3",
            "display": "White"
          }
        }, {
          "url": "text",
          "valueString": "White"
        } ]
      }, {
        "url": "http://hl7.org/fhir/us/core/StructureDefinition/us-core-ethnicity",
        "extension": [ {
          "url": "ombCategory",
          "valueCoding": {
            "system": "urn:oid:2.16.840.1.113883.6.238",
            "code": "2135-2",
            "display": "Hispanic or Latino",
            "userSelected": true
          }
        }, {
          "url": "text",
          "valueString": "Hispanic or Latino"
        } ]
      }, {
        "url": "http://hl7.org/fhir/us/core/StructureDefinition/us-core-sex",
        "valueCode": "248153007"
      } ],
      "identifier": [ {
        "type": {
          "coding": [ {
            "system": "http://terminology.hl7.org/CodeSystem/v2-0203",
            "code": "MR"
          } ]
        },
        "system": "https://smarthealth.com",
        "value": "900082319426"
      } ],
      "name": [ {
        "family": "DENEXFail",
        "given": [ "MorbidObesityDx1After2ndUSS" ]
      } ],
      "gender": "male",
      "birthDate": "1966-01-02"
    }
  }, {
    "fullUrl": "https://madie.cms.gov/Encounter/ff769f52-a3ce-46ba-81a8-e67246078582",
    "resource": {
      "resourceType": "Encounter",
      "id": "ff769f52-a3ce-46ba-81a8-e67246078582",
      "meta": {
        "profile": [ "http://hl7.org/fhir/us/qicore/StructureDefinition/qicore-encounter" ]
      },
      "status": "finished",
      "class": {
        "system": "http://terminology.hl7.org/CodeSystem/v3-ActCode",
        "code": "AMB",
        "display": "ambulatory"
      },
      "type": [ {
        "coding": [ {
          "system": "http://snomed.info/sct",
          "version": "http://snomed.info/sct/731000124108/version/20240301",
          "code": "439740005",
          "display": "Postoperative follow-up visit (procedure)",
          "userSelected": true
        } ]
      } ],
      "subject": {
        "reference": "Patient/e90d90a7-3071-44de-8089-ad7b6f5f3e5d"
      },
      "period": {
        "start": "2026-05-01T08:00:00.000+00:00",
        "end": "2026-05-01T08:30:00.000+00:00"
      }
    }
  }, {
    "fullUrl": "https://madie.cms.gov/Condition/e9f530aa-8150-40c0-a96c-e4251399abbc",
    "resource": {
      "resourceType": "Condition",
      "id": "e9f530aa-8150-40c0-a96c-e4251399abbc",
      "meta": {
        "profile": [ "http://hl7.org/fhir/us/qicore/StructureDefinition/qicore-condition-encounter-diagnosis" ]
      },
      "clinicalStatus": {
        "coding": [ {
          "system": "http://terminology.hl7.org/CodeSystem/condition-clinical",
          "code": "active",
          "display": "active",
          "userSelected": true
        } ]
      },
      "verificationStatus": {
        "coding": [ {
          "system": "http://terminology.hl7.org/CodeSystem/condition-ver-status",
          "code": "confirmed",
          "display": "Confirmed",
          "userSelected": true
        } ]
      },
      "category": [ {
        "coding": [ {
          "system": "http://terminology.hl7.org/CodeSystem/condition-category",
          "code": "encounter-diagnosis",
          "display": "Encounter Diagnosis"
        } ]
      } ],
      "code": {
        "coding": [ {
          "system": "http://hl7.org/fhir/sid/icd-10-cm",
          "version": "2024",
          "code": "N40.1",
          "display": "Benign prostatic hyperplasia with lower urinary tract symptoms",
          "userSelected": true
        } ]
      },
      "subject": {
        "reference": "Patient/e90d90a7-3071-44de-8089-ad7b6f5f3e5d"
      },
      "onsetPeriod": {
        "start": "2025-12-14T15:00:00.000+00:00"
      }
    }
  }, {
    "fullUrl": "https://madie.cms.gov/Condition/07afe43f-ef52-4f04-9d35-fb664a5d5200",
    "resource": {
      "resourceType": "Condition",
      "id": "07afe43f-ef52-4f04-9d35-fb664a5d5200",
      "meta": {
        "profile": [ "http://hl7.org/fhir/us/qicore/StructureDefinition/qicore-condition-encounter-diagnosis" ]
      },
      "clinicalStatus": {
        "coding": [ {
          "system": "http://terminology.hl7.org/CodeSystem/condition-clinical",
          "code": "active",
          "display": "active",
          "userSelected": true
        } ]
      },
      "verificationStatus": {
        "coding": [ {
          "system": "http://terminology.hl7.org/CodeSystem/condition-ver-status",
          "code": "confirmed",
          "display": "Confirmed",
          "userSelected": true
        } ]
      },
      "category": [ {
        "coding": [ {
          "system": "http://terminology.hl7.org/CodeSystem/condition-category",
          "code": "encounter-diagnosis",
          "display": "Encounter Diagnosis"
        } ]
      } ],
      "code": {
        "coding": [ {
          "system": "http://snomed.info/sct",
          "version": "http://snomed.info/sct/731000124108/version/20250301",
          "code": "238136002",
          "display": "Morbid obesity (disorder)"
        } ]
      },
      "subject": {
        "reference": "Patient/e90d90a7-3071-44de-8089-ad7b6f5f3e5d"
      },
      "onsetPeriod": {
        "start": "2027-01-01T00:00:00.000+00:00"
      }
    }
  }, {
    "fullUrl": "https://madie.cms.gov/Observation/b7cc8a67-824f-422c-a03b-6b37946ca0e1",
    "resource": {
      "resourceType": "Observation",
      "id": "b7cc8a67-824f-422c-a03b-6b37946ca0e1",
      "meta": {
        "profile": [ "http://hl7.org/fhir/us/qicore/StructureDefinition/qicore-observation-screening-assessment" ]
      },
      "status": "final",
      "category": [ {
        "coding": [ {
          "system": "http://terminology.hl7.org/CodeSystem/observation-category",
          "code": "survey",
          "display": "Survey"
        } ]
      } ],
      "code": {
        "coding": [ {
          "system": "http://loinc.org",
          "version": "2.76",
          "code": "80976-4",
          "display": "International Prostate Symptom Score [IPSS]",
          "userSelected": true
        } ]
      },
      "subject": {
        "reference": "Patient/e90d90a7-3071-44de-8089-ad7b6f5f3e5d"
      },
      "effectiveDateTime": "2026-01-02T08:15:00.000+00:00",
      "valueInteger": 5
    }
  }, {
    "fullUrl": "https://madie.cms.gov/Observation/5fd165ec-e41e-43cb-a491-fcd3a1ee7d87",
    "resource": {
      "resourceType": "Observation",
      "id": "5fd165ec-e41e-43cb-a491-fcd3a1ee7d87",
      "meta": {
        "profile": [ "http://hl7.org/fhir/us/qicore/StructureDefinition/qicore-observation-screening-assessment" ]
      },
      "status": "final",
      "category": [ {
        "coding": [ {
          "system": "http://terminology.hl7.org/CodeSystem/observation-category",
          "code": "survey",
          "display": "Survey"
        } ]
      } ],
      "code": {
        "coding": [ {
          "system": "http://loinc.org",
          "version": "2.76",
          "code": "80976-4",
          "display": "International Prostate Symptom Score [IPSS]",
          "userSelected": true
        } ]
      },
      "subject": {
        "reference": "Patient/e90d90a7-3071-44de-8089-ad7b6f5f3e5d"
      },
      "effectiveDateTime": "2026-12-01T08:15:00.000+00:00",
      "valueInteger": 2
    }
  }, {
    "fullUrl": "https://madie.cms.gov/MeasureReport/9ef2db11-d78a-49af-a2ac-6536fac264a1",
    "resource": {
      "resourceType": "MeasureReport",
      "id": "9ef2db11-d78a-49af-a2ac-6536fac264a1",
      "meta": {
        "profile": [ "http://hl7.org/fhir/us/cqfmeasures/StructureDefinition/test-case-cqfm" ]
      },
      "contained": [ {
        "resourceType": "Parameters",
        "id": "5e631049-c951-45dd-9547-e5afe92f5479-parameters",
        "parameter": [ {
          "name": "subject",
          "valueString": "e90d90a7-3071-44de-8089-ad7b6f5f3e5d"
        } ]
      } ],
      "extension": [ {
        "url": "http://hl7.org/fhir/StructureDefinition/cqf-inputParameters",
        "valueReference": {
          "reference": "#5e631049-c951-45dd-9547-e5afe92f5479-parameters"
        }
      }, {
        "url": "http://hl7.org/fhir/us/cqfmeasures/StructureDefinition/cqfm-testCaseDescription",
        "valueMarkdown": "Patient with Morbid Obesity Dx which would qualify them for denominator exclusion except that the criteria that the diagnosis occur before the followup urinary assessment is not met."
      } ],
      "modifierExtension": [ {
        "url": "http://hl7.org/fhir/us/cqfmeasures/StructureDefinition/cqfm-isTestCase",
        "valueBoolean": true
      } ],
      "status": "complete",
      "type": "individual",
      "measure": "https://madie.cms.gov/Measure/CMS771FHIRUrinarySymptomScoreBPH",
      "period": {
        "start": "2026-01-01",
        "end": "2026-12-31"
      },
      "group": [ {
        "id": "Group_1",
        "population": [ {
          "id": "InitialPopulation_1",
          "code": {
            "coding": [ {
              "system": "http://terminology.hl7.org/CodeSystem/measure-population",
              "code": "initial-population",
              "display": "Initial Population"
            } ]
          },
          "count": 1
        }, {
          "id": "Denominator_1",
          "code": {
            "coding": [ {
              "system": "http://terminology.hl7.org/CodeSystem/measure-population",
              "code": "denominator",
              "display": "Denominator"
            } ]
          },
          "count": 1
        }, {
          "id": "DenominatorExclusion_1",
          "code": {
            "coding": [ {
              "system": "http://terminology.hl7.org/CodeSystem/measure-population",
              "code": "denominator-exclusion",
              "display": "Denominator Exclusion"
            } ]
          },
          "count": 0
        }, {
          "id": "Numerator_1",
          "code": {
            "coding": [ {
              "system": "http://terminology.hl7.org/CodeSystem/measure-population",
              "code": "numerator",
              "display": "Numerator"
            } ]
          },
          "count": 1
        } ],
        "measureScore": {
          "value": 1.0
        }
      } ],
      "evaluatedResource": [ {
        "reference": "Patient/e90d90a7-3071-44de-8089-ad7b6f5f3e5d"
      }, {
        "reference": "Encounter/ff769f52-a3ce-46ba-81a8-e67246078582"
      }, {
        "reference": "Condition/e9f530aa-8150-40c0-a96c-e4251399abbc"
      }, {
        "reference": "Condition/07afe43f-ef52-4f04-9d35-fb664a5d5200"
      }, {
        "reference": "Observation/b7cc8a67-824f-422c-a03b-6b37946ca0e1"
      }, {
        "reference": "Observation/5fd165ec-e41e-43cb-a491-fcd3a1ee7d87"
      } ]
    }
  } ]
}