{
  "resourceType": "Bundle",
  "id": "62c880ec0111a60120dc21f2",
  "type": "transaction",
  "entry": [ {
    "fullUrl": "https://madie.cms.gov/Patient/37eca1e7-49b2-40ae-a3fd-1581c030b62c",
    "resource": {
      "resourceType": "Patient",
      "id": "37eca1e7-49b2-40ae-a3fd-1581c030b62c",
      "meta": {
        "profile": [ "http://hl7.org/fhir/us/qicore/StructureDefinition/qicore-patient" ]
      },
      "text": {
        "status": "generated",
        "div": "<div xmlns=\"http://www.w3.org/1999/xhtml\"><div class=\"hapiHeaderText\">RadTxAfterMP<b>IPPFailPop2</b></div><table class=\"hapiPropertyTable\"><tbody><tr><td>Identifier</td><td>1f01974ad5705dc04fcdd89fe28a6a3b</td></tr><tr><td>Date of birth</td><td><span>20 November 1936</span></td></tr></tbody></table></div>"
      },
      "extension": [ {
        "url": "http://hl7.org/fhir/us/core/StructureDefinition/us-core-race",
        "extension": [ {
          "url": "ombCategory",
          "valueCoding": {
            "system": "urn:oid:2.16.840.1.113883.6.238",
            "code": "1002-5",
            "display": "American Indian or Alaska Native",
            "userSelected": true
          }
        }, {
          "url": "text",
          "valueString": "American Indian or Alaska Native"
        } ]
      }, {
        "url": "http://hl7.org/fhir/us/core/StructureDefinition/us-core-ethnicity",
        "extension": [ {
          "url": "ombCategory",
          "valueCoding": {
            "system": "urn:oid:2.16.840.1.113883.6.238",
            "code": "2135-2",
            "display": "Hispanic or Latino",
            "userSelected": true
          }
        }, {
          "url": "text",
          "valueString": "Hispanic or Latino"
        } ]
      } ],
      "identifier": [ {
        "type": {
          "coding": [ {
            "system": "http://terminology.hl7.org/CodeSystem/v2-0203",
            "code": "MR"
          } ]
        },
        "system": "https://bonnie-fhir.healthit.gov/",
        "value": "62c880ec0111a60120dc21f2"
      } ],
      "active": true,
      "name": [ {
        "use": "usual",
        "family": "IPPFailPop2",
        "given": [ "RadTxAfterMP" ]
      } ],
      "gender": "female",
      "birthDate": "1937-11-20"
    },
    "request": {
      "method": "PUT",
      "url": "Patient/37eca1e7-49b2-40ae-a3fd-1581c030b62c"
    }
  }, {
    "fullUrl": "https://madie.cms.gov/Condition/0f721dba-1fc2-4d74-a9c6-a3b58cbbec31",
    "resource": {
      "resourceType": "Condition",
      "id": "0f721dba-1fc2-4d74-a9c6-a3b58cbbec31",
      "meta": {
        "profile": [ "http://hl7.org/fhir/us/qicore/StructureDefinition/qicore-condition" ]
      },
      "clinicalStatus": {
        "coding": [ {
          "system": "http://terminology.hl7.org/CodeSystem/condition-clinical",
          "code": "active",
          "display": "active",
          "userSelected": true
        } ]
      },
      "verificationStatus": {
        "coding": [ {
          "system": "http://terminology.hl7.org/CodeSystem/condition-ver-status",
          "code": "confirmed",
          "display": "Confirmed"
        } ]
      },
      "category": [ {
        "coding": [ {
          "system": "http://terminology.hl7.org/CodeSystem/condition-category",
          "code": "problem-list-item",
          "display": "Problem List Item"
        } ]
      } ],
      "code": {
        "coding": [ {
          "system": "http://hl7.org/fhir/sid/icd-10-cm",
          "code": "C74.91"
        } ]
      },
      "subject": {
        "reference": "Patient/37eca1e7-49b2-40ae-a3fd-1581c030b62c"
      },
      "onsetDateTime": "2023-08-19T14:00:00.000+00:00"
    },
    "request": {
      "method": "PUT",
      "url": "Condition/0f721dba-1fc2-4d74-a9c6-a3b58cbbec31"
    }
  }, {
    "fullUrl": "https://madie.cms.gov/Coverage/b9aacf1e-46a6-4fe0-be7a-2e0d143a37bf",
    "resource": {
      "resourceType": "Coverage",
      "id": "b9aacf1e-46a6-4fe0-be7a-2e0d143a37bf",
      "meta": {
        "profile": [ "http://hl7.org/fhir/us/qicore/StructureDefinition/qicore-coverage" ]
      },
      "status": "active",
      "beneficiary": {
        "reference": "Patient/37eca1e7-49b2-40ae-a3fd-1581c030b62c"
      },
      "period": {
        "start": "1937-11-20T08:00:00.000+00:00"
      },
      "payor": [ {
        "reference": "Organization/b7ac72c2-87b9-4f6c-94eb-2858c1636287"
      } ]
    },
    "request": {
      "method": "PUT",
      "url": "Coverage/b9aacf1e-46a6-4fe0-be7a-2e0d143a37bf"
    }
  }, {
    "fullUrl": "https://madie.cms.gov/Encounter/3507030a-168a-4ea8-b810-25aea547efda",
    "resource": {
      "resourceType": "Encounter",
      "id": "3507030a-168a-4ea8-b810-25aea547efda",
      "meta": {
        "profile": [ "http://hl7.org/fhir/us/qicore/StructureDefinition/qicore-encounter" ]
      },
      "status": "finished",
      "class": {
        "system": "http://terminology.hl7.org/CodeSystem/v3-ActCode",
        "code": "AMB",
        "display": "ambulatory",
        "userSelected": true
      },
      "type": [ {
        "coding": [ {
          "system": "http://www.ama-assn.org/go/cpt",
          "code": "77431",
          "userSelected": true
        } ]
      } ],
      "subject": {
        "reference": "Patient/37eca1e7-49b2-40ae-a3fd-1581c030b62c"
      },
      "period": {
        "start": "2027-01-02T13:15:00.000+00:00",
        "end": "2027-01-02T13:15:00.000+00:00"
      }
    },
    "request": {
      "method": "PUT",
      "url": "Encounter/3507030a-168a-4ea8-b810-25aea547efda"
    }
  }, {
    "fullUrl": "https://madie.cms.gov/Organization/b7ac72c2-87b9-4f6c-94eb-2858c1636287",
    "resource": {
      "resourceType": "Organization",
      "id": "b7ac72c2-87b9-4f6c-94eb-2858c1636287",
      "meta": {
        "profile": [ "http://hl7.org/fhir/us/qicore/StructureDefinition/qicore-organization" ]
      },
      "identifier": [ {
        "use": "temp",
        "system": "urn:oid:2.16.840.1.113883.4.4",
        "value": "21-3259825"
      } ],
      "active": true,
      "type": [ {
        "coding": [ {
          "system": "http://terminology.hl7.org/CodeSystem/organization-type",
          "code": "pay",
          "display": "Payer"
        } ]
      } ],
      "name": "Blue Cross Blue Shield of Texas",
      "telecom": [ {
        "system": "phone",
        "value": "(+1) 972-766-6900"
      } ],
      "address": [ {
        "use": "billing",
        "type": "postal",
        "line": [ "P.O. Box 660044" ],
        "city": "Dallas",
        "state": "TX",
        "postalCode": "75266-0044",
        "country": "USA"
      } ]
    },
    "request": {
      "method": "PUT",
      "url": "Organization/b7ac72c2-87b9-4f6c-94eb-2858c1636287"
    }
  }, {
    "fullUrl": "https://madie.cms.gov/Practitioner/51fc7a7d-b445-41c0-bd54-c4dfc2315ae9",
    "resource": {
      "resourceType": "Practitioner",
      "id": "51fc7a7d-b445-41c0-bd54-c4dfc2315ae9",
      "meta": {
        "profile": [ "http://hl7.org/fhir/us/qicore/StructureDefinition/qicore-practitioner" ]
      },
      "identifier": [ {
        "system": "http://hl7.org/fhir/sid/us-npi",
        "value": "123456"
      } ],
      "name": [ {
        "family": "Evil",
        "prefix": [ "Dr" ]
      } ]
    },
    "request": {
      "method": "PUT",
      "url": "Practitioner/51fc7a7d-b445-41c0-bd54-c4dfc2315ae9"
    }
  }, {
    "fullUrl": "https://madie.cms.gov/MeasureReport/0b980852-c974-4533-b68d-bed2b6254df6",
    "resource": {
      "resourceType": "MeasureReport",
      "id": "0b980852-c974-4533-b68d-bed2b6254df6",
      "meta": {
        "profile": [ "http://hl7.org/fhir/us/cqfmeasures/StructureDefinition/test-case-cqfm" ]
      },
      "contained": [ {
        "resourceType": "Parameters",
        "id": "201b8c86-8592-419d-82bc-e7e81873bcff-parameters",
        "parameter": [ {
          "name": "subject",
          "valueString": "37eca1e7-49b2-40ae-a3fd-1581c030b62c"
        } ]
      } ],
      "extension": [ {
        "url": "http://hl7.org/fhir/StructureDefinition/cqf-inputParameters",
        "valueReference": {
          "reference": "#201b8c86-8592-419d-82bc-e7e81873bcff-parameters"
        }
      }, {
        "url": "http://hl7.org/fhir/us/cqfmeasures/StructureDefinition/cqfm-testCaseDescription",
        "valueMarkdown": "Patient with cancer diagnosis that overlaps radiation treatment management, but radiation treatment management occurs after the measurement period.\n"
      } ],
      "modifierExtension": [ {
        "url": "http://hl7.org/fhir/us/cqfmeasures/StructureDefinition/cqfm-isTestCase",
        "valueBoolean": true
      } ],
      "status": "complete",
      "type": "individual",
      "measure": "https://madie.cms.gov/Measure/CMS157FHIRPainIntensityQuantified",
      "period": {
        "start": "2026-01-01",
        "end": "2026-12-31"
      },
      "group": [ {
        "id": "Group_1",
        "population": [ {
          "id": "InitialPopulation_1",
          "code": {
            "coding": [ {
              "system": "http://terminology.hl7.org/CodeSystem/measure-population",
              "code": "initial-population",
              "display": "Initial Population"
            } ]
          },
          "count": 0
        }, {
          "id": "Denominator_1",
          "code": {
            "coding": [ {
              "system": "http://terminology.hl7.org/CodeSystem/measure-population",
              "code": "denominator",
              "display": "Denominator"
            } ]
          },
          "count": 0
        }, {
          "id": "Numerator_1",
          "code": {
            "coding": [ {
              "system": "http://terminology.hl7.org/CodeSystem/measure-population",
              "code": "numerator",
              "display": "Numerator"
            } ]
          },
          "count": 0
        } ],
        "measureScore": {
          "value": 0.0
        }
      }, {
        "id": "Group_2",
        "population": [ {
          "id": "InitialPopulation_2",
          "code": {
            "coding": [ {
              "system": "http://terminology.hl7.org/CodeSystem/measure-population",
              "code": "initial-population",
              "display": "Initial Population"
            } ]
          },
          "count": 0
        }, {
          "id": "Denominator_2",
          "code": {
            "coding": [ {
              "system": "http://terminology.hl7.org/CodeSystem/measure-population",
              "code": "denominator",
              "display": "Denominator"
            } ]
          },
          "count": 0
        }, {
          "id": "Numerator_2",
          "code": {
            "coding": [ {
              "system": "http://terminology.hl7.org/CodeSystem/measure-population",
              "code": "numerator",
              "display": "Numerator"
            } ]
          },
          "count": 0
        } ],
        "measureScore": {
          "value": 0.0
        }
      } ],
      "evaluatedResource": [ {
        "reference": "Patient/37eca1e7-49b2-40ae-a3fd-1581c030b62c"
      }, {
        "reference": "Condition/0f721dba-1fc2-4d74-a9c6-a3b58cbbec31"
      }, {
        "reference": "Coverage/b9aacf1e-46a6-4fe0-be7a-2e0d143a37bf"
      }, {
        "reference": "Encounter/3507030a-168a-4ea8-b810-25aea547efda"
      }, {
        "reference": "Organization/b7ac72c2-87b9-4f6c-94eb-2858c1636287"
      }, {
        "reference": "Practitioner/51fc7a7d-b445-41c0-bd54-c4dfc2315ae9"
      } ]
    },
    "request": {
      "method": "PUT",
      "url": "MeasureReport/0b980852-c974-4533-b68d-bed2b6254df6"
    }
  } ]
}