{
  "resourceType": "Bundle",
  "id": "612e6f6902c62a011f2f1bee",
  "type": "transaction",
  "entry": [ {
    "fullUrl": "https://madie.cms.gov/Patient/d5d8e66a-01da-462b-95b6-e47b16285b1f",
    "resource": {
      "resourceType": "Patient",
      "id": "d5d8e66a-01da-462b-95b6-e47b16285b1f",
      "meta": {
        "profile": [ "http://hl7.org/fhir/us/qicore/StructureDefinition/qicore-patient" ]
      },
      "text": {
        "status": "generated",
        "div": "<div xmlns=\"http://www.w3.org/1999/xhtml\"><div class=\"hapiHeaderText\">CMPerfDurObsGT1HrBFSameDayAdm <b>DENEXPASS </b></div><table class=\"hapiPropertyTable\"><tbody><tr><td>Identifier</td><td>47c228581be8a6c28bc27fdd30fd9e3402e1823bb2e7ff7c219a929014346dba</td></tr><tr><td>Date of birth</td><td><span>03 January 1979</span></td></tr></tbody></table></div>"
      },
      "extension": [ {
        "url": "http://hl7.org/fhir/us/core/StructureDefinition/us-core-race",
        "extension": [ {
          "url": "ombCategory",
          "valueCoding": {
            "system": "urn:oid:2.16.840.1.113883.6.238",
            "code": "1002-5",
            "display": "American Indian or Alaska Native",
            "userSelected": true
          }
        }, {
          "url": "text",
          "valueString": "American Indian or Alaska Native"
        } ]
      }, {
        "url": "http://hl7.org/fhir/us/core/StructureDefinition/us-core-ethnicity",
        "extension": [ {
          "url": "ombCategory",
          "valueCoding": {
            "system": "urn:oid:2.16.840.1.113883.6.238",
            "code": "2135-2",
            "display": "Hispanic or Latino",
            "userSelected": true
          }
        }, {
          "url": "text",
          "valueString": "Hispanic or Latino"
        } ]
      } ],
      "identifier": [ {
        "type": {
          "coding": [ {
            "system": "http://terminology.hl7.org/CodeSystem/v2-0203",
            "code": "MR"
          } ]
        },
        "system": "https://bonnie-fhir.healthit.gov/",
        "value": "612e6f6902c62a011f2f1bee"
      } ],
      "active": true,
      "name": [ {
        "use": "usual",
        "family": "DENEXPass",
        "given": [ "CMPerfDurObsGT1HrBFSameDayAdm" ]
      } ],
      "gender": "female",
      "birthDate": "1980-01-03"
    },
    "request": {
      "method": "PUT",
      "url": "Patient/d5d8e66a-01da-462b-95b6-e47b16285b1f"
    }
  }, {
    "fullUrl": "https://madie.cms.gov/Encounter/ecc66dff-0375-40f0-99d8-65092a8833fd",
    "resource": {
      "resourceType": "Encounter",
      "id": "ecc66dff-0375-40f0-99d8-65092a8833fd",
      "meta": {
        "profile": [ "http://hl7.org/fhir/us/qicore/StructureDefinition/qicore-encounter" ]
      },
      "status": "finished",
      "class": {
        "system": "http://terminology.hl7.org/CodeSystem/v3-ActCode",
        "code": "EMER",
        "display": "emergency"
      },
      "type": [ {
        "coding": [ {
          "system": "http://snomed.info/sct",
          "code": "4525004"
        } ]
      } ],
      "subject": {
        "reference": "Patient/d5d8e66a-01da-462b-95b6-e47b16285b1f"
      },
      "period": {
        "start": "2026-12-04T04:00:00.000+00:00",
        "end": "2026-12-04T05:00:00.000+00:00"
      },
      "length": {
        "value": 0.0,
        "unit": "days"
      }
    },
    "request": {
      "method": "PUT",
      "url": "Encounter/ecc66dff-0375-40f0-99d8-65092a8833fd"
    }
  }, {
    "fullUrl": "https://madie.cms.gov/Encounter/b8964138-abd9-4f1b-8fb1-245a5fa5000d",
    "resource": {
      "resourceType": "Encounter",
      "id": "b8964138-abd9-4f1b-8fb1-245a5fa5000d",
      "meta": {
        "profile": [ "http://hl7.org/fhir/us/qicore/StructureDefinition/qicore-encounter" ]
      },
      "status": "finished",
      "class": {
        "system": "http://terminology.hl7.org/CodeSystem/v3-ActCode",
        "code": "IMP",
        "display": "inpatient encounter"
      },
      "type": [ {
        "coding": [ {
          "system": "http://snomed.info/sct",
          "code": "8715000"
        } ]
      } ],
      "subject": {
        "reference": "Patient/d5d8e66a-01da-462b-95b6-e47b16285b1f"
      },
      "period": {
        "start": "2026-12-04T08:00:00.000+00:00",
        "end": "2026-12-30T08:15:00.000+00:00"
      },
      "length": {
        "value": 26.0,
        "unit": "days"
      },
      "location": [ {
        "location": {
          "reference": "Location/30bb5a0d-b0ca-423c-af45-0a8227d4ec00"
        },
        "period": {
          "start": "2026-12-26T08:00:00.000+00:00",
          "end": "2026-12-28T08:15:00.000+00:00"
        }
      } ]
    },
    "request": {
      "method": "PUT",
      "url": "Encounter/b8964138-abd9-4f1b-8fb1-245a5fa5000d"
    }
  }, {
    "fullUrl": "https://madie.cms.gov/Encounter/afcd5458-ec30-4fe7-a320-3e78fc29d17f",
    "resource": {
      "resourceType": "Encounter",
      "id": "afcd5458-ec30-4fe7-a320-3e78fc29d17f",
      "meta": {
        "profile": [ "http://hl7.org/fhir/us/qicore/StructureDefinition/qicore-encounter" ]
      },
      "status": "finished",
      "class": {
        "system": "http://terminology.hl7.org/CodeSystem/v3-ActCode",
        "code": "OBSENC",
        "display": "observation encounter"
      },
      "type": [ {
        "coding": [ {
          "system": "http://snomed.info/sct",
          "code": "448951000124107"
        } ]
      } ],
      "subject": {
        "reference": "Patient/d5d8e66a-01da-462b-95b6-e47b16285b1f"
      },
      "period": {
        "start": "2026-12-04T05:15:00.000+00:00",
        "end": "2026-12-04T06:15:00.000+00:00"
      }
    },
    "request": {
      "method": "PUT",
      "url": "Encounter/afcd5458-ec30-4fe7-a320-3e78fc29d17f"
    }
  }, {
    "fullUrl": "https://madie.cms.gov/Procedure/e4795d2b-9fc6-4313-8e3e-ddb1259ec372",
    "resource": {
      "resourceType": "Procedure",
      "id": "e4795d2b-9fc6-4313-8e3e-ddb1259ec372",
      "meta": {
        "profile": [ "http://hl7.org/fhir/us/qicore/StructureDefinition/qicore-procedure" ]
      },
      "extension": [ {
        "url": "http://hl7.org/fhir/us/qicore/StructureDefinition/qicore-recorded",
        "valueDateTime": "2026-12-04T06:00:00.000+00:00"
      } ],
      "status": "completed",
      "code": {
        "coding": [ {
          "system": "http://snomed.info/sct",
          "code": "133918004",
          "display": "Comfort measures (regime/therapy)"
        } ]
      },
      "subject": {
        "reference": "Patient/d5d8e66a-01da-462b-95b6-e47b16285b1f"
      },
      "performedPeriod": {
        "start": "2026-12-04T06:00:00.000+00:00"
      }
    },
    "request": {
      "method": "PUT",
      "url": "Procedure/e4795d2b-9fc6-4313-8e3e-ddb1259ec372"
    }
  }, {
    "fullUrl": "https://madie.cms.gov/Coverage/fff19824-f09a-45c8-8503-14d6ad9bb1c6",
    "resource": {
      "resourceType": "Coverage",
      "id": "fff19824-f09a-45c8-8503-14d6ad9bb1c6",
      "status": "active",
      "beneficiary": {
        "reference": "Patient/d5d8e66a-01da-462b-95b6-e47b16285b1f"
      },
      "period": {
        "start": "1975-03-03T08:00:00.000+00:00"
      },
      "payor": [ {
        "reference": "Organization/d20d990f-a83c-44d6-8965-f4cfa8264d35"
      } ]
    },
    "request": {
      "method": "PUT",
      "url": "Coverage/fff19824-f09a-45c8-8503-14d6ad9bb1c6"
    }
  }, {
    "fullUrl": "https://madie.cms.gov/Location/30bb5a0d-b0ca-423c-af45-0a8227d4ec00",
    "resource": {
      "resourceType": "Location",
      "id": "30bb5a0d-b0ca-423c-af45-0a8227d4ec00",
      "meta": {
        "profile": [ "http://hl7.org/fhir/us/qicore/StructureDefinition/qicore-location" ]
      },
      "identifier": [ {
        "use": "usual",
        "system": "http://exampleoflocation.com",
        "value": "B1-S.F2"
      } ],
      "name": "Medical Surgical East, first floor",
      "type": [ {
        "coding": [ {
          "system": "https://www.cdc.gov/nhsn/cdaportal/terminology/codesystem/hsloc.html",
          "version": "2020",
          "code": "1025-6",
          "display": "Trauma Critical Care",
          "userSelected": true
        } ]
      } ]
    },
    "request": {
      "method": "PUT",
      "url": "Location/30bb5a0d-b0ca-423c-af45-0a8227d4ec00"
    }
  }, {
    "fullUrl": "https://madie.cms.gov/Organization/d20d990f-a83c-44d6-8965-f4cfa8264d35",
    "resource": {
      "resourceType": "Organization",
      "id": "d20d990f-a83c-44d6-8965-f4cfa8264d35",
      "meta": {
        "profile": [ "http://hl7.org/fhir/us/qicore/StructureDefinition/qicore-organization" ]
      },
      "identifier": [ {
        "use": "temp",
        "system": "urn:oid:2.16.840.1.113883.4.4",
        "value": "21-3259825"
      } ],
      "active": true,
      "type": [ {
        "coding": [ {
          "system": "http://terminology.hl7.org/CodeSystem/organization-type",
          "code": "pay",
          "display": "Payer"
        } ]
      } ],
      "name": "Blue Cross Blue Shield of Texas",
      "telecom": [ {
        "system": "phone",
        "value": "(+1) 972-766-6900"
      } ],
      "address": [ {
        "use": "billing",
        "type": "postal",
        "line": [ "P.O. Box 660044" ],
        "city": "Dallas",
        "state": "TX",
        "postalCode": "75266-0044",
        "country": "USA"
      } ]
    },
    "request": {
      "method": "PUT",
      "url": "Organization/d20d990f-a83c-44d6-8965-f4cfa8264d35"
    }
  }, {
    "fullUrl": "https://madie.cms.gov/Practitioner/42932724-0f6c-4a7b-bda7-6e184f251ec8",
    "resource": {
      "resourceType": "Practitioner",
      "id": "42932724-0f6c-4a7b-bda7-6e184f251ec8",
      "identifier": [ {
        "system": "http://hl7.org/fhir/sid/us-npi",
        "value": "123456"
      } ],
      "name": [ {
        "family": "Evil",
        "prefix": [ "Dr" ]
      } ]
    },
    "request": {
      "method": "PUT",
      "url": "Practitioner/42932724-0f6c-4a7b-bda7-6e184f251ec8"
    }
  }, {
    "fullUrl": "https://madie.cms.gov/MeasureReport/4a755ace-0099-4fbf-96e8-dbf8f9b70902",
    "resource": {
      "resourceType": "MeasureReport",
      "id": "4a755ace-0099-4fbf-96e8-dbf8f9b70902",
      "meta": {
        "profile": [ "http://hl7.org/fhir/us/cqfmeasures/StructureDefinition/test-case-cqfm" ]
      },
      "contained": [ {
        "resourceType": "Parameters",
        "id": "ba4d3fc4-2657-4c0a-a09c-fdd41bbabbf1-parameters",
        "parameter": [ {
          "name": "subject",
          "valueString": "d5d8e66a-01da-462b-95b6-e47b16285b1f"
        } ]
      } ],
      "extension": [ {
        "url": "http://hl7.org/fhir/StructureDefinition/cqf-inputParameters",
        "valueReference": {
          "reference": "#ba4d3fc4-2657-4c0a-a09c-fdd41bbabbf1-parameters"
        }
      }, {
        "url": "http://hl7.org/fhir/us/cqfmeasures/StructureDefinition/cqfm-testCaseDescription",
        "valueMarkdown": "meets IPP and Denominator, inpatient visit starts >1 hour after the end of Observation AND Comfort Measures are performed during Obs. This case still pass because CMO is on the same day of Adm date\n"
      } ],
      "modifierExtension": [ {
        "url": "http://hl7.org/fhir/us/cqfmeasures/StructureDefinition/cqfm-isTestCase",
        "valueBoolean": true
      } ],
      "status": "complete",
      "type": "individual",
      "measure": "https://madie.cms.gov/Measure/CMS190FHIRVTEProphylaxisICU",
      "period": {
        "start": "2026-01-01",
        "end": "2026-12-31"
      },
      "group": [ {
        "id": "Group_1",
        "population": [ {
          "id": "InitialPopulation_1",
          "code": {
            "coding": [ {
              "system": "http://terminology.hl7.org/CodeSystem/measure-population",
              "code": "initial-population",
              "display": "Initial Population"
            } ]
          },
          "count": 1
        }, {
          "id": "Denominator_1",
          "code": {
            "coding": [ {
              "system": "http://terminology.hl7.org/CodeSystem/measure-population",
              "code": "denominator",
              "display": "Denominator"
            } ]
          },
          "count": 1
        }, {
          "id": "DenominatorExclusion_1",
          "code": {
            "coding": [ {
              "system": "http://terminology.hl7.org/CodeSystem/measure-population",
              "code": "denominator-exclusion",
              "display": "Denominator Exclusion"
            } ]
          },
          "count": 1
        }, {
          "id": "Numerator_1",
          "code": {
            "coding": [ {
              "system": "http://terminology.hl7.org/CodeSystem/measure-population",
              "code": "numerator",
              "display": "Numerator"
            } ]
          },
          "count": 0
        }, {
          "id": "DenominatorException_1",
          "code": {
            "coding": [ {
              "system": "http://terminology.hl7.org/CodeSystem/measure-population",
              "code": "denominator-exception",
              "display": "Denominator Exception"
            } ]
          },
          "count": 0
        } ],
        "measureScore": {
          "value": 0.0
        }
      } ],
      "evaluatedResource": [ {
        "reference": "Patient/d5d8e66a-01da-462b-95b6-e47b16285b1f"
      }, {
        "reference": "Encounter/ecc66dff-0375-40f0-99d8-65092a8833fd"
      }, {
        "reference": "Encounter/b8964138-abd9-4f1b-8fb1-245a5fa5000d"
      }, {
        "reference": "Encounter/afcd5458-ec30-4fe7-a320-3e78fc29d17f"
      }, {
        "reference": "Procedure/e4795d2b-9fc6-4313-8e3e-ddb1259ec372"
      }, {
        "reference": "Coverage/fff19824-f09a-45c8-8503-14d6ad9bb1c6"
      }, {
        "reference": "Location/30bb5a0d-b0ca-423c-af45-0a8227d4ec00"
      }, {
        "reference": "Organization/d20d990f-a83c-44d6-8965-f4cfa8264d35"
      }, {
        "reference": "Practitioner/42932724-0f6c-4a7b-bda7-6e184f251ec8"
      } ]
    },
    "request": {
      "method": "PUT",
      "url": "MeasureReport/4a755ace-0099-4fbf-96e8-dbf8f9b70902"
    }
  } ]
}