{
  "resourceType": "Bundle",
  "id": "62c880ec0111a60120dc220e",
  "type": "transaction",
  "entry": [ {
    "fullUrl": "https://madie.cms.gov/Patient/6e225f30-e9e3-4206-8e79-01dc394f6e2f",
    "resource": {
      "resourceType": "Patient",
      "id": "6e225f30-e9e3-4206-8e79-01dc394f6e2f",
      "meta": {
        "profile": [ "http://hl7.org/fhir/us/qicore/StructureDefinition/qicore-patient" ]
      },
      "extension": [ {
        "url": "http://hl7.org/fhir/us/core/StructureDefinition/us-core-race",
        "extension": [ {
          "url": "ombCategory",
          "valueCoding": {
            "system": "urn:oid:2.16.840.1.113883.6.238",
            "code": "1002-5",
            "display": "American Indian or Alaska Native",
            "userSelected": true
          }
        }, {
          "url": "text",
          "valueString": "American Indian or Alaska Native"
        } ]
      }, {
        "url": "http://hl7.org/fhir/us/core/StructureDefinition/us-core-ethnicity",
        "extension": [ {
          "url": "ombCategory",
          "valueCoding": {
            "system": "urn:oid:2.16.840.1.113883.6.238",
            "code": "2135-2",
            "display": "Hispanic or Latino",
            "userSelected": true
          }
        }, {
          "url": "text",
          "valueString": "Hispanic or Latino"
        } ]
      } ],
      "identifier": [ {
        "type": {
          "coding": [ {
            "system": "http://terminology.hl7.org/CodeSystem/v2-0203",
            "code": "MR"
          } ]
        },
        "system": "https://bonnie-fhir.healthit.gov/",
        "value": "62c880ec0111a60120dc220e"
      } ],
      "active": true,
      "name": [ {
        "use": "usual",
        "family": "NUMERPassPop2",
        "given": [ "MultEpNoResult2ndAssess" ]
      } ],
      "gender": "female",
      "birthDate": "1933-05-13"
    },
    "request": {
      "method": "PUT",
      "url": "Patient/6e225f30-e9e3-4206-8e79-01dc394f6e2f"
    }
  }, {
    "fullUrl": "https://madie.cms.gov/Observation/e363d536-45ff-4d1b-80a3-d02d3f1640e3",
    "resource": {
      "resourceType": "Observation",
      "id": "e363d536-45ff-4d1b-80a3-d02d3f1640e3",
      "meta": {
        "profile": [ "http://hl7.org/fhir/us/qicore/StructureDefinition/qicore-observation-screening-assessment" ]
      },
      "status": "final",
      "category": [ {
        "coding": [ {
          "system": "http://terminology.hl7.org/CodeSystem/observation-category",
          "code": "survey",
          "display": "Survey"
        } ],
        "text": "Survey"
      } ],
      "code": {
        "coding": [ {
          "system": "http://loinc.org",
          "code": "38208-5"
        } ]
      },
      "subject": {
        "reference": "Patient/6e225f30-e9e3-4206-8e79-01dc394f6e2f"
      },
      "effectiveDateTime": "2026-03-05T09:00:00.000+00:00",
      "valueInteger": 5
    },
    "request": {
      "method": "PUT",
      "url": "Observation/e363d536-45ff-4d1b-80a3-d02d3f1640e3"
    }
  }, {
    "fullUrl": "https://madie.cms.gov/Observation/bec4f9ad-79a1-4a7b-a171-563299427f61",
    "resource": {
      "resourceType": "Observation",
      "id": "bec4f9ad-79a1-4a7b-a171-563299427f61",
      "meta": {
        "profile": [ "http://hl7.org/fhir/us/qicore/StructureDefinition/qicore-observation-screening-assessment" ]
      },
      "status": "final",
      "category": [ {
        "coding": [ {
          "system": "http://terminology.hl7.org/CodeSystem/observation-category",
          "code": "survey",
          "display": "Survey"
        } ],
        "text": "Survey"
      } ],
      "code": {
        "coding": [ {
          "system": "http://loinc.org",
          "code": "38221-8"
        } ]
      },
      "subject": {
        "reference": "Patient/6e225f30-e9e3-4206-8e79-01dc394f6e2f"
      },
      "effectiveDateTime": "2026-08-30T15:00:00.000+00:00"
    },
    "request": {
      "method": "PUT",
      "url": "Observation/bec4f9ad-79a1-4a7b-a171-563299427f61"
    }
  }, {
    "fullUrl": "https://madie.cms.gov/Condition/04bf6072-6021-4cfc-8bee-b51cb3835cbd",
    "resource": {
      "resourceType": "Condition",
      "id": "04bf6072-6021-4cfc-8bee-b51cb3835cbd",
      "meta": {
        "profile": [ "http://hl7.org/fhir/us/qicore/StructureDefinition/qicore-condition-problems-health-concerns" ]
      },
      "clinicalStatus": {
        "coding": [ {
          "system": "http://terminology.hl7.org/CodeSystem/condition-clinical",
          "code": "active",
          "display": "active",
          "userSelected": true
        } ]
      },
      "verificationStatus": {
        "coding": [ {
          "system": "http://terminology.hl7.org/CodeSystem/condition-ver-status",
          "code": "confirmed",
          "display": "Confirmed"
        } ]
      },
      "category": [ {
        "coding": [ {
          "system": "http://terminology.hl7.org/CodeSystem/condition-category",
          "code": "problem-list-item",
          "display": "Problem List Item"
        } ]
      } ],
      "code": {
        "coding": [ {
          "system": "http://snomed.info/sct",
          "code": "107691000119101"
        } ]
      },
      "subject": {
        "reference": "Patient/6e225f30-e9e3-4206-8e79-01dc394f6e2f"
      },
      "onsetDateTime": "2024-11-01T13:30:00.000+00:00"
    },
    "request": {
      "method": "PUT",
      "url": "Condition/04bf6072-6021-4cfc-8bee-b51cb3835cbd"
    }
  }, {
    "fullUrl": "https://madie.cms.gov/Coverage/78e4b322-606d-4339-b6b8-3891f2e48a1d",
    "resource": {
      "resourceType": "Coverage",
      "id": "78e4b322-606d-4339-b6b8-3891f2e48a1d",
      "meta": {
        "profile": [ "http://hl7.org/fhir/us/qicore/StructureDefinition/qicore-coverage" ]
      },
      "status": "active",
      "beneficiary": {
        "reference": "Patient/6e225f30-e9e3-4206-8e79-01dc394f6e2f"
      },
      "period": {
        "start": "1933-05-13T08:00:00.000+00:00"
      },
      "payor": [ {
        "reference": "Organization/ee8fc2d8-a9b0-499a-a2a7-80e9740049de"
      } ]
    },
    "request": {
      "method": "PUT",
      "url": "Coverage/78e4b322-606d-4339-b6b8-3891f2e48a1d"
    }
  }, {
    "fullUrl": "https://madie.cms.gov/Encounter/8f005f2f-4560-4969-924b-bd3098089651",
    "resource": {
      "resourceType": "Encounter",
      "id": "8f005f2f-4560-4969-924b-bd3098089651",
      "meta": {
        "profile": [ "http://hl7.org/fhir/us/qicore/StructureDefinition/qicore-encounter" ]
      },
      "status": "finished",
      "class": {
        "system": "http://terminology.hl7.org/CodeSystem/v3-ActCode",
        "code": "AMB",
        "display": "ambulatory",
        "userSelected": true
      },
      "type": [ {
        "coding": [ {
          "system": "http://www.ama-assn.org/go/cpt",
          "code": "77431",
          "userSelected": true
        } ]
      } ],
      "subject": {
        "reference": "Patient/6e225f30-e9e3-4206-8e79-01dc394f6e2f"
      },
      "period": {
        "start": "2026-03-05T08:00:00.000+00:00",
        "end": "2026-03-05T10:00:00.000+00:00"
      }
    },
    "request": {
      "method": "PUT",
      "url": "Encounter/8f005f2f-4560-4969-924b-bd3098089651"
    }
  }, {
    "fullUrl": "https://madie.cms.gov/Encounter/dd685937-9e42-4382-a864-d1e2cfeb55c5",
    "resource": {
      "resourceType": "Encounter",
      "id": "dd685937-9e42-4382-a864-d1e2cfeb55c5",
      "meta": {
        "profile": [ "http://hl7.org/fhir/us/qicore/StructureDefinition/qicore-encounter" ]
      },
      "status": "finished",
      "class": {
        "system": "http://terminology.hl7.org/CodeSystem/v3-ActCode",
        "code": "AMB",
        "display": "ambulatory",
        "userSelected": true
      },
      "type": [ {
        "coding": [ {
          "system": "http://www.ama-assn.org/go/cpt",
          "code": "77431",
          "userSelected": true
        } ]
      } ],
      "subject": {
        "reference": "Patient/6e225f30-e9e3-4206-8e79-01dc394f6e2f"
      },
      "period": {
        "start": "2026-08-30T14:00:00.000+00:00",
        "end": "2026-08-30T16:00:00.000+00:00"
      }
    },
    "request": {
      "method": "PUT",
      "url": "Encounter/dd685937-9e42-4382-a864-d1e2cfeb55c5"
    }
  }, {
    "fullUrl": "https://madie.cms.gov/Organization/ee8fc2d8-a9b0-499a-a2a7-80e9740049de",
    "resource": {
      "resourceType": "Organization",
      "id": "ee8fc2d8-a9b0-499a-a2a7-80e9740049de",
      "meta": {
        "profile": [ "http://hl7.org/fhir/us/qicore/StructureDefinition/qicore-organization" ]
      },
      "identifier": [ {
        "use": "temp",
        "system": "urn:oid:2.16.840.1.113883.4.4",
        "value": "21-3259825"
      } ],
      "active": true,
      "type": [ {
        "coding": [ {
          "system": "http://terminology.hl7.org/CodeSystem/organization-type",
          "code": "pay",
          "display": "Payer"
        } ]
      } ],
      "name": "Blue Cross Blue Shield of Texas",
      "telecom": [ {
        "system": "phone",
        "value": "(+1) 972-766-6900"
      } ],
      "address": [ {
        "use": "billing",
        "type": "postal",
        "line": [ "P.O. Box 660044" ],
        "city": "Dallas",
        "state": "TX",
        "postalCode": "75266-0044",
        "country": "USA"
      } ]
    },
    "request": {
      "method": "PUT",
      "url": "Organization/ee8fc2d8-a9b0-499a-a2a7-80e9740049de"
    }
  }, {
    "fullUrl": "https://madie.cms.gov/Practitioner/d497c5b0-9a09-48df-bbb4-7c40468fc503",
    "resource": {
      "resourceType": "Practitioner",
      "id": "d497c5b0-9a09-48df-bbb4-7c40468fc503",
      "meta": {
        "profile": [ "http://hl7.org/fhir/us/qicore/StructureDefinition/qicore-practitioner" ]
      },
      "identifier": [ {
        "system": "http://hl7.org/fhir/sid/us-npi",
        "value": "1234567890"
      } ],
      "name": [ {
        "family": "Evil",
        "prefix": [ "Dr" ]
      } ]
    },
    "request": {
      "method": "PUT",
      "url": "Practitioner/d497c5b0-9a09-48df-bbb4-7c40468fc503"
    }
  }, {
    "fullUrl": "https://madie.cms.gov/MeasureReport/9e216173-c1ee-4c9e-901c-02d53e3ad6e5",
    "resource": {
      "resourceType": "MeasureReport",
      "id": "9e216173-c1ee-4c9e-901c-02d53e3ad6e5",
      "meta": {
        "profile": [ "http://hl7.org/fhir/us/cqfmeasures/StructureDefinition/test-case-cqfm" ]
      },
      "contained": [ {
        "resourceType": "Parameters",
        "id": "19df1a5f-460f-4f9e-b668-da653609ed92-parameters",
        "parameter": [ {
          "name": "subject",
          "valueString": "6e225f30-e9e3-4206-8e79-01dc394f6e2f"
        } ]
      } ],
      "extension": [ {
        "url": "http://hl7.org/fhir/StructureDefinition/cqf-inputParameters",
        "valueReference": {
          "reference": "#19df1a5f-460f-4f9e-b668-da653609ed92-parameters"
        }
      }, {
        "url": "http://hl7.org/fhir/us/cqfmeasures/StructureDefinition/cqfm-testCaseDescription",
        "valueMarkdown": "Patient with cancer diagnosis that overlaps radiation treatment management during MP. Pain intensity assessment was performed during radiation treatment management encounter. 2 episodes of care, but no result for 2nd pain intensity assessment. "
      } ],
      "modifierExtension": [ {
        "url": "http://hl7.org/fhir/us/cqfmeasures/StructureDefinition/cqfm-isTestCase",
        "valueBoolean": true
      } ],
      "status": "complete",
      "type": "individual",
      "measure": "https://madie.cms.gov/Measure/CMS157FHIRPainIntensityQuantified",
      "period": {
        "start": "2026-01-01",
        "end": "2026-12-31"
      },
      "group": [ {
        "id": "Group_1",
        "population": [ {
          "id": "InitialPopulation_1",
          "code": {
            "coding": [ {
              "system": "http://terminology.hl7.org/CodeSystem/measure-population",
              "code": "initial-population",
              "display": "Initial Population"
            } ]
          },
          "count": 0
        }, {
          "id": "Denominator_1",
          "code": {
            "coding": [ {
              "system": "http://terminology.hl7.org/CodeSystem/measure-population",
              "code": "denominator",
              "display": "Denominator"
            } ]
          },
          "count": 0
        }, {
          "id": "Numerator_1",
          "code": {
            "coding": [ {
              "system": "http://terminology.hl7.org/CodeSystem/measure-population",
              "code": "numerator",
              "display": "Numerator"
            } ]
          },
          "count": 0
        } ],
        "measureScore": {
          "value": 0.0
        }
      }, {
        "id": "Group_2",
        "population": [ {
          "id": "InitialPopulation_2",
          "code": {
            "coding": [ {
              "system": "http://terminology.hl7.org/CodeSystem/measure-population",
              "code": "initial-population",
              "display": "Initial Population"
            } ]
          },
          "count": 2
        }, {
          "id": "Denominator_2",
          "code": {
            "coding": [ {
              "system": "http://terminology.hl7.org/CodeSystem/measure-population",
              "code": "denominator",
              "display": "Denominator"
            } ]
          },
          "count": 2
        }, {
          "id": "Numerator_2",
          "code": {
            "coding": [ {
              "system": "http://terminology.hl7.org/CodeSystem/measure-population",
              "code": "numerator",
              "display": "Numerator"
            } ]
          },
          "count": 1
        } ],
        "measureScore": {
          "value": 0.0
        }
      } ],
      "evaluatedResource": [ {
        "reference": "Patient/6e225f30-e9e3-4206-8e79-01dc394f6e2f"
      }, {
        "reference": "Observation/e363d536-45ff-4d1b-80a3-d02d3f1640e3"
      }, {
        "reference": "Observation/bec4f9ad-79a1-4a7b-a171-563299427f61"
      }, {
        "reference": "Condition/04bf6072-6021-4cfc-8bee-b51cb3835cbd"
      }, {
        "reference": "Coverage/78e4b322-606d-4339-b6b8-3891f2e48a1d"
      }, {
        "reference": "Encounter/8f005f2f-4560-4969-924b-bd3098089651"
      }, {
        "reference": "Encounter/dd685937-9e42-4382-a864-d1e2cfeb55c5"
      }, {
        "reference": "Organization/ee8fc2d8-a9b0-499a-a2a7-80e9740049de"
      }, {
        "reference": "Practitioner/d497c5b0-9a09-48df-bbb4-7c40468fc503"
      } ]
    },
    "request": {
      "method": "PUT",
      "url": "MeasureReport/9e216173-c1ee-4c9e-901c-02d53e3ad6e5"
    }
  } ]
}