{
  "resourceType": "Bundle",
  "id": "612e6f3902c62a011f2f1183",
  "type": "transaction",
  "entry": [ {
    "fullUrl": "https://madie.cms.gov/Patient/a2563ca7-fda7-4cfd-a5cf-a688225749e2",
    "resource": {
      "resourceType": "Patient",
      "id": "a2563ca7-fda7-4cfd-a5cf-a688225749e2",
      "meta": {
        "profile": [ "http://hl7.org/fhir/us/qicore/StructureDefinition/qicore-patient" ]
      },
      "text": {
        "status": "generated",
        "div": "<div xmlns=\"http://www.w3.org/1999/xhtml\"><div class=\"hapiHeaderText\">FactorXa1MinAfterICUStartDxAFib <b>NUMERPASS </b></div><table class=\"hapiPropertyTable\"><tbody><tr><td>Identifier</td><td>213d087eb3bd92b3f3f6cdf55e6533f5</td></tr><tr><td>Date of birth</td><td><span>03 March 1974</span></td></tr></tbody></table></div>"
      },
      "extension": [ {
        "url": "http://hl7.org/fhir/us/core/StructureDefinition/us-core-race",
        "extension": [ {
          "url": "ombCategory",
          "valueCoding": {
            "system": "urn:oid:2.16.840.1.113883.6.238",
            "code": "1002-5",
            "display": "American Indian or Alaska Native",
            "userSelected": true
          }
        }, {
          "url": "text",
          "valueString": "American Indian or Alaska Native"
        } ]
      }, {
        "url": "http://hl7.org/fhir/us/core/StructureDefinition/us-core-ethnicity",
        "extension": [ {
          "url": "ombCategory",
          "valueCoding": {
            "system": "urn:oid:2.16.840.1.113883.6.238",
            "code": "2135-2",
            "display": "Hispanic or Latino",
            "userSelected": true
          }
        }, {
          "url": "text",
          "valueString": "Hispanic or Latino"
        } ]
      } ],
      "identifier": [ {
        "type": {
          "coding": [ {
            "system": "http://terminology.hl7.org/CodeSystem/v2-0203",
            "code": "MR"
          } ]
        },
        "system": "https://bonnie-fhir.healthit.gov/",
        "value": "612e6f3902c62a011f2f1183"
      } ],
      "active": true,
      "name": [ {
        "use": "usual",
        "family": "NUMERPass",
        "given": [ "FactorXa1MinAfterICUStartDxAFib" ]
      } ],
      "gender": "female",
      "birthDate": "1975-03-03"
    },
    "request": {
      "method": "PUT",
      "url": "Patient/a2563ca7-fda7-4cfd-a5cf-a688225749e2"
    }
  }, {
    "fullUrl": "https://madie.cms.gov/Encounter/5d765d0a-6422-4cd2-8910-ff7f9e62d7aa",
    "resource": {
      "resourceType": "Encounter",
      "id": "5d765d0a-6422-4cd2-8910-ff7f9e62d7aa",
      "meta": {
        "profile": [ "http://hl7.org/fhir/us/qicore/StructureDefinition/qicore-encounter" ]
      },
      "status": "finished",
      "class": {
        "system": "http://terminology.hl7.org/CodeSystem/v3-ActCode",
        "code": "IMP",
        "display": "inpatient encounter"
      },
      "type": [ {
        "coding": [ {
          "system": "http://snomed.info/sct",
          "code": "8715000"
        } ]
      } ],
      "subject": {
        "reference": "Patient/a2563ca7-fda7-4cfd-a5cf-a688225749e2"
      },
      "period": {
        "start": "2026-12-04T08:00:00.000+00:00",
        "end": "2026-12-30T08:15:00.000+00:00"
      },
      "length": {
        "value": 26,
        "unit": "days"
      },
      "location": [ {
        "location": {
          "reference": "Location/0a88d009-e64f-4502-868d-d5566cef69b8"
        },
        "period": {
          "start": "2026-12-06T08:00:00.000+00:00",
          "end": "2026-12-08T08:15:00.000+00:00"
        }
      } ]
    },
    "request": {
      "method": "PUT",
      "url": "Encounter/5d765d0a-6422-4cd2-8910-ff7f9e62d7aa"
    }
  }, {
    "fullUrl": "https://madie.cms.gov/Coverage/b5ce0aea-f55e-44a9-b935-96a793e772a9",
    "resource": {
      "resourceType": "Coverage",
      "id": "b5ce0aea-f55e-44a9-b935-96a793e772a9",
      "status": "active",
      "beneficiary": {
        "reference": "Patient/a2563ca7-fda7-4cfd-a5cf-a688225749e2"
      },
      "period": {
        "start": "1975-03-03T08:00:00.000+00:00"
      },
      "payor": [ {
        "reference": "Organization/e699ffea-a220-467f-aedf-c277a18bee6e"
      } ]
    },
    "request": {
      "method": "PUT",
      "url": "Coverage/b5ce0aea-f55e-44a9-b935-96a793e772a9"
    }
  }, {
    "fullUrl": "https://madie.cms.gov/MedicationAdministration/720e613f-c985-44a2-845d-89eb639bb2aa",
    "resource": {
      "resourceType": "MedicationAdministration",
      "id": "720e613f-c985-44a2-845d-89eb639bb2aa",
      "meta": {
        "profile": [ "http://hl7.org/fhir/us/qicore/StructureDefinition/qicore-medicationadministration" ]
      },
      "status": "completed",
      "medicationCodeableConcept": {
        "coding": [ {
          "system": "http://www.nlm.nih.gov/research/umls/rxnorm",
          "code": "1364435",
          "display": "apixaban 2.5 MG Oral Tablet",
          "userSelected": true
        } ]
      },
      "subject": {
        "reference": "Patient/a2563ca7-fda7-4cfd-a5cf-a688225749e2"
      },
      "effectivePeriod": {
        "start": "2026-12-07T08:01:00.000+00:00"
      }
    },
    "request": {
      "method": "PUT",
      "url": "MedicationAdministration/720e613f-c985-44a2-845d-89eb639bb2aa"
    }
  }, {
    "fullUrl": "https://madie.cms.gov/Procedure/e146fda0-b419-4cfc-b1f5-1eeef7aed608",
    "resource": {
      "resourceType": "Procedure",
      "id": "e146fda0-b419-4cfc-b1f5-1eeef7aed608",
      "meta": {
        "profile": [ "http://hl7.org/fhir/us/qicore/StructureDefinition/qicore-procedure" ]
      },
      "extension": [ {
        "url": "http://hl7.org/fhir/us/qicore/StructureDefinition/qicore-recorded",
        "valueDateTime": "2013-12-06T13:35:00.000+00:00"
      } ],
      "status": "completed",
      "code": {
        "coding": [ {
          "system": "http://snomed.info/sct",
          "code": "18946005"
        } ]
      },
      "subject": {
        "reference": "Patient/a2563ca7-fda7-4cfd-a5cf-a688225749e2"
      },
      "performedPeriod": {
        "start": "2026-12-06T08:01:00.000+00:00",
        "end": "2026-12-06T09:01:00.000+00:00"
      }
    },
    "request": {
      "method": "PUT",
      "url": "Procedure/e146fda0-b419-4cfc-b1f5-1eeef7aed608"
    }
  }, {
    "fullUrl": "https://madie.cms.gov/Location/0a88d009-e64f-4502-868d-d5566cef69b8",
    "resource": {
      "resourceType": "Location",
      "id": "0a88d009-e64f-4502-868d-d5566cef69b8",
      "meta": {
        "profile": [ "http://hl7.org/fhir/us/qicore/StructureDefinition/qicore-location" ]
      },
      "identifier": [ {
        "use": "usual",
        "system": "http://exampleoflocation.com",
        "value": "B1-S.F2"
      } ],
      "name": "Medical Surgical East, first floor",
      "type": [ {
        "coding": [ {
          "system": "https://www.cdc.gov/nhsn/cdaportal/terminology/codesystem/hsloc.html",
          "code": "1025-6",
          "display": "Trauma Critical Care",
          "userSelected": true
        } ]
      } ]
    },
    "request": {
      "method": "PUT",
      "url": "Location/0a88d009-e64f-4502-868d-d5566cef69b8"
    }
  }, {
    "fullUrl": "https://madie.cms.gov/Condition/5c888ede-c196-429e-a908-b258678d7984",
    "resource": {
      "resourceType": "Condition",
      "id": "5c888ede-c196-429e-a908-b258678d7984",
      "meta": {
        "profile": [ "http://hl7.org/fhir/us/qicore/StructureDefinition/qicore-condition-problems-health-concerns" ]
      },
      "clinicalStatus": {
        "coding": [ {
          "system": "http://terminology.hl7.org/CodeSystem/condition-clinical",
          "code": "active"
        } ]
      },
      "verificationStatus": {
        "coding": [ {
          "system": "http://terminology.hl7.org/CodeSystem/condition-ver-status",
          "code": "confirmed"
        } ]
      },
      "category": [ {
        "coding": [ {
          "system": "http://terminology.hl7.org/CodeSystem/condition-category",
          "code": "problem-list-item",
          "display": "Problem list Item"
        } ]
      } ],
      "code": {
        "coding": [ {
          "system": "http://snomed.info/sct",
          "version": "2025-09",
          "code": "120041000119109",
          "display": "Atrial fibrillation with rapid ventricular response (disorder)",
          "userSelected": true
        } ]
      },
      "subject": {
        "reference": "Patient/a2563ca7-fda7-4cfd-a5cf-a688225749e2"
      },
      "onsetPeriod": {
        "start": "2026-12-26T08:15:00.000+00:00"
      },
      "recordedDate": "2026-10-20T08:00:00.000+00:00"
    },
    "request": {
      "method": "PUT",
      "url": "Condition/5c888ede-c196-429e-a908-b258678d7984"
    }
  }, {
    "fullUrl": "https://madie.cms.gov/Organization/e699ffea-a220-467f-aedf-c277a18bee6e",
    "resource": {
      "resourceType": "Organization",
      "id": "e699ffea-a220-467f-aedf-c277a18bee6e",
      "meta": {
        "profile": [ "http://hl7.org/fhir/us/qicore/StructureDefinition/qicore-organization" ]
      },
      "identifier": [ {
        "use": "temp",
        "system": "urn:oid:2.16.840.1.113883.4.4",
        "value": "21-3259825"
      } ],
      "active": true,
      "type": [ {
        "coding": [ {
          "system": "http://terminology.hl7.org/CodeSystem/organization-type",
          "code": "pay",
          "display": "Payer"
        } ]
      } ],
      "name": "Blue Cross Blue Shield of Texas",
      "telecom": [ {
        "system": "phone",
        "value": "(+1) 972-766-6900"
      } ],
      "address": [ {
        "use": "billing",
        "type": "postal",
        "line": [ "P.O. Box 660044" ],
        "city": "Dallas",
        "state": "TX",
        "postalCode": "75266-0044",
        "country": "USA"
      } ]
    },
    "request": {
      "method": "PUT",
      "url": "Organization/e699ffea-a220-467f-aedf-c277a18bee6e"
    }
  }, {
    "fullUrl": "https://madie.cms.gov/Practitioner/471217f0-4673-430c-bfa6-47ce23951a23",
    "resource": {
      "resourceType": "Practitioner",
      "id": "471217f0-4673-430c-bfa6-47ce23951a23",
      "identifier": [ {
        "system": "http://hl7.org/fhir/sid/us-npi",
        "value": "123456"
      } ],
      "name": [ {
        "family": "Evil",
        "prefix": [ "Dr" ]
      } ]
    },
    "request": {
      "method": "PUT",
      "url": "Practitioner/471217f0-4673-430c-bfa6-47ce23951a23"
    }
  }, {
    "fullUrl": "https://madie.cms.gov/MeasureReport/7adaaeca-423b-4cef-84a6-b22d1bb90377",
    "resource": {
      "resourceType": "MeasureReport",
      "id": "7adaaeca-423b-4cef-84a6-b22d1bb90377",
      "meta": {
        "profile": [ "http://hl7.org/fhir/us/cqfmeasures/StructureDefinition/test-case-cqfm" ]
      },
      "contained": [ {
        "resourceType": "Parameters",
        "id": "5bb0c029-0c09-4132-ab09-a7e54121a5b3-parameters",
        "parameter": [ {
          "name": "subject",
          "valueString": "a2563ca7-fda7-4cfd-a5cf-a688225749e2"
        } ]
      } ],
      "extension": [ {
        "url": "http://hl7.org/fhir/StructureDefinition/cqf-inputParameters",
        "valueReference": {
          "reference": "#5bb0c029-0c09-4132-ab09-a7e54121a5b3-parameters"
        }
      }, {
        "url": "http://hl7.org/fhir/us/cqfmeasures/StructureDefinition/cqfm-testCaseDescription",
        "valueMarkdown": "oral factor Xa administered after Proc, Proc is 1 day after First ICU\n"
      } ],
      "modifierExtension": [ {
        "url": "http://hl7.org/fhir/us/cqfmeasures/StructureDefinition/cqfm-isTestCase",
        "valueBoolean": true
      } ],
      "status": "complete",
      "type": "individual",
      "measure": "https://madie.cms.gov/Measure/CMS190FHIRVTEProphylaxisICU",
      "period": {
        "start": "2026-01-01",
        "end": "2026-12-31"
      },
      "group": [ {
        "id": "Group_1",
        "population": [ {
          "id": "InitialPopulation_1",
          "code": {
            "coding": [ {
              "system": "http://terminology.hl7.org/CodeSystem/measure-population",
              "code": "initial-population",
              "display": "Initial Population"
            } ]
          },
          "count": 1
        }, {
          "id": "Denominator_1",
          "code": {
            "coding": [ {
              "system": "http://terminology.hl7.org/CodeSystem/measure-population",
              "code": "denominator",
              "display": "Denominator"
            } ]
          },
          "count": 1
        }, {
          "id": "DenominatorExclusion_1",
          "code": {
            "coding": [ {
              "system": "http://terminology.hl7.org/CodeSystem/measure-population",
              "code": "denominator-exclusion",
              "display": "Denominator Exclusion"
            } ]
          },
          "count": 0
        }, {
          "id": "Numerator_1",
          "code": {
            "coding": [ {
              "system": "http://terminology.hl7.org/CodeSystem/measure-population",
              "code": "numerator",
              "display": "Numerator"
            } ]
          },
          "count": 1
        }, {
          "id": "DenominatorException_1",
          "code": {
            "coding": [ {
              "system": "http://terminology.hl7.org/CodeSystem/measure-population",
              "code": "denominator-exception",
              "display": "Denominator Exception"
            } ]
          },
          "count": 0
        } ],
        "measureScore": {
          "value": 0.0
        }
      } ],
      "evaluatedResource": [ {
        "reference": "Patient/a2563ca7-fda7-4cfd-a5cf-a688225749e2"
      }, {
        "reference": "Encounter/5d765d0a-6422-4cd2-8910-ff7f9e62d7aa"
      }, {
        "reference": "Coverage/b5ce0aea-f55e-44a9-b935-96a793e772a9"
      }, {
        "reference": "MedicationAdministration/720e613f-c985-44a2-845d-89eb639bb2aa"
      }, {
        "reference": "Procedure/e146fda0-b419-4cfc-b1f5-1eeef7aed608"
      }, {
        "reference": "Location/0a88d009-e64f-4502-868d-d5566cef69b8"
      }, {
        "reference": "Condition/5c888ede-c196-429e-a908-b258678d7984"
      }, {
        "reference": "Organization/e699ffea-a220-467f-aedf-c277a18bee6e"
      }, {
        "reference": "Practitioner/471217f0-4673-430c-bfa6-47ce23951a23"
      } ]
    },
    "request": {
      "method": "PUT",
      "url": "MeasureReport/7adaaeca-423b-4cef-84a6-b22d1bb90377"
    }
  } ]
}