{
  "resourceType": "Bundle",
  "id": "62fd4b660968f8012246b082",
  "type": "collection",
  "entry": [ {
    "fullUrl": "https://madie.cms.gov/Patient/e2a4f358-87f1-4fe1-b4e1-27969993d361",
    "resource": {
      "resourceType": "Patient",
      "id": "e2a4f358-87f1-4fe1-b4e1-27969993d361",
      "meta": {
        "profile": [ "http://hl7.org/fhir/us/qicore/StructureDefinition/qicore-patient" ]
      },
      "extension": [ {
        "url": "http://hl7.org/fhir/us/core/StructureDefinition/us-core-race",
        "extension": [ {
          "url": "ombCategory",
          "valueCoding": {
            "system": "urn:oid:2.16.840.1.113883.6.238",
            "code": "1002-5",
            "display": "American Indian or Alaska Native",
            "userSelected": true
          }
        }, {
          "url": "text",
          "valueString": "American Indian or Alaska Native"
        } ]
      }, {
        "url": "http://hl7.org/fhir/us/core/StructureDefinition/us-core-ethnicity",
        "extension": [ {
          "url": "ombCategory",
          "valueCoding": {
            "system": "urn:oid:2.16.840.1.113883.6.238",
            "code": "2135-2",
            "display": "Hispanic or Latino",
            "userSelected": true
          }
        }, {
          "url": "text",
          "valueString": "Hispanic or Latino"
        } ]
      } ],
      "identifier": [ {
        "type": {
          "coding": [ {
            "system": "http://terminology.hl7.org/CodeSystem/v2-0203",
            "code": "MR"
          } ]
        },
        "system": "https://bonnie-fhir.healthit.gov/",
        "value": "62fd4b660968f8012246b082"
      } ],
      "name": [ {
        "family": "IPFail",
        "given": [ "EncounterInvalidType" ]
      } ],
      "gender": "male",
      "birthDate": "1967-01-19"
    }
  }, {
    "fullUrl": "https://madie.cms.gov/ServiceRequest/eee1a692-175a-432c-8938-6b6af1620956",
    "resource": {
      "resourceType": "ServiceRequest",
      "id": "eee1a692-175a-432c-8938-6b6af1620956",
      "meta": {
        "profile": [ "http://hl7.org/fhir/us/qicore/StructureDefinition/qicore-servicerequest" ]
      },
      "status": "active",
      "intent": "order",
      "code": {
        "coding": [ {
          "system": "http://snomed.info/sct",
          "version": "http://snomed.info/sct/731000124108/version/20250301",
          "code": "103696004",
          "display": "Patient referral to specialist (procedure)",
          "userSelected": true
        } ]
      },
      "subject": {
        "reference": "Patient/e2a4f358-87f1-4fe1-b4e1-27969993d361"
      },
      "authoredOn": "2026-10-27T08:00:00+00:00"
    }
  }, {
    "fullUrl": "https://madie.cms.gov/Encounter/c1bc89d5-a431-4a64-a770-2071658b8ad5",
    "resource": {
      "resourceType": "Encounter",
      "id": "c1bc89d5-a431-4a64-a770-2071658b8ad5",
      "meta": {
        "profile": [ "http://hl7.org/fhir/us/qicore/StructureDefinition/qicore-encounter" ]
      },
      "status": "finished",
      "class": {
        "system": "http://terminology.hl7.org/CodeSystem/v3-ActCode",
        "code": "AMB",
        "display": "ambulatory"
      },
      "type": [ {
        "coding": [ {
          "system": "http://snomed.info/sct",
          "version": "2022-03",
          "code": "4525004",
          "display": "Emergency department patient visit (procedure)",
          "userSelected": true
        } ]
      } ],
      "subject": {
        "reference": "Patient/e2a4f358-87f1-4fe1-b4e1-27969993d361"
      },
      "period": {
        "start": "2026-01-01T00:00:00+00:00",
        "end": "2026-01-01T01:15:00.000+00:00"
      }
    }
  }, {
    "fullUrl": "https://madie.cms.gov/Coverage/ffd2a056-8f0b-4ac0-8728-520dbfa68cee",
    "resource": {
      "resourceType": "Coverage",
      "id": "ffd2a056-8f0b-4ac0-8728-520dbfa68cee",
      "meta": {
        "profile": [ "http://hl7.org/fhir/us/qicore/StructureDefinition/qicore-coverage" ]
      },
      "status": "active",
      "subscriberId": "123456",
      "beneficiary": {
        "reference": "Patient/e2a4f358-87f1-4fe1-b4e1-27969993d361"
      },
      "relationship": {
        "coding": [ {
          "system": "http://terminology.hl7.org/CodeSystem/subscriber-relationship",
          "code": "self",
          "display": "Self"
        } ]
      },
      "payor": [ {
        "reference": "Organization/9aa2aa4e-8fc4-4707-861a-d4f9e7dc25ee"
      } ]
    }
  }, {
    "fullUrl": "https://madie.cms.gov/Organization/9aa2aa4e-8fc4-4707-861a-d4f9e7dc25ee",
    "resource": {
      "resourceType": "Organization",
      "id": "9aa2aa4e-8fc4-4707-861a-d4f9e7dc25ee",
      "meta": {
        "profile": [ "http://hl7.org/fhir/us/qicore/StructureDefinition/qicore-organization" ]
      },
      "identifier": [ {
        "use": "temp",
        "system": "urn:oid:2.16.840.1.113883.4.4",
        "value": "21-3259825"
      } ],
      "active": true,
      "type": [ {
        "coding": [ {
          "system": "http://terminology.hl7.org/CodeSystem/organization-type",
          "code": "pay",
          "display": "Payer"
        } ]
      } ],
      "name": "Blue Cross Blue Shield of Texas",
      "telecom": [ {
        "system": "phone",
        "value": "(+1) 972-766-6900"
      } ],
      "address": [ {
        "use": "billing",
        "type": "postal",
        "line": [ "P.O. Box 660044" ],
        "city": "Dallas",
        "state": "TX",
        "postalCode": "75266-0044",
        "country": "USA"
      } ]
    }
  }, {
    "fullUrl": "https://madie.cms.gov/Practitioner/6326bab9-aad0-4c98-a3b4-9001cb2d02ad",
    "resource": {
      "resourceType": "Practitioner",
      "id": "6326bab9-aad0-4c98-a3b4-9001cb2d02ad",
      "meta": {
        "profile": [ "http://hl7.org/fhir/us/qicore/StructureDefinition/qicore-practitioner" ]
      },
      "identifier": [ {
        "system": "http://hl7.org/fhir/sid/us-npi",
        "value": "1689411712"
      } ],
      "name": [ {
        "family": "Evil",
        "prefix": [ "Dr" ]
      } ]
    }
  }, {
    "fullUrl": "https://madie.cms.gov/MeasureReport/94a0a667-1efd-432b-a101-aeb323b116b6",
    "resource": {
      "resourceType": "MeasureReport",
      "id": "94a0a667-1efd-432b-a101-aeb323b116b6",
      "meta": {
        "profile": [ "http://hl7.org/fhir/us/cqfmeasures/StructureDefinition/test-case-cqfm" ]
      },
      "contained": [ {
        "resourceType": "Parameters",
        "id": "0f5fd1c9-5120-4f29-981e-d5bc753c18da-parameters",
        "parameter": [ {
          "name": "subject",
          "valueString": "e2a4f358-87f1-4fe1-b4e1-27969993d361"
        } ]
      } ],
      "extension": [ {
        "url": "http://hl7.org/fhir/StructureDefinition/cqf-inputParameters",
        "valueReference": {
          "reference": "#0f5fd1c9-5120-4f29-981e-d5bc753c18da-parameters"
        }
      }, {
        "url": "http://hl7.org/fhir/us/cqfmeasures/StructureDefinition/cqfm-testCaseDescription",
        "valueMarkdown": "Encounter during MP status finished Referral Status Active Intent Order during Referral period Invalid encounter of ED visit"
      } ],
      "modifierExtension": [ {
        "url": "http://hl7.org/fhir/us/cqfmeasures/StructureDefinition/cqfm-isTestCase",
        "valueBoolean": true
      } ],
      "status": "complete",
      "type": "individual",
      "measure": "https://madie.cms.gov/Measure/CMS50FHIRReceiptofSpecialistReport",
      "period": {
        "start": "2026-01-01",
        "end": "2026-12-31"
      },
      "group": [ {
        "id": "Group_1",
        "population": [ {
          "id": "InitialPopulation_1",
          "code": {
            "coding": [ {
              "system": "http://terminology.hl7.org/CodeSystem/measure-population",
              "code": "initial-population",
              "display": "Initial Population"
            } ]
          },
          "count": 0
        }, {
          "id": "Denominator_1",
          "code": {
            "coding": [ {
              "system": "http://terminology.hl7.org/CodeSystem/measure-population",
              "code": "denominator",
              "display": "Denominator"
            } ]
          },
          "count": 0
        }, {
          "id": "Numerator_1",
          "code": {
            "coding": [ {
              "system": "http://terminology.hl7.org/CodeSystem/measure-population",
              "code": "numerator",
              "display": "Numerator"
            } ]
          },
          "count": 0
        } ],
        "measureScore": {
          "value": 1.0
        }
      } ],
      "evaluatedResource": [ {
        "reference": "Patient/e2a4f358-87f1-4fe1-b4e1-27969993d361"
      }, {
        "reference": "ServiceRequest/eee1a692-175a-432c-8938-6b6af1620956"
      }, {
        "reference": "Encounter/c1bc89d5-a431-4a64-a770-2071658b8ad5"
      }, {
        "reference": "Coverage/ffd2a056-8f0b-4ac0-8728-520dbfa68cee"
      }, {
        "reference": "Organization/9aa2aa4e-8fc4-4707-861a-d4f9e7dc25ee"
      }, {
        "reference": "Practitioner/6326bab9-aad0-4c98-a3b4-9001cb2d02ad"
      } ]
    }
  } ]
}