{
  "resourceType": "Bundle",
  "id": "tests-RVwithBodyTemp",
  "type": "transaction",
  "entry": [ {
    "fullUrl": "https://madie.cms.gov/Patient/dc647dd6-aff5-4b14-9dde-6c2988291e7a",
    "resource": {
      "resourceType": "Patient",
      "id": "dc647dd6-aff5-4b14-9dde-6c2988291e7a",
      "meta": {
        "profile": [ "http://hl7.org/fhir/us/qicore/StructureDefinition/qicore-patient" ]
      },
      "extension": [ {
        "url": "http://hl7.org/fhir/us/core/StructureDefinition/us-core-race",
        "extension": [ {
          "url": "ombCategory",
          "valueCoding": {
            "system": "urn:oid:2.16.840.1.113883.6.238",
            "code": "1002-5",
            "display": "American Indian or Alaska Native",
            "userSelected": true
          }
        }, {
          "url": "text",
          "valueString": "American Indian or Alaska Native"
        }, {
          "url": "detailed",
          "valueCoding": {
            "system": "urn:oid:2.16.840.1.113883.6.238",
            "code": "1653-5",
            "display": "Tohono O'Odham"
          }
        } ]
      }, {
        "url": "http://hl7.org/fhir/us/core/StructureDefinition/us-core-ethnicity",
        "extension": [ {
          "url": "ombCategory",
          "valueCoding": {
            "system": "urn:oid:2.16.840.1.113883.6.238",
            "code": "2135-2",
            "display": "Hispanic or Latino",
            "userSelected": true
          }
        }, {
          "url": "text",
          "valueString": "Not Hispanic or Latino"
        }, {
          "url": "detailed",
          "valueCoding": {
            "system": "urn:oid:2.16.840.1.113883.6.238",
            "code": "2153-5",
            "display": "Mexican American Indian"
          }
        } ]
      }, {
        "url": "http://hl7.org/fhir/us/core/StructureDefinition/us-core-sex",
        "valueCode": "248153007"
      } ],
      "identifier": [ {
        "system": "http://hospital.smarthealthit.org",
        "value": "999999999"
      } ],
      "name": [ {
        "family": "Example",
        "given": [ "Patient" ]
      } ],
      "gender": "male",
      "birthDate": "1975-01-01"
    },
    "request": {
      "method": "PUT",
      "url": "Patient/dc647dd6-aff5-4b14-9dde-6c2988291e7a"
    }
  }, {
    "fullUrl": "https://madie.cms.gov/Encounter/d5bba758-0e26-4f9f-a922-65161c308bf9",
    "resource": {
      "resourceType": "Encounter",
      "id": "d5bba758-0e26-4f9f-a922-65161c308bf9",
      "meta": {
        "profile": [ "http://hl7.org/fhir/us/qicore/StructureDefinition/qicore-encounter" ]
      },
      "status": "finished",
      "class": {
        "system": "http://terminology.hl7.org/CodeSystem/v3-ActCode",
        "code": "EMER",
        "display": "emergency"
      },
      "type": [ {
        "coding": [ {
          "system": "http://snomed.info/sct",
          "code": "4525004",
          "display": "Emergency department patient visit (procedure)"
        } ]
      } ],
      "subject": {
        "reference": "Patient/dc647dd6-aff5-4b14-9dde-6c2988291e7a"
      },
      "period": {
        "start": "2026-09-29T08:00:00.000+00:00",
        "end": "2026-09-29T20:00:00.000+00:00"
      }
    },
    "request": {
      "method": "PUT",
      "url": "Encounter/d5bba758-0e26-4f9f-a922-65161c308bf9"
    }
  }, {
    "fullUrl": "https://madie.cms.gov/Encounter/0fbd050f-aadc-41a8-91ea-1a431b18bdb9",
    "resource": {
      "resourceType": "Encounter",
      "id": "0fbd050f-aadc-41a8-91ea-1a431b18bdb9",
      "meta": {
        "profile": [ "http://hl7.org/fhir/us/qicore/StructureDefinition/qicore-encounter" ]
      },
      "status": "finished",
      "class": {
        "system": "http://terminology.hl7.org/CodeSystem/v3-ActCode",
        "code": "IMP",
        "display": "inpatient encounter"
      },
      "type": [ {
        "coding": [ {
          "system": "http://snomed.info/sct",
          "code": "183452005",
          "display": "Emergency hospital admission (procedure)"
        } ]
      } ],
      "subject": {
        "reference": "Patient/dc647dd6-aff5-4b14-9dde-6c2988291e7a"
      },
      "period": {
        "start": "2026-09-29T20:01:00.000+00:00",
        "end": "2026-10-03T20:00:00.000+00:00"
      },
      "reasonReference": [ {
        "reference": "Condition/8abd5cd6-4997-4101-ba62-9774b8977bce"
      } ]
    },
    "request": {
      "method": "PUT",
      "url": "Encounter/0fbd050f-aadc-41a8-91ea-1a431b18bdb9"
    }
  }, {
    "fullUrl": "https://madie.cms.gov/Observation/49375490-8fbc-42bb-b576-637b577640e9",
    "resource": {
      "resourceType": "Observation",
      "id": "49375490-8fbc-42bb-b576-637b577640e9",
      "meta": {
        "profile": [ "http://hl7.org/fhir/us/qicore/StructureDefinition/qicore-observation-lab" ]
      },
      "status": "final",
      "category": [ {
        "coding": [ {
          "system": "http://terminology.hl7.org/CodeSystem/observation-category",
          "code": "laboratory",
          "display": "Laboratory"
        } ]
      } ],
      "code": {
        "coding": [ {
          "system": "http://loinc.org",
          "code": "21232-4",
          "display": "Creatinine [Mass/volume] in Serum or Plasma"
        } ]
      },
      "subject": {
        "reference": "Patient/dc647dd6-aff5-4b14-9dde-6c2988291e7a"
      },
      "effectiveDateTime": "2026-10-01T08:01:00.000+00:00",
      "valueQuantity": {
        "value": 0.9,
        "unit": "mg/dL",
        "system": "http://unitsofmeasure.org",
        "code": "mg/dL"
      }
    },
    "request": {
      "method": "PUT",
      "url": "Observation/49375490-8fbc-42bb-b576-637b577640e9"
    }
  }, {
    "fullUrl": "https://madie.cms.gov/Observation/68a915eb-f59f-4a5b-b209-0af38f3c408c",
    "resource": {
      "resourceType": "Observation",
      "id": "68a915eb-f59f-4a5b-b209-0af38f3c408c",
      "meta": {
        "profile": [ "http://hl7.org/fhir/us/qicore/StructureDefinition/qicore-observation-lab" ]
      },
      "status": "final",
      "category": [ {
        "coding": [ {
          "system": "http://terminology.hl7.org/CodeSystem/observation-category",
          "code": "laboratory",
          "display": "Laboratory"
        } ]
      } ],
      "code": {
        "coding": [ {
          "system": "http://loinc.org",
          "code": "21232-4",
          "display": "Creatinine [Mass/volume] in Serum or Plasma"
        } ]
      },
      "subject": {
        "reference": "Patient/dc647dd6-aff5-4b14-9dde-6c2988291e7a"
      },
      "effectiveDateTime": "2026-10-01T07:00:00.000+00:00",
      "valueQuantity": {
        "value": 0.91,
        "unit": "mg/dL",
        "system": "http://unitsofmeasure.org",
        "code": "mg/dL"
      }
    },
    "request": {
      "method": "PUT",
      "url": "Observation/68a915eb-f59f-4a5b-b209-0af38f3c408c"
    }
  }, {
    "fullUrl": "https://madie.cms.gov/Condition/8abd5cd6-4997-4101-ba62-9774b8977bce",
    "resource": {
      "resourceType": "Condition",
      "id": "8abd5cd6-4997-4101-ba62-9774b8977bce",
      "meta": {
        "profile": [ "http://hl7.org/fhir/us/qicore/StructureDefinition/qicore-condition-encounter-diagnosis" ]
      },
      "clinicalStatus": {
        "coding": [ {
          "system": "http://terminology.hl7.org/CodeSystem/condition-clinical",
          "code": "active",
          "display": "Active"
        } ]
      },
      "verificationStatus": {
        "coding": [ {
          "system": "http://terminology.hl7.org/CodeSystem/condition-ver-status",
          "code": "confirmed",
          "display": "Confirmed"
        } ]
      },
      "code": {
        "coding": [ {
          "system": "http://hl7.org/fhir/sid/icd-10-cm",
          "code": "S37.061A",
          "display": "Major laceration of right kidney, initial encounter"
        } ],
        "text": "Major laceration of right kidney, initial encounter"
      },
      "subject": {
        "reference": "Patient/dc647dd6-aff5-4b14-9dde-6c2988291e7a"
      },
      "encounter": {
        "reference": "Encounter/0fbd050f-aadc-41a8-91ea-1a431b18bdb9"
      }
    },
    "request": {
      "method": "PUT",
      "url": "Condition/8abd5cd6-4997-4101-ba62-9774b8977bce"
    }
  }, {
    "fullUrl": "https://madie.cms.gov/Observation/a701de4c-9f22-46ca-b5ab-d19ad9e302a1",
    "resource": {
      "resourceType": "Observation",
      "id": "a701de4c-9f22-46ca-b5ab-d19ad9e302a1",
      "meta": {
        "profile": [ "http://hl7.org/fhir/us/qicore/StructureDefinition/qicore-observation-lab" ]
      },
      "status": "final",
      "category": [ {
        "coding": [ {
          "system": "http://terminology.hl7.org/CodeSystem/observation-category",
          "code": "laboratory",
          "display": "Laboratory"
        } ]
      } ],
      "code": {
        "coding": [ {
          "system": "http://loinc.org",
          "code": "21232-4",
          "display": "Creatinine [Mass/volume] in Serum or Plasma"
        } ]
      },
      "subject": {
        "reference": "Patient/dc647dd6-aff5-4b14-9dde-6c2988291e7a"
      },
      "effectiveDateTime": "2026-10-01T07:35:00.000+00:00",
      "valueQuantity": {
        "value": 0.91,
        "unit": "mg/dL",
        "system": "http://unitsofmeasure.org",
        "code": "mg/dL"
      }
    },
    "request": {
      "method": "PUT",
      "url": "Observation/a701de4c-9f22-46ca-b5ab-d19ad9e302a1"
    }
  }, {
    "fullUrl": "https://madie.cms.gov/Observation/b34e1a12-5e2f-4f16-a988-da265b10bdfb",
    "resource": {
      "resourceType": "Observation",
      "id": "b34e1a12-5e2f-4f16-a988-da265b10bdfb",
      "meta": {
        "profile": [ "http://hl7.org/fhir/us/core/StructureDefinition/us-core-body-temperature" ]
      },
      "status": "final",
      "category": [ {
        "coding": [ {
          "system": "http://terminology.hl7.org/CodeSystem/observation-category",
          "code": "vital-signs",
          "display": "Vital Signs"
        } ]
      } ],
      "code": {
        "coding": [ {
          "system": "http://loinc.org",
          "code": "8310-5",
          "display": "Body temperature"
        } ],
        "text": "Body temperature"
      },
      "subject": {
        "reference": "Patient/dc647dd6-aff5-4b14-9dde-6c2988291e7a"
      },
      "encounter": {
        "reference": "Encounter/0fbd050f-aadc-41a8-91ea-1a431b18bdb9"
      },
      "effectiveDateTime": "2026-10-01T08:30:00.000+00:00",
      "valueQuantity": {
        "value": 98.6
      }
    },
    "request": {
      "method": "PUT",
      "url": "Observation/b34e1a12-5e2f-4f16-a988-da265b10bdfb"
    }
  }, {
    "fullUrl": "https://madie.cms.gov/MeasureReport/c1c8ffe2-eb54-4504-ac25-c8e47cafb224",
    "resource": {
      "resourceType": "MeasureReport",
      "id": "c1c8ffe2-eb54-4504-ac25-c8e47cafb224",
      "meta": {
        "profile": [ "http://hl7.org/fhir/us/cqfmeasures/StructureDefinition/test-case-cqfm" ]
      },
      "contained": [ {
        "resourceType": "Parameters",
        "id": "843c8575-2a7b-4918-ab41-32354970ea6e-parameters",
        "parameter": [ {
          "name": "subject",
          "valueString": "dc647dd6-aff5-4b14-9dde-6c2988291e7a"
        } ]
      } ],
      "extension": [ {
        "url": "http://hl7.org/fhir/StructureDefinition/cqf-inputParameters",
        "valueReference": {
          "reference": "#843c8575-2a7b-4918-ab41-32354970ea6e-parameters"
        }
      }, {
        "url": "http://hl7.org/fhir/us/cqfmeasures/StructureDefinition/cqfm-testCaseDescription",
        "valueMarkdown": "RV Encounters that return the first Body Temp"
      } ],
      "modifierExtension": [ {
        "url": "http://hl7.org/fhir/us/cqfmeasures/StructureDefinition/cqfm-isTestCase",
        "valueBoolean": true
      } ],
      "status": "complete",
      "type": "individual",
      "measure": "https://madie.cms.gov/Measure/CMS832FHIRHHAKI",
      "period": {
        "start": "2026-01-01",
        "end": "2026-12-31"
      },
      "group": [ {
        "id": "Group_1",
        "population": [ {
          "id": "InitialPopulation_1",
          "code": {
            "coding": [ {
              "system": "http://terminology.hl7.org/CodeSystem/measure-population",
              "code": "initial-population",
              "display": "Initial Population"
            } ]
          },
          "count": 1
        }, {
          "id": "Denominator_1",
          "code": {
            "coding": [ {
              "system": "http://terminology.hl7.org/CodeSystem/measure-population",
              "code": "denominator",
              "display": "Denominator"
            } ]
          },
          "count": 1
        }, {
          "id": "DenominatorExclusion_1",
          "code": {
            "coding": [ {
              "system": "http://terminology.hl7.org/CodeSystem/measure-population",
              "code": "denominator-exclusion",
              "display": "Denominator Exclusion"
            } ]
          },
          "count": 1
        }, {
          "id": "Numerator_1",
          "code": {
            "coding": [ {
              "system": "http://terminology.hl7.org/CodeSystem/measure-population",
              "code": "numerator",
              "display": "Numerator"
            } ]
          },
          "count": 0
        } ],
        "measureScore": {
          "value": 0.0
        }
      } ],
      "evaluatedResource": [ {
        "reference": "Patient/dc647dd6-aff5-4b14-9dde-6c2988291e7a"
      }, {
        "reference": "Encounter/d5bba758-0e26-4f9f-a922-65161c308bf9"
      }, {
        "reference": "Encounter/0fbd050f-aadc-41a8-91ea-1a431b18bdb9"
      }, {
        "reference": "Observation/49375490-8fbc-42bb-b576-637b577640e9"
      }, {
        "reference": "Observation/68a915eb-f59f-4a5b-b209-0af38f3c408c"
      }, {
        "reference": "Condition/8abd5cd6-4997-4101-ba62-9774b8977bce"
      }, {
        "reference": "Observation/a701de4c-9f22-46ca-b5ab-d19ad9e302a1"
      }, {
        "reference": "Observation/b34e1a12-5e2f-4f16-a988-da265b10bdfb"
      } ]
    },
    "request": {
      "method": "PUT",
      "url": "MeasureReport/c1c8ffe2-eb54-4504-ac25-c8e47cafb224"
    }
  } ]
}