{
  "resourceType": "Bundle",
  "id": "61095b0998086b53805591b5",
  "type": "collection",
  "entry": [ {
    "fullUrl": "https://madie.cms.gov/Patient/4174257f-b236-41d3-b818-9b2b6527e59f",
    "resource": {
      "resourceType": "Patient",
      "id": "4174257f-b236-41d3-b818-9b2b6527e59f",
      "meta": {
        "profile": [ "http://hl7.org/fhir/us/qicore/StructureDefinition/qicore-patient" ]
      },
      "extension": [ {
        "url": "http://hl7.org/fhir/us/core/StructureDefinition/us-core-race",
        "extension": [ {
          "url": "ombCategory",
          "valueCoding": {
            "system": "urn:oid:2.16.840.1.113883.6.238",
            "code": "1002-5",
            "display": "American Indian or Alaska Native",
            "userSelected": true
          }
        }, {
          "url": "text",
          "valueString": "American Indian or Alaska Native"
        } ]
      }, {
        "url": "http://hl7.org/fhir/us/core/StructureDefinition/us-core-ethnicity",
        "extension": [ {
          "url": "ombCategory",
          "valueCoding": {
            "system": "urn:oid:2.16.840.1.113883.6.238",
            "code": "2135-2",
            "display": "Hispanic or Latino",
            "userSelected": true
          }
        }, {
          "url": "text",
          "valueString": "Hispanic or Latino"
        } ]
      } ],
      "identifier": [ {
        "type": {
          "coding": [ {
            "system": "http://terminology.hl7.org/CodeSystem/v2-0203",
            "code": "MR"
          } ]
        },
        "system": "https://bonnie-fhir.healthit.gov/",
        "value": "61095b0998086b53805591b5"
      } ],
      "active": true,
      "name": [ {
        "use": "usual",
        "family": "DENEXPASS",
        "given": [ "DisordersOverlapsCatSurg" ]
      } ],
      "gender": "female",
      "birthDate": "1996-01-01"
    }
  }, {
    "fullUrl": "https://madie.cms.gov/Observation/f02ef12f-d7f6-464e-94e3-09db46fe6764",
    "resource": {
      "resourceType": "Observation",
      "id": "f02ef12f-d7f6-464e-94e3-09db46fe6764",
      "meta": {
        "profile": [ "http://hl7.org/fhir/us/qicore/StructureDefinition/qicore-observation-clinical-result" ]
      },
      "status": "final",
      "category": [ {
        "coding": [ {
          "system": "http://terminology.hl7.org/CodeSystem/observation-category",
          "code": "exam",
          "display": "Exam"
        } ]
      }, {
        "coding": [ {
          "system": "http://terminology.hl7.org/CodeSystem/observation-category",
          "code": "survey"
        } ]
      } ],
      "code": {
        "coding": [ {
          "system": "http://snomed.info/sct",
          "version": "http://snomed.info/sct/731000124108/version/20250301",
          "code": "419775003"
        } ]
      },
      "subject": {
        "reference": "Patient/4174257f-b236-41d3-b818-9b2b6527e59f"
      },
      "effectivePeriod": {
        "start": "2026-03-13T09:00:00.000Z",
        "end": "2026-03-13T09:30:00.000Z"
      },
      "dataAbsentReason": {
        "coding": [ {
          "system": "http://terminology.hl7.org/CodeSystem/data-absent-reason",
          "code": "unknown",
          "display": "Unknown"
        } ]
      }
    }
  }, {
    "fullUrl": "https://madie.cms.gov/Procedure/cba9a0ae-71be-4677-a6fa-a83837fcdafd",
    "resource": {
      "resourceType": "Procedure",
      "id": "cba9a0ae-71be-4677-a6fa-a83837fcdafd",
      "meta": {
        "profile": [ "http://hl7.org/fhir/us/qicore/StructureDefinition/qicore-procedure" ]
      },
      "extension": [ {
        "url": "http://hl7.org/fhir/us/qicore/StructureDefinition/qicore-recorded",
        "valueDateTime": "2026-03-05T13:35:00.000Z"
      } ],
      "status": "completed",
      "code": {
        "coding": [ {
          "system": "http://snomed.info/sct",
          "code": "84149000"
        } ]
      },
      "subject": {
        "reference": "Patient/4174257f-b236-41d3-b818-9b2b6527e59f"
      },
      "performedPeriod": {
        "start": "2026-03-05T13:20:00.000Z",
        "end": "2026-04-05T14:30:00.000Z"
      }
    }
  }, {
    "fullUrl": "https://madie.cms.gov/Condition/e6c8343d-2791-4aa1-9bca-f3b286ba8b86",
    "resource": {
      "resourceType": "Condition",
      "id": "e6c8343d-2791-4aa1-9bca-f3b286ba8b86",
      "meta": {
        "profile": [ "http://hl7.org/fhir/us/qicore/StructureDefinition/qicore-condition-encounter-diagnosis" ]
      },
      "clinicalStatus": {
        "coding": [ {
          "system": "http://terminology.hl7.org/CodeSystem/condition-clinical",
          "code": "active",
          "display": "active",
          "userSelected": true
        } ]
      },
      "category": [ {
        "coding": [ {
          "system": "http://terminology.hl7.org/CodeSystem/condition-clinical",
          "code": "active",
          "display": "active",
          "userSelected": true
        } ]
      }, {
        "coding": [ {
          "system": "http://terminology.hl7.org/CodeSystem/condition-category",
          "code": "encounter-diagnosis",
          "display": "Encounter Diagnosis"
        } ]
      } ],
      "code": {
        "coding": [ {
          "system": "http://hl7.org/fhir/sid/icd-10-cm",
          "code": "H31.301",
          "userSelected": true
        }, {
          "system": "http://hl7.org/fhir/sid/icd-10-cm",
          "code": "H55.00",
          "userSelected": true
        }, {
          "system": "http://hl7.org/fhir/sid/icd-10-cm",
          "code": "H47.20",
          "userSelected": true
        }, {
          "system": "http://hl7.org/fhir/sid/icd-10-cm",
          "code": "Q12.8",
          "userSelected": true
        }, {
          "system": "http://hl7.org/fhir/sid/icd-10-cm",
          "code": "H26.101",
          "userSelected": true
        }, {
          "system": "http://hl7.org/fhir/sid/icd-10-cm",
          "code": "H53.482",
          "userSelected": true
        }, {
          "system": "http://hl7.org/fhir/sid/icd-10-cm",
          "code": "H30.001",
          "userSelected": true
        }, {
          "system": "http://hl7.org/fhir/sid/icd-10-cm",
          "code": "H31.011",
          "userSelected": true
        }, {
          "system": "http://snomed.info/sct",
          "version": "http://snomed.info/sct/731000124108/version/20250301",
          "code": "128329001",
          "userSelected": true
        } ]
      },
      "subject": {
        "reference": "Patient/4174257f-b236-41d3-b818-9b2b6527e59f"
      },
      "onsetDateTime": "2024-11-01T08:00:00.000Z"
    }
  }, {
    "fullUrl": "https://madie.cms.gov/Coverage/00e40a5d-7328-4426-a477-644476f8529b",
    "resource": {
      "resourceType": "Coverage",
      "id": "00e40a5d-7328-4426-a477-644476f8529b",
      "meta": {
        "profile": [ "http://hl7.org/fhir/us/qicore/StructureDefinition/qicore-coverage" ]
      },
      "status": "active",
      "subscriberId": "123456",
      "beneficiary": {
        "reference": "Patient/4174257f-b236-41d3-b818-9b2b6527e59f"
      },
      "relationship": {
        "coding": [ {
          "system": "http://terminology.hl7.org/CodeSystem/subscriber-relationship",
          "code": "self",
          "display": "Self"
        } ]
      },
      "payor": [ {
        "reference": "Organization/1d1c2a26-18a1-4ddd-9a85-4bc16e692a42"
      } ]
    }
  }, {
    "fullUrl": "https://madie.cms.gov/Organization/1d1c2a26-18a1-4ddd-9a85-4bc16e692a42",
    "resource": {
      "resourceType": "Organization",
      "id": "1d1c2a26-18a1-4ddd-9a85-4bc16e692a42",
      "meta": {
        "profile": [ "http://hl7.org/fhir/us/qicore/StructureDefinition/qicore-organization" ]
      },
      "identifier": [ {
        "use": "temp",
        "system": "urn:oid:2.16.840.1.113883.4.4",
        "value": "21-3259825"
      } ],
      "active": true,
      "type": [ {
        "coding": [ {
          "system": "http://terminology.hl7.org/CodeSystem/organization-type",
          "code": "pay",
          "display": "Payer"
        } ]
      } ],
      "name": "Blue Cross Blue Shield of Texas",
      "telecom": [ {
        "system": "phone",
        "value": "(+1) 972-766-6900"
      } ],
      "address": [ {
        "use": "billing",
        "type": "postal",
        "line": [ "P.O. Box 660044" ],
        "city": "Dallas",
        "state": "TX",
        "postalCode": "75266-0044",
        "country": "USA"
      } ]
    }
  }, {
    "fullUrl": "https://madie.cms.gov/Practitioner/d8e636c5-26a0-474f-9c21-d95df03a042b",
    "resource": {
      "resourceType": "Practitioner",
      "id": "d8e636c5-26a0-474f-9c21-d95df03a042b",
      "meta": {
        "profile": [ "http://hl7.org/fhir/us/qicore/StructureDefinition/qicore-practitioner" ]
      },
      "identifier": [ {
        "system": "http://hl7.org/fhir/sid/us-npi",
        "value": "1689411712"
      } ],
      "name": [ {
        "family": "Evil",
        "prefix": [ "Dr" ]
      } ]
    }
  }, {
    "fullUrl": "https://madie.cms.gov/MeasureReport/32fa2049-572b-48ca-8dbd-150286ad89c7",
    "resource": {
      "resourceType": "MeasureReport",
      "id": "32fa2049-572b-48ca-8dbd-150286ad89c7",
      "meta": {
        "profile": [ "http://hl7.org/fhir/us/cqfmeasures/StructureDefinition/test-case-cqfm" ]
      },
      "contained": [ {
        "resourceType": "Parameters",
        "id": "9227fb4d-15f9-4a46-905f-2ec999074e09-parameters",
        "parameter": [ {
          "name": "subject",
          "valueString": "4174257f-b236-41d3-b818-9b2b6527e59f"
        } ]
      } ],
      "extension": [ {
        "url": "http://hl7.org/fhir/StructureDefinition/cqf-inputParameters",
        "valueReference": {
          "reference": "#9227fb4d-15f9-4a46-905f-2ec999074e09-parameters"
        }
      }, {
        "url": "http://hl7.org/fhir/us/cqfmeasures/StructureDefinition/cqfm-testCaseDescription",
        "valueMarkdown": "Patient with visual defects diagnosis overlapping cataract surgery during encounter"
      } ],
      "modifierExtension": [ {
        "url": "http://hl7.org/fhir/us/cqfmeasures/StructureDefinition/cqfm-isTestCase",
        "valueBoolean": true
      } ],
      "status": "complete",
      "type": "individual",
      "measure": "https://madie.cms.gov/Measure/CMS133FHIRCataracts2040BCVA90Days",
      "period": {
        "start": "2026-01-01",
        "end": "2026-12-31"
      },
      "group": [ {
        "id": "Group_1",
        "population": [ {
          "id": "InitialPopulation_1",
          "code": {
            "coding": [ {
              "system": "http://terminology.hl7.org/CodeSystem/measure-population",
              "code": "initial-population",
              "display": "Initial Population"
            } ]
          },
          "count": 1
        }, {
          "id": "Denominator_1",
          "code": {
            "coding": [ {
              "system": "http://terminology.hl7.org/CodeSystem/measure-population",
              "code": "denominator",
              "display": "Denominator"
            } ]
          },
          "count": 1
        }, {
          "id": "DenominatorExclusion_1",
          "code": {
            "coding": [ {
              "system": "http://terminology.hl7.org/CodeSystem/measure-population",
              "code": "denominator-exclusion",
              "display": "Denominator Exclusion"
            } ]
          },
          "count": 1
        }, {
          "id": "Numerator_1",
          "code": {
            "coding": [ {
              "system": "http://terminology.hl7.org/CodeSystem/measure-population",
              "code": "numerator",
              "display": "Numerator"
            } ]
          },
          "count": 0
        } ],
        "measureScore": {
          "value": 0.0
        }
      } ],
      "evaluatedResource": [ {
        "reference": "Patient/4174257f-b236-41d3-b818-9b2b6527e59f"
      }, {
        "reference": "Observation/f02ef12f-d7f6-464e-94e3-09db46fe6764"
      }, {
        "reference": "Procedure/cba9a0ae-71be-4677-a6fa-a83837fcdafd"
      }, {
        "reference": "Condition/e6c8343d-2791-4aa1-9bca-f3b286ba8b86"
      }, {
        "reference": "Coverage/00e40a5d-7328-4426-a477-644476f8529b"
      }, {
        "reference": "Organization/1d1c2a26-18a1-4ddd-9a85-4bc16e692a42"
      }, {
        "reference": "Practitioner/d8e636c5-26a0-474f-9c21-d95df03a042b"
      } ]
    }
  } ]
}