{
  "resourceType": "Bundle",
  "id": "tests-IPPFail-MedGivenInObservTransferToIPMoreThan1Hour-bundle",
  "type": "transaction",
  "entry": [ {
    "fullUrl": "https://madie.cms.gov/Encounter/6077fdb5-b132-4450-90b9-6f978e251576",
    "resource": {
      "resourceType": "Encounter",
      "id": "6077fdb5-b132-4450-90b9-6f978e251576",
      "meta": {
        "profile": [ "http://hl7.org/fhir/us/qicore/StructureDefinition/qicore-encounter" ]
      },
      "status": "finished",
      "class": {
        "system": "http://terminology.hl7.org/CodeSystem/v3-ActCode",
        "code": "IMP",
        "display": "Inpatient encounter"
      },
      "type": [ {
        "coding": [ {
          "system": "http://snomed.info/sct",
          "code": "183452005",
          "display": "Emergency hospital admission"
        } ]
      } ],
      "subject": {
        "reference": "Patient/bee09e12-d66f-48c2-9dc5-6271644e2dc2"
      },
      "period": {
        "start": "2026-07-11T10:01:00.000Z",
        "end": "2026-07-13T21:00:00.000Z"
      }
    },
    "request": {
      "method": "PUT",
      "url": "Encounter/6077fdb5-b132-4450-90b9-6f978e251576"
    }
  }, {
    "fullUrl": "https://madie.cms.gov/Encounter/8c86e572-2007-4260-a467-dfea4a3773f2",
    "resource": {
      "resourceType": "Encounter",
      "id": "8c86e572-2007-4260-a467-dfea4a3773f2",
      "meta": {
        "profile": [ "http://hl7.org/fhir/us/qicore/StructureDefinition/qicore-encounter" ]
      },
      "status": "finished",
      "class": {
        "system": "http://terminology.hl7.org/CodeSystem/v3-ActCode",
        "code": "OBS",
        "display": "Obstetrics"
      },
      "type": [ {
        "coding": [ {
          "system": "http://snomed.info/sct",
          "code": "448951000124107",
          "display": "Admission to observation unit"
        } ]
      } ],
      "subject": {
        "reference": "Patient/bee09e12-d66f-48c2-9dc5-6271644e2dc2"
      },
      "period": {
        "start": "2026-07-11T08:00:00.000Z",
        "end": "2026-07-11T09:00:00.000Z"
      }
    },
    "request": {
      "method": "PUT",
      "url": "Encounter/8c86e572-2007-4260-a467-dfea4a3773f2"
    }
  }, {
    "fullUrl": "https://madie.cms.gov/MedicationAdministration/c47ad1e6-7a90-4126-a01d-8d34029306c4",
    "resource": {
      "resourceType": "MedicationAdministration",
      "id": "c47ad1e6-7a90-4126-a01d-8d34029306c4",
      "meta": {
        "profile": [ "http://hl7.org/fhir/us/qicore/StructureDefinition/qicore-medicationadministration" ]
      },
      "status": "completed",
      "medicationCodeableConcept": {
        "coding": [ {
          "system": "http://www.nlm.nih.gov/research/umls/rxnorm",
          "code": "1544488",
          "display": "insulin, regular, human 8 UNT Inhalation Powder"
        } ]
      },
      "subject": {
        "reference": "Patient/bee09e12-d66f-48c2-9dc5-6271644e2dc2"
      },
      "effectivePeriod": {
        "start": "2026-07-11T08:00:00.000Z",
        "end": "2026-07-11T09:00:00.000Z"
      }
    },
    "request": {
      "method": "PUT",
      "url": "MedicationAdministration/c47ad1e6-7a90-4126-a01d-8d34029306c4"
    }
  }, {
    "fullUrl": "https://madie.cms.gov/Patient/bee09e12-d66f-48c2-9dc5-6271644e2dc2",
    "resource": {
      "resourceType": "Patient",
      "id": "bee09e12-d66f-48c2-9dc5-6271644e2dc2",
      "meta": {
        "profile": [ "http://hl7.org/fhir/us/qicore/StructureDefinition/qicore-patient" ]
      },
      "extension": [ {
        "url": "http://hl7.org/fhir/us/core/StructureDefinition/us-core-race",
        "extension": [ {
          "url": "ombCategory",
          "valueCoding": {
            "system": "urn:oid:2.16.840.1.113883.6.238",
            "code": "2106-3",
            "display": "White"
          }
        }, {
          "url": "text",
          "valueString": "White"
        } ]
      }, {
        "url": "http://hl7.org/fhir/us/core/StructureDefinition/us-core-ethnicity",
        "extension": [ {
          "url": "ombCategory",
          "valueCoding": {
            "system": "urn:oid:2.16.840.1.113883.6.238",
            "code": "2135-2",
            "display": "Hispanic or Latino"
          }
        }, {
          "url": "text",
          "valueString": "Hispanic or Latino"
        } ]
      }, {
        "url": "http://hl7.org/fhir/us/core/StructureDefinition/us-core-sex",
        "valueCode": "248153007"
      } ],
      "identifier": [ {
        "system": "http://hospital.smarthealthit.org",
        "value": "999999999"
      } ],
      "name": [ {
        "family": "CMSIPPFail",
        "given": [ "MedInObservTnsfrToIPMoreThan1Hr" ]
      } ],
      "gender": "female",
      "birthDate": "2000-07-11"
    },
    "request": {
      "method": "PUT",
      "url": "Patient/bee09e12-d66f-48c2-9dc5-6271644e2dc2"
    }
  }, {
    "fullUrl": "https://madie.cms.gov/MeasureReport/09fa4806-b796-49a6-8c91-c92148db9cd5",
    "resource": {
      "resourceType": "MeasureReport",
      "id": "09fa4806-b796-49a6-8c91-c92148db9cd5",
      "meta": {
        "profile": [ "http://hl7.org/fhir/us/cqfmeasures/StructureDefinition/test-case-cqfm" ]
      },
      "contained": [ {
        "resourceType": "Parameters",
        "id": "8d20879d-256d-4c3a-b455-b88b090ad867-parameters",
        "parameter": [ {
          "name": "subject",
          "valueString": "bee09e12-d66f-48c2-9dc5-6271644e2dc2"
        } ]
      } ],
      "extension": [ {
        "url": "http://hl7.org/fhir/StructureDefinition/cqf-inputParameters",
        "valueReference": {
          "reference": "#8d20879d-256d-4c3a-b455-b88b090ad867-parameters"
        }
      }, {
        "url": "http://hl7.org/fhir/us/cqfmeasures/StructureDefinition/cqfm-testCaseDescription",
        "valueMarkdown": "Pt started in Observation, hypoglycemic administered during Observ stay. Pt transferred to inpatient but transfer occurred 1 hour + 1 minute after end of observation stay. Transfer must be within hour or less to meet IPP. \n\n(CMS #14)"
      } ],
      "modifierExtension": [ {
        "url": "http://hl7.org/fhir/us/cqfmeasures/StructureDefinition/cqfm-isTestCase",
        "valueBoolean": true
      } ],
      "status": "complete",
      "type": "individual",
      "measure": "https://madie.cms.gov/Measure/NHSNGlycemicControlHypoglycemiaInitialPopulation",
      "period": {
        "start": "2026-01-01",
        "end": "2026-12-31"
      },
      "group": [ {
        "id": "Group_1",
        "population": [ {
          "id": "InitialPopulation_1",
          "code": {
            "coding": [ {
              "system": "http://terminology.hl7.org/CodeSystem/measure-population",
              "code": "initial-population",
              "display": "Initial Population"
            } ]
          },
          "count": 0
        } ],
        "measureScore": {
          "value": 0.0
        }
      } ],
      "evaluatedResource": [ {
        "reference": "Encounter/6077fdb5-b132-4450-90b9-6f978e251576"
      }, {
        "reference": "Encounter/8c86e572-2007-4260-a467-dfea4a3773f2"
      }, {
        "reference": "MedicationAdministration/c47ad1e6-7a90-4126-a01d-8d34029306c4"
      }, {
        "reference": "Patient/bee09e12-d66f-48c2-9dc5-6271644e2dc2"
      } ]
    },
    "request": {
      "method": "PUT",
      "url": "MeasureReport/09fa4806-b796-49a6-8c91-c92148db9cd5"
    }
  } ]
}