{
  "resourceType": "Bundle",
  "id": "60f82c2d98086b570510e25b",
  "type": "transaction",
  "entry": [ {
    "fullUrl": "https://madie.cms.gov/Patient/6678ed6f-3c94-4630-a7c5-d35a003b4535",
    "resource": {
      "resourceType": "Patient",
      "id": "6678ed6f-3c94-4630-a7c5-d35a003b4535",
      "meta": {
        "profile": [ "http://hl7.org/fhir/us/qicore/StructureDefinition/qicore-patient" ]
      },
      "text": {
        "status": "generated",
        "div": "<div xmlns=\"http://www.w3.org/1999/xhtml\"><div class=\"hapiHeaderText\">MedAntithromboticStart_gt1dayDuringEd <b>NUMERFAIL </b></div><table class=\"hapiPropertyTable\"><tbody><tr><td>Identifier</td><td>a5e30d399f249a9c074a30cd5f10a75b</td></tr><tr><td>Date of birth</td><td><span>26 September 1975</span></td></tr></tbody></table></div>"
      },
      "extension": [ {
        "url": "http://hl7.org/fhir/us/core/StructureDefinition/us-core-race",
        "extension": [ {
          "url": "ombCategory",
          "valueCoding": {
            "system": "urn:oid:2.16.840.1.113883.6.238",
            "code": "2054-5",
            "display": "Black or African American",
            "userSelected": true
          }
        }, {
          "url": "text",
          "valueString": "Black or African American"
        } ]
      }, {
        "url": "http://hl7.org/fhir/us/core/StructureDefinition/us-core-ethnicity",
        "extension": [ {
          "url": "ombCategory",
          "valueCoding": {
            "system": "urn:oid:2.16.840.1.113883.6.238",
            "code": "2186-5",
            "display": "Not Hispanic or Latino",
            "userSelected": true
          }
        }, {
          "url": "text",
          "valueString": "Not Hispanic or Latino"
        } ]
      } ],
      "identifier": [ {
        "type": {
          "coding": [ {
            "system": "http://terminology.hl7.org/CodeSystem/v2-0203",
            "code": "MR"
          } ]
        },
        "system": "https://bonnie-fhir.healthit.gov/",
        "value": "60f82c2d98086b570510e25b"
      } ],
      "active": true,
      "name": [ {
        "use": "usual",
        "family": "NUMERFail",
        "given": [ "MedAntithromboticStart_gt1dayDuringEd" ]
      } ],
      "gender": "female",
      "birthDate": "1976-09-26"
    },
    "request": {
      "method": "PUT",
      "url": "Patient/6678ed6f-3c94-4630-a7c5-d35a003b4535"
    }
  }, {
    "fullUrl": "https://madie.cms.gov/Encounter/1fc55604-4016-4b68-84e0-89a9080414ae",
    "resource": {
      "resourceType": "Encounter",
      "id": "1fc55604-4016-4b68-84e0-89a9080414ae",
      "meta": {
        "profile": [ "http://hl7.org/fhir/us/qicore/StructureDefinition/qicore-encounter" ]
      },
      "status": "finished",
      "class": {
        "system": "http://terminology.hl7.org/CodeSystem/v3-ActCode",
        "code": "EMER",
        "display": "emergency"
      },
      "type": [ {
        "coding": [ {
          "system": "http://snomed.info/sct",
          "code": "4525004"
        } ]
      } ],
      "subject": {
        "reference": "Patient/6678ed6f-3c94-4630-a7c5-d35a003b4535"
      },
      "period": {
        "start": "2026-10-08T23:59:00.000+00:00",
        "end": "2026-10-10T08:15:00.000+00:00"
      },
      "length": {
        "value": 2,
        "unit": "days"
      }
    },
    "request": {
      "method": "PUT",
      "url": "Encounter/1fc55604-4016-4b68-84e0-89a9080414ae"
    }
  }, {
    "fullUrl": "https://madie.cms.gov/Encounter/595d95ec-deab-4b4b-95ed-c79d20c77a04",
    "resource": {
      "resourceType": "Encounter",
      "id": "595d95ec-deab-4b4b-95ed-c79d20c77a04",
      "meta": {
        "profile": [ "http://hl7.org/fhir/us/qicore/StructureDefinition/qicore-encounter" ]
      },
      "status": "finished",
      "class": {
        "system": "http://terminology.hl7.org/CodeSystem/v3-ActCode",
        "code": "IMP",
        "display": "inpatient encounter"
      },
      "type": [ {
        "coding": [ {
          "system": "http://snomed.info/sct",
          "code": "32485007"
        } ]
      } ],
      "subject": {
        "reference": "Patient/6678ed6f-3c94-4630-a7c5-d35a003b4535"
      },
      "period": {
        "start": "2026-10-10T09:00:00.000+00:00",
        "end": "2026-10-12T11:15:00.000+00:00"
      },
      "length": {
        "value": 2,
        "unit": "days"
      },
      "reasonReference": [ {
        "reference": "Condition/55946363-b6a5-439a-bd74-5ab6ea3195f1"
      } ]
    },
    "request": {
      "method": "PUT",
      "url": "Encounter/595d95ec-deab-4b4b-95ed-c79d20c77a04"
    }
  }, {
    "fullUrl": "https://madie.cms.gov/claim/5ca62962b8484628b8de1ec5",
    "resource": {
      "resourceType": "Claim",
      "id": "5ca62962b8484628b8de1ec5",
      "meta": {
        "profile": [ "http://hl7.org/fhir/us/qicore/StructureDefinition/qicore-claim" ]
      },
      "status": "active",
      "type": {
        "coding": [ {
          "system": "http://terminology.hl7.org/CodeSystem/claim-type",
          "code": "institutional"
        } ]
      },
      "use": "claim",
      "patient": {
        "reference": "Patient/d170a0a8-b5ad-4303-b6df-e304dd5f92ad"
      },
      "created": "2026-12-01",
      "provider": {
        "reference": "Practitioner/70e62bef-739b-4060-884d-dea0f6925a65"
      },
      "priority": {
        "coding": [ {
          "system": "http://terminology.hl7.org/CodeSystem/processpriority",
          "code": "normal"
        } ]
      },
      "diagnosis": [ {
        "sequence": 1,
        "diagnosisCodeableConcept": {
          "coding": [ {
            "system": "http://hl7.org/fhir/sid/icd-10-cm",
            "code": "I63.00"
          } ]
        },
        "type": [ {
          "coding": [ {
            "system": "http://terminology.hl7.org/CodeSystem/ex-diagnosistype",
            "code": "principal"
          } ]
        } ]
      } ],
      "insurance": [ {
        "sequence": 1,
        "focal": true,
        "coverage": {
          "reference": "Coverage/5fa041661c76ba66d9959367"
        }
      } ],
      "item": [ {
        "sequence": 1,
        "diagnosisSequence": [ 1 ],
        "productOrService": {
          "coding": [ {
            "system": "http://terminology.hl7.org/CodeSystem/ex-USCLS",
            "code": "99555"
          } ]
        },
        "encounter": [ {
          "reference": "Encounter/595d95ec-deab-4b4b-95ed-c79d20c77a04"
        } ]
      } ]
    },
    "request": {
      "method": "PUT",
      "url": "Claim/5ca62962b8484628b8de1ec5"
    }
  }, {
    "fullUrl": "https://madie.cms.gov/MedicationAdministration/bfb04725-0035-4959-b1a8-afccf9664d32",
    "resource": {
      "resourceType": "MedicationAdministration",
      "id": "bfb04725-0035-4959-b1a8-afccf9664d32",
      "meta": {
        "profile": [ "http://hl7.org/fhir/us/qicore/StructureDefinition/qicore-medicationadministration" ]
      },
      "status": "completed",
      "medicationCodeableConcept": {
        "coding": [ {
          "system": "http://www.nlm.nih.gov/research/umls/rxnorm",
          "code": "198466"
        } ]
      },
      "subject": {
        "reference": "Patient/6678ed6f-3c94-4630-a7c5-d35a003b4535"
      },
      "effectivePeriod": {
        "start": "2026-10-10T08:01:00.000+00:00",
        "end": "2026-10-10T08:45:00.000+00:00"
      }
    },
    "request": {
      "method": "PUT",
      "url": "MedicationAdministration/bfb04725-0035-4959-b1a8-afccf9664d32"
    }
  }, {
    "fullUrl": "https://madie.cms.gov/Coverage/52c09dce-47ab-4c74-a948-936eed186001",
    "resource": {
      "resourceType": "Coverage",
      "id": "52c09dce-47ab-4c74-a948-936eed186001",
      "status": "active",
      "subscriberId": "523435",
      "beneficiary": {
        "reference": "Patient/6678ed6f-3c94-4630-a7c5-d35a003b4535"
      },
      "relationship": {
        "coding": [ {
          "system": "http://terminology.hl7.org/CodeSystem/subscriber-relationship",
          "code": "self"
        } ]
      },
      "period": {
        "start": "1976-09-26T08:00:00.000+00:00"
      },
      "payor": [ {
        "reference": "Organization/c20bf494-58f2-4f71-b6bf-e557e7cfa0d4"
      } ]
    },
    "request": {
      "method": "PUT",
      "url": "Coverage/52c09dce-47ab-4c74-a948-936eed186001"
    }
  }, {
    "fullUrl": "https://madie.cms.gov/Condition/55946363-b6a5-439a-bd74-5ab6ea3195f1",
    "resource": {
      "resourceType": "Condition",
      "id": "55946363-b6a5-439a-bd74-5ab6ea3195f1",
      "meta": {
        "profile": [ "http://hl7.org/fhir/us/qicore/StructureDefinition/qicore-condition-problems-health-concerns" ]
      },
      "clinicalStatus": {
        "coding": [ {
          "system": "http://terminology.hl7.org/CodeSystem/condition-clinical",
          "code": "active"
        } ]
      },
      "verificationStatus": {
        "coding": [ {
          "system": "http://terminology.hl7.org/CodeSystem/condition-ver-status",
          "code": "confirmed"
        } ]
      },
      "category": [ {
        "coding": [ {
          "system": "http://terminology.hl7.org/CodeSystem/condition-category",
          "code": "encounter-diagnosis",
          "display": "Encounter Diagnosis"
        } ]
      } ],
      "code": {
        "coding": [ {
          "system": "http://snomed.info/sct",
          "version": "2020-09",
          "code": "111297002",
          "display": "Nonparalytic stroke (disorder)",
          "userSelected": true
        } ]
      },
      "subject": {
        "reference": "Patient/6678ed6f-3c94-4630-a7c5-d35a003b4535"
      },
      "recordedDate": "2026-08-16T08:00:00.000+00:00"
    },
    "request": {
      "method": "PUT",
      "url": "Condition/55946363-b6a5-439a-bd74-5ab6ea3195f1"
    }
  }, {
    "fullUrl": "https://madie.cms.gov/Organization/c20bf494-58f2-4f71-b6bf-e557e7cfa0d4",
    "resource": {
      "resourceType": "Organization",
      "id": "c20bf494-58f2-4f71-b6bf-e557e7cfa0d4",
      "meta": {
        "profile": [ "http://hl7.org/fhir/us/qicore/StructureDefinition/qicore-organization" ]
      },
      "identifier": [ {
        "use": "temp",
        "system": "urn:oid:2.16.840.1.113883.4.4",
        "value": "21-3259825"
      } ],
      "active": true,
      "type": [ {
        "coding": [ {
          "system": "http://terminology.hl7.org/CodeSystem/organization-type",
          "code": "pay",
          "display": "Payer"
        } ]
      } ],
      "name": "Blue Cross Blue Shield of Texas",
      "telecom": [ {
        "system": "phone",
        "value": "(+1) 972-766-6900"
      } ],
      "address": [ {
        "use": "billing",
        "type": "postal",
        "line": [ "P.O. Box 660044" ],
        "city": "Dallas",
        "state": "TX",
        "postalCode": "75266-0044",
        "country": "USA"
      } ]
    },
    "request": {
      "method": "PUT",
      "url": "Organization/c20bf494-58f2-4f71-b6bf-e557e7cfa0d4"
    }
  }, {
    "fullUrl": "https://madie.cms.gov/Practitioner/70e62bef-739b-4060-884d-dea0f6925a65",
    "resource": {
      "resourceType": "Practitioner",
      "id": "70e62bef-739b-4060-884d-dea0f6925a65",
      "meta": {
        "profile": [ "http://hl7.org/fhir/us/qicore/StructureDefinition/qicore-practitioner" ]
      },
      "identifier": [ {
        "system": "http://hl7.org/fhir/sid/us-npi",
        "value": "9999999896"
      } ],
      "name": [ {
        "family": "Evil",
        "prefix": [ "Dr" ]
      } ]
    },
    "request": {
      "method": "PUT",
      "url": "Practitioner/70e62bef-739b-4060-884d-dea0f6925a65"
    }
  }, {
    "fullUrl": "https://madie.cms.gov/MeasureReport/88c3b606-d472-404b-ba51-38611eb233b6",
    "resource": {
      "resourceType": "MeasureReport",
      "id": "88c3b606-d472-404b-ba51-38611eb233b6",
      "meta": {
        "profile": [ "http://hl7.org/fhir/us/cqfmeasures/StructureDefinition/test-case-cqfm" ]
      },
      "contained": [ {
        "resourceType": "Parameters",
        "id": "37747140-745d-4e6f-b0ec-cfae5c7e5c7d-parameters",
        "parameter": [ {
          "name": "subject",
          "valueString": "6678ed6f-3c94-4630-a7c5-d35a003b4535"
        } ]
      } ],
      "extension": [ {
        "url": "http://hl7.org/fhir/StructureDefinition/cqf-inputParameters",
        "valueReference": {
          "reference": "#37747140-745d-4e6f-b0ec-cfae5c7e5c7d-parameters"
        }
      }, {
        "url": "http://hl7.org/fhir/us/cqfmeasures/StructureDefinition/cqfm-testCaseDescription",
        "valueMarkdown": "\"antithrombotic therapy >1 day (=2 days) after ED start,\nglobal.\"\"Hospitalization\"\" =(Ed+IP)\"\n"
      } ],
      "modifierExtension": [ {
        "url": "http://hl7.org/fhir/us/cqfmeasures/StructureDefinition/cqfm-isTestCase",
        "valueBoolean": true
      } ],
      "status": "complete",
      "type": "individual",
      "measure": "https://madie.cms.gov/Measure/CMS72FHIRSTKAntithromboticDay2",
      "period": {
        "start": "2026-01-01",
        "end": "2026-12-31"
      },
      "group": [ {
        "id": "Group_1",
        "population": [ {
          "id": "InitialPopulation_1",
          "code": {
            "coding": [ {
              "system": "http://terminology.hl7.org/CodeSystem/measure-population",
              "code": "initial-population",
              "display": "Initial Population"
            } ]
          },
          "count": 1
        }, {
          "id": "Denominator_1",
          "code": {
            "coding": [ {
              "system": "http://terminology.hl7.org/CodeSystem/measure-population",
              "code": "denominator",
              "display": "Denominator"
            } ]
          },
          "count": 1
        }, {
          "id": "DenominatorExclusion_1",
          "code": {
            "coding": [ {
              "system": "http://terminology.hl7.org/CodeSystem/measure-population",
              "code": "denominator-exclusion",
              "display": "Denominator Exclusion"
            } ]
          },
          "count": 0
        }, {
          "id": "Numerator_1",
          "code": {
            "coding": [ {
              "system": "http://terminology.hl7.org/CodeSystem/measure-population",
              "code": "numerator",
              "display": "Numerator"
            } ]
          },
          "count": 0
        }, {
          "id": "DenominatorException_1",
          "code": {
            "coding": [ {
              "system": "http://terminology.hl7.org/CodeSystem/measure-population",
              "code": "denominator-exception",
              "display": "Denominator Exception"
            } ]
          },
          "count": 0
        } ],
        "measureScore": {
          "value": 0.0
        }
      } ],
      "evaluatedResource": [ {
        "reference": "Patient/6678ed6f-3c94-4630-a7c5-d35a003b4535"
      }, {
        "reference": "Encounter/1fc55604-4016-4b68-84e0-89a9080414ae"
      }, {
        "reference": "Encounter/595d95ec-deab-4b4b-95ed-c79d20c77a04"
      }, {
        "reference": "Claim/5ca62962b8484628b8de1ec5"
      }, {
        "reference": "MedicationAdministration/bfb04725-0035-4959-b1a8-afccf9664d32"
      }, {
        "reference": "Coverage/52c09dce-47ab-4c74-a948-936eed186001"
      }, {
        "reference": "Condition/55946363-b6a5-439a-bd74-5ab6ea3195f1"
      }, {
        "reference": "Organization/c20bf494-58f2-4f71-b6bf-e557e7cfa0d4"
      }, {
        "reference": "Practitioner/70e62bef-739b-4060-884d-dea0f6925a65"
      } ]
    },
    "request": {
      "method": "PUT",
      "url": "MeasureReport/88c3b606-d472-404b-ba51-38611eb233b6"
    }
  } ]
}