{
  "resourceType": "Bundle",
  "id": "633b3fa00968f80122503d18",
  "type": "transaction",
  "entry": [ {
    "fullUrl": "https://madie.cms.gov/Patient/9818f17b-50f0-4ff1-8ff3-075723c80329",
    "resource": {
      "resourceType": "Patient",
      "id": "9818f17b-50f0-4ff1-8ff3-075723c80329",
      "meta": {
        "profile": [ "http://hl7.org/fhir/us/qicore/StructureDefinition/qicore-patient" ]
      },
      "text": {
        "status": "generated",
        "div": "<div xmlns=\"http://www.w3.org/1999/xhtml\"><div class=\"hapiHeaderText\">DelProcRelDtTmEQIPEnd <b>IPPASS </b></div><table class=\"hapiPropertyTable\"><tbody><tr><td>Date of birth</td><td><span>31 January 2004</span></td></tr></tbody></table></div>"
      },
      "extension": [ {
        "url": "http://hl7.org/fhir/us/core/StructureDefinition/us-core-race",
        "extension": [ {
          "url": "ombCategory",
          "valueCoding": {
            "system": "urn:oid:2.16.840.1.113883.6.238",
            "code": "1002-5",
            "display": "American Indian or Alaska Native",
            "userSelected": true
          }
        }, {
          "url": "text",
          "valueString": "American Indian or Alaska Native"
        } ]
      }, {
        "url": "http://hl7.org/fhir/us/core/StructureDefinition/us-core-ethnicity",
        "extension": [ {
          "url": "ombCategory",
          "valueCoding": {
            "system": "urn:oid:2.16.840.1.113883.6.238",
            "code": "2135-2",
            "display": "Hispanic or Latino",
            "userSelected": true
          }
        }, {
          "url": "text",
          "valueString": "Hispanic or Latino"
        } ]
      } ],
      "identifier": [ {
        "type": {
          "coding": [ {
            "system": "http://terminology.hl7.org/CodeSystem/v2-0203",
            "code": "MR"
          } ]
        },
        "system": "https://bonnie-fhir.healthit.gov/",
        "value": "633b3fa00968f80122503d18"
      } ],
      "active": true,
      "name": [ {
        "use": "usual",
        "family": "IPPass",
        "given": [ "DelProcRelDtTmEQIPEnd" ]
      } ],
      "gender": "female",
      "birthDate": "2005-01-31"
    },
    "request": {
      "method": "PUT",
      "url": "Patient/9818f17b-50f0-4ff1-8ff3-075723c80329"
    }
  }, {
    "fullUrl": "https://madie.cms.gov/Encounter/d95e9598-d4d9-48a0-a993-0c5a0d0143c8",
    "resource": {
      "resourceType": "Encounter",
      "id": "d95e9598-d4d9-48a0-a993-0c5a0d0143c8",
      "meta": {
        "profile": [ "http://hl7.org/fhir/us/qicore/StructureDefinition/qicore-encounter" ]
      },
      "status": "finished",
      "class": {
        "system": "http://terminology.hl7.org/CodeSystem/v3-ActCode",
        "code": "IMP",
        "display": "inpatient encounter"
      },
      "type": [ {
        "coding": [ {
          "system": "http://snomed.info/sct",
          "code": "183452005"
        } ]
      } ],
      "subject": {
        "reference": "Patient/9818f17b-50f0-4ff1-8ff3-075723c80329"
      },
      "period": {
        "start": "2026-02-01T09:00:00.000+00:00",
        "end": "2026-02-05T08:15:00.000+00:00"
      }
    },
    "request": {
      "method": "PUT",
      "url": "Encounter/d95e9598-d4d9-48a0-a993-0c5a0d0143c8"
    }
  }, {
    "fullUrl": "https://madie.cms.gov/Encounter/93bf89ff-c4fb-42ef-995a-dc4302dfef4c",
    "resource": {
      "resourceType": "Encounter",
      "id": "93bf89ff-c4fb-42ef-995a-dc4302dfef4c",
      "meta": {
        "profile": [ "http://hl7.org/fhir/us/qicore/StructureDefinition/qicore-encounter" ]
      },
      "status": "finished",
      "class": {
        "system": "http://terminology.hl7.org/CodeSystem/v3-ActCode",
        "code": "IMP",
        "display": "inpatient encounter"
      },
      "type": [ {
        "coding": [ {
          "system": "http://snomed.info/sct",
          "code": "448951000124107"
        } ]
      } ],
      "subject": {
        "reference": "Patient/9818f17b-50f0-4ff1-8ff3-075723c80329"
      },
      "period": {
        "start": "2026-02-01T08:00:00.000+00:00",
        "end": "2026-02-01T08:59:00.000+00:00"
      }
    },
    "request": {
      "method": "PUT",
      "url": "Encounter/93bf89ff-c4fb-42ef-995a-dc4302dfef4c"
    }
  }, {
    "fullUrl": "https://madie.cms.gov/Encounter/4010eff2-3aca-4644-8957-a16d238fe2fd",
    "resource": {
      "resourceType": "Encounter",
      "id": "4010eff2-3aca-4644-8957-a16d238fe2fd",
      "meta": {
        "profile": [ "http://hl7.org/fhir/us/qicore/StructureDefinition/qicore-encounter" ]
      },
      "status": "finished",
      "class": {
        "system": "http://terminology.hl7.org/CodeSystem/v3-ActCode",
        "code": "IMP",
        "display": "inpatient encounter"
      },
      "type": [ {
        "coding": [ {
          "system": "http://snomed.info/sct",
          "code": "4525004"
        } ]
      } ],
      "subject": {
        "reference": "Patient/9818f17b-50f0-4ff1-8ff3-075723c80329"
      },
      "period": {
        "start": "2026-02-01T07:00:00.000+00:00",
        "end": "2026-02-01T07:59:00.000+00:00"
      }
    },
    "request": {
      "method": "PUT",
      "url": "Encounter/4010eff2-3aca-4644-8957-a16d238fe2fd"
    }
  }, {
    "fullUrl": "https://madie.cms.gov/Coverage/6602170d-60dd-4244-b978-9d89f93ddb94",
    "resource": {
      "resourceType": "Coverage",
      "id": "6602170d-60dd-4244-b978-9d89f93ddb94",
      "status": "active",
      "beneficiary": {
        "reference": "Patient/9818f17b-50f0-4ff1-8ff3-075723c80329"
      },
      "period": {
        "start": "2005-01-31T01:00:00.000+00:00"
      },
      "payor": [ {
        "reference": "Organization/297f9cb2-2676-4083-b3b1-de0e7ddabc17"
      } ]
    },
    "request": {
      "method": "PUT",
      "url": "Coverage/6602170d-60dd-4244-b978-9d89f93ddb94"
    }
  }, {
    "fullUrl": "https://madie.cms.gov/Procedure/6622dbb5-6973-4356-b5c3-02bfbeecc7e4",
    "resource": {
      "resourceType": "Procedure",
      "id": "6622dbb5-6973-4356-b5c3-02bfbeecc7e4",
      "meta": {
        "profile": [ "http://hl7.org/fhir/us/qicore/StructureDefinition/qicore-procedure" ]
      },
      "extension": [ {
        "url": "http://hl7.org/fhir/us/qicore/StructureDefinition/qicore-recorded",
        "valueDateTime": "2014-04-05T13:35:00.000+00:00"
      } ],
      "status": "completed",
      "code": {
        "coding": [ {
          "system": "http://snomed.info/sct",
          "code": "10745001"
        } ]
      },
      "subject": {
        "reference": "Patient/9818f17b-50f0-4ff1-8ff3-075723c80329"
      },
      "performedDateTime": "2026-02-05T08:15:00.000+00:00"
    },
    "request": {
      "method": "PUT",
      "url": "Procedure/6622dbb5-6973-4356-b5c3-02bfbeecc7e4"
    }
  }, {
    "fullUrl": "https://madie.cms.gov/Organization/297f9cb2-2676-4083-b3b1-de0e7ddabc17",
    "resource": {
      "resourceType": "Organization",
      "id": "297f9cb2-2676-4083-b3b1-de0e7ddabc17",
      "meta": {
        "profile": [ "http://hl7.org/fhir/us/qicore/StructureDefinition/qicore-organization" ]
      },
      "identifier": [ {
        "use": "temp",
        "system": "urn:oid:2.16.840.1.113883.4.4",
        "value": "21-3259825"
      } ],
      "active": true,
      "type": [ {
        "coding": [ {
          "system": "http://terminology.hl7.org/CodeSystem/organization-type",
          "code": "pay",
          "display": "Payer"
        } ]
      } ],
      "name": "Blue Cross Blue Shield of Texas",
      "telecom": [ {
        "system": "phone",
        "value": "(+1) 972-766-6900"
      } ],
      "address": [ {
        "use": "billing",
        "type": "postal",
        "line": [ "P.O. Box 660044" ],
        "city": "Dallas",
        "state": "TX",
        "postalCode": "75266-0044",
        "country": "USA"
      } ]
    },
    "request": {
      "method": "PUT",
      "url": "Organization/297f9cb2-2676-4083-b3b1-de0e7ddabc17"
    }
  }, {
    "fullUrl": "https://madie.cms.gov/Practitioner/49aeaf93-137e-43c4-9507-8284a2abcab4",
    "resource": {
      "resourceType": "Practitioner",
      "id": "49aeaf93-137e-43c4-9507-8284a2abcab4",
      "identifier": [ {
        "system": "http://hl7.org/fhir/sid/us-npi",
        "value": "123456"
      } ],
      "name": [ {
        "family": "Evil",
        "prefix": [ "Dr" ]
      } ]
    },
    "request": {
      "method": "PUT",
      "url": "Practitioner/49aeaf93-137e-43c4-9507-8284a2abcab4"
    }
  }, {
    "fullUrl": "https://madie.cms.gov/MeasureReport/f1f7c5d6-dfc6-44a6-ad84-c2bb656af978",
    "resource": {
      "resourceType": "MeasureReport",
      "id": "f1f7c5d6-dfc6-44a6-ad84-c2bb656af978",
      "meta": {
        "profile": [ "http://hl7.org/fhir/us/cqfmeasures/StructureDefinition/test-case-cqfm" ]
      },
      "contained": [ {
        "resourceType": "Parameters",
        "id": "c41a557d-b7ea-4ae5-be29-a8cecdcefa1e-parameters",
        "parameter": [ {
          "name": "subject",
          "valueString": "9818f17b-50f0-4ff1-8ff3-075723c80329"
        } ]
      } ],
      "extension": [ {
        "url": "http://hl7.org/fhir/StructureDefinition/cqf-inputParameters",
        "valueReference": {
          "reference": "#c41a557d-b7ea-4ae5-be29-a8cecdcefa1e-parameters"
        }
      }, {
        "url": "http://hl7.org/fhir/us/cqfmeasures/StructureDefinition/cqfm-testCaseDescription",
        "valueMarkdown": "Delivery Procedure rel date/time = IP end.  ED/OBS/IP all meet global hospitalization criteria.\n"
      } ],
      "modifierExtension": [ {
        "url": "http://hl7.org/fhir/us/cqfmeasures/StructureDefinition/cqfm-isTestCase",
        "valueBoolean": true
      } ],
      "status": "complete",
      "type": "individual",
      "measure": "https://madie.cms.gov/Measure/CMS1028FHIRPCSevereOBComps",
      "period": {
        "start": "2026-01-01",
        "end": "2026-12-31"
      },
      "group": [ {
        "id": "Group_1",
        "population": [ {
          "id": "InitialPopulation_1",
          "code": {
            "coding": [ {
              "system": "http://terminology.hl7.org/CodeSystem/measure-population",
              "code": "initial-population",
              "display": "Initial Population"
            } ]
          },
          "count": 1
        }, {
          "id": "Denominator_1",
          "code": {
            "coding": [ {
              "system": "http://terminology.hl7.org/CodeSystem/measure-population",
              "code": "denominator",
              "display": "Denominator"
            } ]
          },
          "count": 0
        }, {
          "id": "Numerator_1",
          "code": {
            "coding": [ {
              "system": "http://terminology.hl7.org/CodeSystem/measure-population",
              "code": "numerator",
              "display": "Numerator"
            } ]
          },
          "count": 0
        }, {
          "id": "NumeratorExclusion_1",
          "code": {
            "coding": [ {
              "system": "http://terminology.hl7.org/CodeSystem/measure-population",
              "code": "numerator-exclusion",
              "display": "Numerator Exclusion"
            } ]
          },
          "count": 0
        } ],
        "measureScore": {
          "value": 0.0
        }
      }, {
        "id": "Group_2",
        "population": [ {
          "id": "InitialPopulation_2",
          "code": {
            "coding": [ {
              "system": "http://terminology.hl7.org/CodeSystem/measure-population",
              "code": "initial-population",
              "display": "Initial Population"
            } ]
          },
          "count": 1
        }, {
          "id": "Denominator_2",
          "code": {
            "coding": [ {
              "system": "http://terminology.hl7.org/CodeSystem/measure-population",
              "code": "denominator",
              "display": "Denominator"
            } ]
          },
          "count": 0
        }, {
          "id": "Numerator_2",
          "code": {
            "coding": [ {
              "system": "http://terminology.hl7.org/CodeSystem/measure-population",
              "code": "numerator",
              "display": "Numerator"
            } ]
          },
          "count": 0
        }, {
          "id": "NumeratorExclusion_2",
          "code": {
            "coding": [ {
              "system": "http://terminology.hl7.org/CodeSystem/measure-population",
              "code": "numerator-exclusion",
              "display": "Numerator Exclusion"
            } ]
          },
          "count": 0
        } ],
        "measureScore": {
          "value": 0.0
        }
      } ],
      "evaluatedResource": [ {
        "reference": "Patient/9818f17b-50f0-4ff1-8ff3-075723c80329"
      }, {
        "reference": "Encounter/d95e9598-d4d9-48a0-a993-0c5a0d0143c8"
      }, {
        "reference": "Encounter/93bf89ff-c4fb-42ef-995a-dc4302dfef4c"
      }, {
        "reference": "Encounter/4010eff2-3aca-4644-8957-a16d238fe2fd"
      }, {
        "reference": "Coverage/6602170d-60dd-4244-b978-9d89f93ddb94"
      }, {
        "reference": "Procedure/6622dbb5-6973-4356-b5c3-02bfbeecc7e4"
      }, {
        "reference": "Organization/297f9cb2-2676-4083-b3b1-de0e7ddabc17"
      }, {
        "reference": "Practitioner/49aeaf93-137e-43c4-9507-8284a2abcab4"
      } ]
    },
    "request": {
      "method": "PUT",
      "url": "MeasureReport/f1f7c5d6-dfc6-44a6-ad84-c2bb656af978"
    }
  } ]
}