{
  "resourceType": "Bundle",
  "id": "61168b8798086b77ef9c5ec2",
  "type": "collection",
  "entry": [ {
    "fullUrl": "https://madie.cms.gov/Patient/0abeb5d4-0e98-4b8f-9745-2435306d9978",
    "resource": {
      "resourceType": "Patient",
      "id": "0abeb5d4-0e98-4b8f-9745-2435306d9978",
      "meta": {
        "profile": [ "http://hl7.org/fhir/us/qicore/StructureDefinition/qicore-patient" ]
      },
      "extension": [ {
        "url": "http://hl7.org/fhir/us/core/StructureDefinition/us-core-race",
        "extension": [ {
          "url": "ombCategory",
          "valueCoding": {
            "system": "urn:oid:2.16.840.1.113883.6.238",
            "code": "2054-5",
            "display": "Black or African American",
            "userSelected": true
          }
        }, {
          "url": "text",
          "valueString": "Black or African American"
        } ]
      }, {
        "url": "http://hl7.org/fhir/us/core/StructureDefinition/us-core-ethnicity",
        "extension": [ {
          "url": "ombCategory",
          "valueCoding": {
            "system": "urn:oid:2.16.840.1.113883.6.238",
            "code": "2135-2",
            "display": "Hispanic or Latino",
            "userSelected": true
          }
        }, {
          "url": "text",
          "valueString": "Hispanic or Latino"
        } ]
      } ],
      "identifier": [ {
        "type": {
          "coding": [ {
            "system": "http://terminology.hl7.org/CodeSystem/v2-0203",
            "code": "MR"
          } ]
        },
        "system": "https://myGoodHealthCare.com/",
        "value": "61168b8798086b77ef9c5ec2"
      } ],
      "active": true,
      "name": [ {
        "use": "usual",
        "family": "IPFail",
        "given": [ "RetinopathyDxUnconfirmed" ]
      } ],
      "gender": "female",
      "birthDate": "1979-01-01"
    }
  }, {
    "fullUrl": "https://madie.cms.gov/Condition/e38f37d7-3f28-46d9-b823-bb8cc837d652",
    "resource": {
      "resourceType": "Condition",
      "id": "e38f37d7-3f28-46d9-b823-bb8cc837d652",
      "meta": {
        "profile": [ "http://hl7.org/fhir/us/qicore/StructureDefinition/qicore-condition-problems-health-concerns" ]
      },
      "clinicalStatus": {
        "coding": [ {
          "system": "http://terminology.hl7.org/CodeSystem/condition-clinical",
          "code": "active",
          "display": "active",
          "userSelected": true
        } ]
      },
      "verificationStatus": {
        "coding": [ {
          "system": "http://terminology.hl7.org/CodeSystem/condition-ver-status",
          "code": "refuted",
          "display": "Refuted",
          "userSelected": true
        } ]
      },
      "category": [ {
        "coding": [ {
          "system": "http://terminology.hl7.org/CodeSystem/condition-category",
          "code": "problem-list-item",
          "display": "Problem List Item"
        } ]
      } ],
      "code": {
        "coding": [ {
          "system": "http://snomed.info/sct",
          "version": "http://snomed.info/sct/731000124108/version/20250301",
          "code": "314014002"
        } ]
      },
      "subject": {
        "reference": "Patient/0abeb5d4-0e98-4b8f-9745-2435306d9978"
      },
      "onsetDateTime": "2026-09-10T10:45:00.000Z"
    }
  }, {
    "fullUrl": "https://madie.cms.gov/Encounter/d222e37e-d30b-45e5-b8d8-2d579b8b6cc7",
    "resource": {
      "resourceType": "Encounter",
      "id": "d222e37e-d30b-45e5-b8d8-2d579b8b6cc7",
      "meta": {
        "profile": [ "http://hl7.org/fhir/us/qicore/StructureDefinition/qicore-encounter" ]
      },
      "status": "finished",
      "class": {
        "system": "http://terminology.hl7.org/CodeSystem/v3-ActCode",
        "code": "AMB"
      },
      "type": [ {
        "coding": [ {
          "system": "http://www.ama-assn.org/go/cpt",
          "version": "2023",
          "code": "99205"
        } ]
      } ],
      "subject": {
        "reference": "Patient/0abeb5d4-0e98-4b8f-9745-2435306d9978"
      },
      "period": {
        "start": "2026-09-11T10:00:00.000Z",
        "end": "2026-09-11T11:00:00.000Z"
      }
    }
  }, {
    "fullUrl": "https://madie.cms.gov/Coverage/e56a8348-6c1a-46ae-8d94-777257e2c547",
    "resource": {
      "resourceType": "Coverage",
      "id": "e56a8348-6c1a-46ae-8d94-777257e2c547",
      "meta": {
        "profile": [ "http://hl7.org/fhir/us/qicore/StructureDefinition/qicore-coverage" ]
      },
      "status": "active",
      "subscriberId": "123456",
      "beneficiary": {
        "reference": "Patient/0abeb5d4-0e98-4b8f-9745-2435306d9978"
      },
      "relationship": {
        "coding": [ {
          "system": "http://terminology.hl7.org/CodeSystem/subscriber-relationship",
          "code": "self",
          "display": "Self"
        } ]
      },
      "payor": [ {
        "reference": "Organization/92475081-08e1-4c3d-8f65-a4f6ddbfde29"
      } ]
    }
  }, {
    "fullUrl": "https://madie.cms.gov/Organization/92475081-08e1-4c3d-8f65-a4f6ddbfde29",
    "resource": {
      "resourceType": "Organization",
      "id": "92475081-08e1-4c3d-8f65-a4f6ddbfde29",
      "meta": {
        "profile": [ "http://hl7.org/fhir/us/qicore/StructureDefinition/qicore-organization" ]
      },
      "identifier": [ {
        "use": "temp",
        "system": "urn:oid:2.16.840.1.113883.4.4",
        "value": "21-3259825"
      } ],
      "active": true,
      "type": [ {
        "coding": [ {
          "system": "http://terminology.hl7.org/CodeSystem/organization-type",
          "code": "pay",
          "display": "Payer"
        } ]
      } ],
      "name": "Blue Cross Blue Shield of Texas",
      "telecom": [ {
        "system": "phone",
        "value": "(+1) 972-766-6900"
      } ],
      "address": [ {
        "use": "billing",
        "type": "postal",
        "line": [ "P.O. Box 660044" ],
        "city": "Dallas",
        "state": "TX",
        "postalCode": "75266-0044",
        "country": "USA"
      } ]
    }
  }, {
    "fullUrl": "https://madie.cms.gov/MeasureReport/2baac82d-fab0-4ab2-81e6-c5b6948cedbb",
    "resource": {
      "resourceType": "MeasureReport",
      "id": "2baac82d-fab0-4ab2-81e6-c5b6948cedbb",
      "meta": {
        "profile": [ "http://hl7.org/fhir/us/cqfmeasures/StructureDefinition/test-case-cqfm" ]
      },
      "contained": [ {
        "resourceType": "Parameters",
        "id": "62778ff0-8191-42d4-aad8-94069d301255-parameters",
        "parameter": [ {
          "name": "subject",
          "valueString": "0abeb5d4-0e98-4b8f-9745-2435306d9978"
        } ]
      } ],
      "extension": [ {
        "url": "http://hl7.org/fhir/StructureDefinition/cqf-inputParameters",
        "valueReference": {
          "reference": "#62778ff0-8191-42d4-aad8-94069d301255-parameters"
        }
      }, {
        "url": "http://hl7.org/fhir/us/cqfmeasures/StructureDefinition/cqfm-testCaseDescription",
        "valueMarkdown": "Patient with Qualifying Encounter and Retinopathy Diagnosis does not meet IPP because of Unconfirmed verification status of the diagnosis."
      } ],
      "modifierExtension": [ {
        "url": "http://hl7.org/fhir/us/cqfmeasures/StructureDefinition/cqfm-isTestCase",
        "valueBoolean": true
      } ],
      "status": "complete",
      "type": "individual",
      "measure": "https://madie.cms.gov/Measure/CMS142FHIRCommWithDrManagingDiab",
      "period": {
        "start": "2026-01-01",
        "end": "2026-12-31"
      },
      "group": [ {
        "id": "Group_1",
        "population": [ {
          "id": "InitialPopulation_1",
          "code": {
            "coding": [ {
              "system": "http://terminology.hl7.org/CodeSystem/measure-population",
              "code": "initial-population",
              "display": "Initial Population"
            } ]
          },
          "count": 0
        }, {
          "id": "Denominator_1",
          "code": {
            "coding": [ {
              "system": "http://terminology.hl7.org/CodeSystem/measure-population",
              "code": "denominator",
              "display": "Denominator"
            } ]
          },
          "count": 0
        }, {
          "id": "Numerator_1",
          "code": {
            "coding": [ {
              "system": "http://terminology.hl7.org/CodeSystem/measure-population",
              "code": "numerator",
              "display": "Numerator"
            } ]
          },
          "count": 0
        }, {
          "id": "DenominatorException_1",
          "code": {
            "coding": [ {
              "system": "http://terminology.hl7.org/CodeSystem/measure-population",
              "code": "denominator-exception",
              "display": "Denominator Exception"
            } ]
          },
          "count": 0
        } ],
        "measureScore": {
          "value": 1.0
        }
      } ],
      "evaluatedResource": [ {
        "reference": "Patient/0abeb5d4-0e98-4b8f-9745-2435306d9978"
      }, {
        "reference": "Condition/e38f37d7-3f28-46d9-b823-bb8cc837d652"
      }, {
        "reference": "Encounter/d222e37e-d30b-45e5-b8d8-2d579b8b6cc7"
      }, {
        "reference": "Coverage/e56a8348-6c1a-46ae-8d94-777257e2c547"
      }, {
        "reference": "Organization/92475081-08e1-4c3d-8f65-a4f6ddbfde29"
      } ]
    }
  } ]
}