{
  "resourceType": "Bundle",
  "id": "612e6b4102c62a011f2ed12f",
  "type": "transaction",
  "entry": [ {
    "fullUrl": "https://madie.cms.gov/Patient/afad0252-21ef-48ee-9a5a-33dab92d8709",
    "resource": {
      "resourceType": "Patient",
      "id": "afad0252-21ef-48ee-9a5a-33dab92d8709",
      "meta": {
        "profile": [ "http://hl7.org/fhir/us/qicore/StructureDefinition/qicore-patient" ]
      },
      "text": {
        "status": "generated",
        "div": "<div xmlns=\"http://www.w3.org/1999/xhtml\"><div class=\"hapiHeaderText\">CMOPerf_DayofAnes <b>DENEXPASS </b></div><table class=\"hapiPropertyTable\"><tbody><tr><td>Identifier</td><td>ee7153b84916a96927e2b346d9ea62ff</td></tr><tr><td>Date of birth</td><td><span>02 January 1974</span></td></tr></tbody></table></div>"
      },
      "extension": [ {
        "url": "http://hl7.org/fhir/us/core/StructureDefinition/us-core-race",
        "extension": [ {
          "url": "ombCategory",
          "valueCoding": {
            "system": "urn:oid:2.16.840.1.113883.6.238",
            "code": "1002-5",
            "display": "American Indian or Alaska Native",
            "userSelected": true
          }
        }, {
          "url": "text",
          "valueString": "American Indian or Alaska Native"
        } ]
      }, {
        "url": "http://hl7.org/fhir/us/core/StructureDefinition/us-core-ethnicity",
        "extension": [ {
          "url": "ombCategory",
          "valueCoding": {
            "system": "urn:oid:2.16.840.1.113883.6.238",
            "code": "2135-2",
            "display": "Hispanic or Latino",
            "userSelected": true
          }
        }, {
          "url": "text",
          "valueString": "Hispanic or Latino"
        } ]
      } ],
      "identifier": [ {
        "type": {
          "coding": [ {
            "system": "http://terminology.hl7.org/CodeSystem/v2-0203",
            "code": "MR"
          } ]
        },
        "system": "https://bonnie-fhir.healthit.gov/",
        "value": "612e6b4102c62a011f2ed12f"
      } ],
      "active": true,
      "name": [ {
        "use": "usual",
        "family": "DENEXPass",
        "given": [ "CMOPerfDayofAnes" ]
      } ],
      "gender": "male",
      "birthDate": "1975-01-02"
    },
    "request": {
      "method": "PUT",
      "url": "Patient/afad0252-21ef-48ee-9a5a-33dab92d8709"
    }
  }, {
    "fullUrl": "https://madie.cms.gov/Encounter/1d2cc8a7-84fc-4b32-8ccc-0d6c15b0f023",
    "resource": {
      "resourceType": "Encounter",
      "id": "1d2cc8a7-84fc-4b32-8ccc-0d6c15b0f023",
      "meta": {
        "profile": [ "http://hl7.org/fhir/us/qicore/StructureDefinition/qicore-encounter" ]
      },
      "status": "finished",
      "class": {
        "system": "http://terminology.hl7.org/CodeSystem/v3-ActCode",
        "code": "IMP",
        "display": "inpatient encounter"
      },
      "type": [ {
        "coding": [ {
          "system": "http://snomed.info/sct",
          "code": "8715000"
        } ]
      } ],
      "subject": {
        "reference": "Patient/afad0252-21ef-48ee-9a5a-33dab92d8709"
      },
      "period": {
        "start": "2026-11-01T08:00:00.000+00:00",
        "end": "2026-11-26T08:15:00.000+00:00"
      },
      "length": {
        "value": 25,
        "unit": "days"
      }
    },
    "request": {
      "method": "PUT",
      "url": "Encounter/1d2cc8a7-84fc-4b32-8ccc-0d6c15b0f023"
    }
  }, {
    "fullUrl": "https://madie.cms.gov/Procedure/f68a6d57-3d6f-42d0-bff8-2d67c04c182b",
    "resource": {
      "resourceType": "Procedure",
      "id": "f68a6d57-3d6f-42d0-bff8-2d67c04c182b",
      "meta": {
        "profile": [ "http://hl7.org/fhir/us/qicore/StructureDefinition/qicore-procedure" ]
      },
      "extension": [ {
        "url": "http://hl7.org/fhir/us/qicore/StructureDefinition/qicore-recorded",
        "valueDateTime": "2013-11-02T13:35:00.000+00:00"
      } ],
      "status": "completed",
      "code": {
        "coding": [ {
          "system": "http://snomed.info/sct",
          "code": "133918004",
          "display": "Comfort measures (regime/therapy)"
        } ]
      },
      "subject": {
        "reference": "Patient/afad0252-21ef-48ee-9a5a-33dab92d8709"
      },
      "performedPeriod": {
        "start": "2026-11-02T11:00:00.000+00:00"
      }
    },
    "request": {
      "method": "PUT",
      "url": "Procedure/f68a6d57-3d6f-42d0-bff8-2d67c04c182b"
    }
  }, {
    "fullUrl": "https://madie.cms.gov/Coverage/73581855-99de-4765-aa73-36f295263216",
    "resource": {
      "resourceType": "Coverage",
      "id": "73581855-99de-4765-aa73-36f295263216",
      "status": "active",
      "beneficiary": {
        "reference": "Patient/afad0252-21ef-48ee-9a5a-33dab92d8709"
      },
      "period": {
        "start": "1975-01-02T08:00:00.000+00:00"
      },
      "payor": [ {
        "reference": "Organization/3edff448-04e8-442b-b582-692a37d79603"
      } ]
    },
    "request": {
      "method": "PUT",
      "url": "Coverage/73581855-99de-4765-aa73-36f295263216"
    }
  }, {
    "fullUrl": "https://madie.cms.gov/Procedure/a1d3f9bc-e8bf-474f-b33b-b814349427aa",
    "resource": {
      "resourceType": "Procedure",
      "id": "a1d3f9bc-e8bf-474f-b33b-b814349427aa",
      "meta": {
        "profile": [ "http://hl7.org/fhir/us/qicore/StructureDefinition/qicore-procedure" ]
      },
      "extension": [ {
        "url": "http://hl7.org/fhir/us/qicore/StructureDefinition/qicore-recorded",
        "valueDateTime": "2013-11-19T13:35:00.000+00:00"
      } ],
      "status": "completed",
      "code": {
        "coding": [ {
          "system": "http://www.cms.gov/Medicare/Coding/ICD10",
          "code": "3E030FZ"
        }, {
          "system": "http://snomed.info/sct",
          "code": "18946005"
        } ]
      },
      "subject": {
        "reference": "Patient/afad0252-21ef-48ee-9a5a-33dab92d8709"
      },
      "performedPeriod": {
        "start": "2026-11-02T09:00:00.000+00:00",
        "end": "2026-11-02T09:15:00.000+00:00"
      }
    },
    "request": {
      "method": "PUT",
      "url": "Procedure/a1d3f9bc-e8bf-474f-b33b-b814349427aa"
    }
  }, {
    "fullUrl": "https://madie.cms.gov/Organization/3edff448-04e8-442b-b582-692a37d79603",
    "resource": {
      "resourceType": "Organization",
      "id": "3edff448-04e8-442b-b582-692a37d79603",
      "meta": {
        "profile": [ "http://hl7.org/fhir/us/qicore/StructureDefinition/qicore-organization" ]
      },
      "identifier": [ {
        "use": "temp",
        "system": "urn:oid:2.16.840.1.113883.4.4",
        "value": "21-3259825"
      } ],
      "active": true,
      "type": [ {
        "coding": [ {
          "system": "http://terminology.hl7.org/CodeSystem/organization-type",
          "code": "pay",
          "display": "Payer"
        } ]
      } ],
      "name": "Blue Cross Blue Shield of Texas",
      "telecom": [ {
        "system": "phone",
        "value": "(+1) 972-766-6900"
      } ],
      "address": [ {
        "use": "billing",
        "type": "postal",
        "line": [ "P.O. Box 660044" ],
        "city": "Dallas",
        "state": "TX",
        "postalCode": "75266-0044",
        "country": "USA"
      } ]
    },
    "request": {
      "method": "PUT",
      "url": "Organization/3edff448-04e8-442b-b582-692a37d79603"
    }
  }, {
    "fullUrl": "https://madie.cms.gov/Practitioner/013aa1e0-41db-4e31-b8f4-5a48ee3ce38c",
    "resource": {
      "resourceType": "Practitioner",
      "id": "013aa1e0-41db-4e31-b8f4-5a48ee3ce38c",
      "identifier": [ {
        "system": "http://hl7.org/fhir/sid/us-npi",
        "value": "123456"
      } ],
      "name": [ {
        "family": "Evil",
        "prefix": [ "Dr" ]
      } ]
    },
    "request": {
      "method": "PUT",
      "url": "Practitioner/013aa1e0-41db-4e31-b8f4-5a48ee3ce38c"
    }
  }, {
    "fullUrl": "https://madie.cms.gov/MeasureReport/6b5179fb-fe05-4e89-97ec-6fbefb03aa03",
    "resource": {
      "resourceType": "MeasureReport",
      "id": "6b5179fb-fe05-4e89-97ec-6fbefb03aa03",
      "meta": {
        "profile": [ "http://hl7.org/fhir/us/cqfmeasures/StructureDefinition/test-case-cqfm" ]
      },
      "contained": [ {
        "resourceType": "Parameters",
        "id": "9ec53376-3c83-4004-ba5c-49aece707da2-parameters",
        "parameter": [ {
          "name": "subject",
          "valueString": "afad0252-21ef-48ee-9a5a-33dab92d8709"
        } ]
      } ],
      "extension": [ {
        "url": "http://hl7.org/fhir/StructureDefinition/cqf-inputParameters",
        "valueReference": {
          "reference": "#9ec53376-3c83-4004-ba5c-49aece707da2-parameters"
        }
      }, {
        "url": "http://hl7.org/fhir/us/cqfmeasures/StructureDefinition/cqfm-testCaseDescription",
        "valueMarkdown": "CMO performed on the day of Anesthesia end day"
      } ],
      "modifierExtension": [ {
        "url": "http://hl7.org/fhir/us/cqfmeasures/StructureDefinition/cqfm-isTestCase",
        "valueBoolean": true
      } ],
      "status": "complete",
      "type": "individual",
      "measure": "https://madie.cms.gov/Measure/CMS108FHIRVTEProphylaxis",
      "period": {
        "start": "2026-01-01",
        "end": "2026-12-31"
      },
      "group": [ {
        "id": "Group_1",
        "population": [ {
          "id": "InitialPopulation_1",
          "code": {
            "coding": [ {
              "system": "http://terminology.hl7.org/CodeSystem/measure-population",
              "code": "initial-population",
              "display": "Initial Population"
            } ]
          },
          "count": 1
        }, {
          "id": "Denominator_1",
          "code": {
            "coding": [ {
              "system": "http://terminology.hl7.org/CodeSystem/measure-population",
              "code": "denominator",
              "display": "Denominator"
            } ]
          },
          "count": 1
        }, {
          "id": "DenominatorExclusion_1",
          "code": {
            "coding": [ {
              "system": "http://terminology.hl7.org/CodeSystem/measure-population",
              "code": "denominator-exclusion",
              "display": "Denominator Exclusion"
            } ]
          },
          "count": 1
        }, {
          "id": "Numerator_1",
          "code": {
            "coding": [ {
              "system": "http://terminology.hl7.org/CodeSystem/measure-population",
              "code": "numerator",
              "display": "Numerator"
            } ]
          },
          "count": 0
        } ],
        "measureScore": {
          "value": 0.0
        }
      } ],
      "evaluatedResource": [ {
        "reference": "Patient/afad0252-21ef-48ee-9a5a-33dab92d8709"
      }, {
        "reference": "Encounter/1d2cc8a7-84fc-4b32-8ccc-0d6c15b0f023"
      }, {
        "reference": "Procedure/f68a6d57-3d6f-42d0-bff8-2d67c04c182b"
      }, {
        "reference": "Coverage/73581855-99de-4765-aa73-36f295263216"
      }, {
        "reference": "Procedure/a1d3f9bc-e8bf-474f-b33b-b814349427aa"
      }, {
        "reference": "Organization/3edff448-04e8-442b-b582-692a37d79603"
      }, {
        "reference": "Practitioner/013aa1e0-41db-4e31-b8f4-5a48ee3ce38c"
      } ]
    },
    "request": {
      "method": "PUT",
      "url": "MeasureReport/6b5179fb-fe05-4e89-97ec-6fbefb03aa03"
    }
  } ]
}