{
  "resourceType": "Bundle",
  "id": "612e6f4e02c62a011f2f15ae",
  "type": "transaction",
  "entry": [ {
    "fullUrl": "https://madie.cms.gov/Patient/6e9594c6-7336-4735-b402-0bd0a1d10c6d",
    "resource": {
      "resourceType": "Patient",
      "id": "6e9594c6-7336-4735-b402-0bd0a1d10c6d",
      "meta": {
        "profile": [ "http://hl7.org/fhir/us/qicore/StructureDefinition/qicore-patient" ]
      },
      "text": {
        "status": "generated",
        "div": "<div xmlns=\"http://www.w3.org/1999/xhtml\"><div class=\"hapiHeaderText\">MAUHepOnAnesEndOnICUStart <b>NUMERPASS </b></div><table class=\"hapiPropertyTable\"><tbody><tr><td>Identifier</td><td>18da224ba07858aaf8efb0009ede783e</td></tr><tr><td>Date of birth</td><td><span>03 March 1974</span></td></tr></tbody></table></div>"
      },
      "extension": [ {
        "url": "http://hl7.org/fhir/us/core/StructureDefinition/us-core-race",
        "extension": [ {
          "url": "ombCategory",
          "valueCoding": {
            "system": "urn:oid:2.16.840.1.113883.6.238",
            "code": "1002-5",
            "display": "American Indian or Alaska Native",
            "userSelected": true
          }
        }, {
          "url": "text",
          "valueString": "American Indian or Alaska Native"
        } ]
      }, {
        "url": "http://hl7.org/fhir/us/core/StructureDefinition/us-core-ethnicity",
        "extension": [ {
          "url": "ombCategory",
          "valueCoding": {
            "system": "urn:oid:2.16.840.1.113883.6.238",
            "code": "2135-2",
            "display": "Hispanic or Latino",
            "userSelected": true
          }
        }, {
          "url": "text",
          "valueString": "Hispanic or Latino"
        } ]
      } ],
      "identifier": [ {
        "type": {
          "coding": [ {
            "system": "http://terminology.hl7.org/CodeSystem/v2-0203",
            "code": "MR"
          } ]
        },
        "system": "https://bonnie-fhir.healthit.gov/",
        "value": "612e6f4e02c62a011f2f15ae"
      } ],
      "active": true,
      "name": [ {
        "use": "usual",
        "family": "NUMERPass",
        "given": [ "MAUHepOnAnesEndOnICUStart" ]
      } ],
      "gender": "female",
      "birthDate": "1975-03-03"
    },
    "request": {
      "method": "PUT",
      "url": "Patient/6e9594c6-7336-4735-b402-0bd0a1d10c6d"
    }
  }, {
    "fullUrl": "https://madie.cms.gov/Encounter/e95c5402-3c56-4120-a94d-0aec00e5220a",
    "resource": {
      "resourceType": "Encounter",
      "id": "e95c5402-3c56-4120-a94d-0aec00e5220a",
      "meta": {
        "profile": [ "http://hl7.org/fhir/us/qicore/StructureDefinition/qicore-encounter" ]
      },
      "status": "finished",
      "class": {
        "system": "http://terminology.hl7.org/CodeSystem/v3-ActCode",
        "code": "IMP",
        "display": "inpatient encounter"
      },
      "type": [ {
        "coding": [ {
          "system": "http://snomed.info/sct",
          "code": "8715000"
        } ]
      } ],
      "subject": {
        "reference": "Patient/6e9594c6-7336-4735-b402-0bd0a1d10c6d"
      },
      "period": {
        "start": "2026-12-04T08:00:00.000+00:00",
        "end": "2026-12-30T08:15:00.000+00:00"
      },
      "length": {
        "value": 26.0,
        "unit": "days"
      },
      "location": [ {
        "location": {
          "reference": "Location/04819f0e-194c-43c2-9776-43da67af0a5d"
        },
        "period": {
          "start": "2026-12-06T08:00:00.000+00:00",
          "end": "2026-12-12T08:15:00.000+00:00"
        }
      } ]
    },
    "request": {
      "method": "PUT",
      "url": "Encounter/e95c5402-3c56-4120-a94d-0aec00e5220a"
    }
  }, {
    "fullUrl": "https://madie.cms.gov/Coverage/5934d391-88f3-4074-8f0e-969db7354802",
    "resource": {
      "resourceType": "Coverage",
      "id": "5934d391-88f3-4074-8f0e-969db7354802",
      "status": "active",
      "beneficiary": {
        "reference": "Patient/6e9594c6-7336-4735-b402-0bd0a1d10c6d"
      },
      "period": {
        "start": "1975-03-03T08:00:00.000+00:00"
      },
      "payor": [ {
        "reference": "Organization/4accb2dc-8474-41aa-8111-8260fd7cc1fa"
      } ]
    },
    "request": {
      "method": "PUT",
      "url": "Coverage/5934d391-88f3-4074-8f0e-969db7354802"
    }
  }, {
    "fullUrl": "https://madie.cms.gov/MedicationAdministration/bb9c9f44-78db-48e0-b0ed-a06fb485d1ae",
    "resource": {
      "resourceType": "MedicationAdministration",
      "id": "bb9c9f44-78db-48e0-b0ed-a06fb485d1ae",
      "meta": {
        "profile": [ "http://hl7.org/fhir/us/qicore/StructureDefinition/qicore-medicationadministration" ]
      },
      "status": "completed",
      "medicationCodeableConcept": {
        "coding": [ {
          "system": "http://www.nlm.nih.gov/research/umls/rxnorm",
          "code": "1361607"
        } ]
      },
      "subject": {
        "reference": "Patient/6e9594c6-7336-4735-b402-0bd0a1d10c6d"
      },
      "effectivePeriod": {
        "start": "2026-12-06T08:00:00.000+00:00",
        "end": "2026-12-12T08:15:00.000+00:00"
      },
      "dosage": {
        "route": {
          "coding": [ {
            "system": "http://snomed.info/sct",
            "code": "418114005",
            "display": "Intravenous route"
          } ]
        },
        "dose": {
          "value": 500,
          "unit": "ml",
          "system": "http://unitsofmeasure.org",
          "code": "ml"
        }
      }
    },
    "request": {
      "method": "PUT",
      "url": "MedicationAdministration/bb9c9f44-78db-48e0-b0ed-a06fb485d1ae"
    }
  }, {
    "fullUrl": "https://madie.cms.gov/Procedure/22c9e026-d4b7-405f-8c82-327f70e5d6d5",
    "resource": {
      "resourceType": "Procedure",
      "id": "22c9e026-d4b7-405f-8c82-327f70e5d6d5",
      "meta": {
        "profile": [ "http://hl7.org/fhir/us/qicore/StructureDefinition/qicore-procedure" ]
      },
      "extension": [ {
        "url": "http://hl7.org/fhir/us/qicore/StructureDefinition/qicore-recorded",
        "valueDateTime": "2013-12-06T13:35:00.000+00:00"
      } ],
      "status": "completed",
      "code": {
        "coding": [ {
          "system": "http://snomed.info/sct",
          "code": "18946005"
        } ]
      },
      "subject": {
        "reference": "Patient/6e9594c6-7336-4735-b402-0bd0a1d10c6d"
      },
      "performedPeriod": {
        "start": "2026-12-06T08:00:00.000+00:00",
        "end": "2026-12-06T09:00:00.000+00:00"
      }
    },
    "request": {
      "method": "PUT",
      "url": "Procedure/22c9e026-d4b7-405f-8c82-327f70e5d6d5"
    }
  }, {
    "fullUrl": "https://madie.cms.gov/Location/04819f0e-194c-43c2-9776-43da67af0a5d",
    "resource": {
      "resourceType": "Location",
      "id": "04819f0e-194c-43c2-9776-43da67af0a5d",
      "meta": {
        "profile": [ "http://hl7.org/fhir/us/qicore/StructureDefinition/qicore-location" ]
      },
      "identifier": [ {
        "use": "usual",
        "system": "http://exampleoflocation.com",
        "value": "B1-S.F2"
      } ],
      "name": "Medical Surgical East, first floor",
      "type": [ {
        "coding": [ {
          "system": "https://www.cdc.gov/nhsn/cdaportal/terminology/codesystem/hsloc.html",
          "code": "1025-6",
          "display": "Trauma Critical Care",
          "userSelected": true
        } ]
      } ]
    },
    "request": {
      "method": "PUT",
      "url": "Location/04819f0e-194c-43c2-9776-43da67af0a5d"
    }
  }, {
    "fullUrl": "https://madie.cms.gov/Organization/4accb2dc-8474-41aa-8111-8260fd7cc1fa",
    "resource": {
      "resourceType": "Organization",
      "id": "4accb2dc-8474-41aa-8111-8260fd7cc1fa",
      "meta": {
        "profile": [ "http://hl7.org/fhir/us/qicore/StructureDefinition/qicore-organization" ]
      },
      "identifier": [ {
        "use": "temp",
        "system": "urn:oid:2.16.840.1.113883.4.4",
        "value": "21-3259825"
      } ],
      "active": true,
      "type": [ {
        "coding": [ {
          "system": "http://terminology.hl7.org/CodeSystem/organization-type",
          "code": "pay",
          "display": "Payer"
        } ]
      } ],
      "name": "Blue Cross Blue Shield of Texas",
      "telecom": [ {
        "system": "phone",
        "value": "(+1) 972-766-6900"
      } ],
      "address": [ {
        "use": "billing",
        "type": "postal",
        "line": [ "P.O. Box 660044" ],
        "city": "Dallas",
        "state": "TX",
        "postalCode": "75266-0044",
        "country": "USA"
      } ]
    },
    "request": {
      "method": "PUT",
      "url": "Organization/4accb2dc-8474-41aa-8111-8260fd7cc1fa"
    }
  }, {
    "fullUrl": "https://madie.cms.gov/Practitioner/f8df3389-1104-4cfe-b889-fc0f546c9e3e",
    "resource": {
      "resourceType": "Practitioner",
      "id": "f8df3389-1104-4cfe-b889-fc0f546c9e3e",
      "identifier": [ {
        "system": "http://hl7.org/fhir/sid/us-npi",
        "value": "123456"
      } ],
      "name": [ {
        "family": "Evil",
        "prefix": [ "Dr" ]
      } ]
    },
    "request": {
      "method": "PUT",
      "url": "Practitioner/f8df3389-1104-4cfe-b889-fc0f546c9e3e"
    }
  }, {
    "fullUrl": "https://madie.cms.gov/MeasureReport/342360b8-8d55-4c42-bbfa-6bc85d5ff3ad",
    "resource": {
      "resourceType": "MeasureReport",
      "id": "342360b8-8d55-4c42-bbfa-6bc85d5ff3ad",
      "meta": {
        "profile": [ "http://hl7.org/fhir/us/cqfmeasures/StructureDefinition/test-case-cqfm" ]
      },
      "contained": [ {
        "resourceType": "Parameters",
        "id": "ec65496b-5843-461e-a541-30d401ec70db-parameters",
        "parameter": [ {
          "name": "subject",
          "valueString": "6e9594c6-7336-4735-b402-0bd0a1d10c6d"
        } ]
      } ],
      "extension": [ {
        "url": "http://hl7.org/fhir/StructureDefinition/cqf-inputParameters",
        "valueReference": {
          "reference": "#ec65496b-5843-461e-a541-30d401ec70db-parameters"
        }
      }, {
        "url": "http://hl7.org/fhir/us/cqfmeasures/StructureDefinition/cqfm-testCaseDescription",
        "valueMarkdown": "meets IPP, meets Denominator, medication administered:Unfractionated Heparin Route:IV starts concurrent with Anesthesia ends, Anes ends concurrent with start of ICU\n"
      } ],
      "modifierExtension": [ {
        "url": "http://hl7.org/fhir/us/cqfmeasures/StructureDefinition/cqfm-isTestCase",
        "valueBoolean": true
      } ],
      "status": "complete",
      "type": "individual",
      "measure": "https://madie.cms.gov/Measure/CMS190FHIRVTEProphylaxisICU",
      "period": {
        "start": "2026-01-01",
        "end": "2026-12-31"
      },
      "group": [ {
        "id": "Group_1",
        "population": [ {
          "id": "InitialPopulation_1",
          "code": {
            "coding": [ {
              "system": "http://terminology.hl7.org/CodeSystem/measure-population",
              "code": "initial-population",
              "display": "Initial Population"
            } ]
          },
          "count": 1
        }, {
          "id": "Denominator_1",
          "code": {
            "coding": [ {
              "system": "http://terminology.hl7.org/CodeSystem/measure-population",
              "code": "denominator",
              "display": "Denominator"
            } ]
          },
          "count": 1
        }, {
          "id": "DenominatorExclusion_1",
          "code": {
            "coding": [ {
              "system": "http://terminology.hl7.org/CodeSystem/measure-population",
              "code": "denominator-exclusion",
              "display": "Denominator Exclusion"
            } ]
          },
          "count": 0
        }, {
          "id": "Numerator_1",
          "code": {
            "coding": [ {
              "system": "http://terminology.hl7.org/CodeSystem/measure-population",
              "code": "numerator",
              "display": "Numerator"
            } ]
          },
          "count": 1
        }, {
          "id": "DenominatorException_1",
          "code": {
            "coding": [ {
              "system": "http://terminology.hl7.org/CodeSystem/measure-population",
              "code": "denominator-exception",
              "display": "Denominator Exception"
            } ]
          },
          "count": 0
        } ],
        "measureScore": {
          "value": 0.0
        }
      } ],
      "evaluatedResource": [ {
        "reference": "Patient/6e9594c6-7336-4735-b402-0bd0a1d10c6d"
      }, {
        "reference": "Encounter/e95c5402-3c56-4120-a94d-0aec00e5220a"
      }, {
        "reference": "Coverage/5934d391-88f3-4074-8f0e-969db7354802"
      }, {
        "reference": "MedicationAdministration/bb9c9f44-78db-48e0-b0ed-a06fb485d1ae"
      }, {
        "reference": "Procedure/22c9e026-d4b7-405f-8c82-327f70e5d6d5"
      }, {
        "reference": "Location/04819f0e-194c-43c2-9776-43da67af0a5d"
      }, {
        "reference": "Organization/4accb2dc-8474-41aa-8111-8260fd7cc1fa"
      }, {
        "reference": "Practitioner/f8df3389-1104-4cfe-b889-fc0f546c9e3e"
      } ]
    },
    "request": {
      "method": "PUT",
      "url": "MeasureReport/342360b8-8d55-4c42-bbfa-6bc85d5ff3ad"
    }
  } ]
}