{
  "resourceType": "Bundle",
  "id": "633b3f9e0968f80122503cd0",
  "type": "transaction",
  "entry": [ {
    "fullUrl": "https://madie.cms.gov/Patient/5f354296-62a1-4601-a8ed-05ebc37b13d7",
    "resource": {
      "resourceType": "Patient",
      "id": "5f354296-62a1-4601-a8ed-05ebc37b13d7",
      "meta": {
        "profile": [ "http://hl7.org/fhir/us/qicore/StructureDefinition/qicore-patient" ]
      },
      "text": {
        "status": "generated",
        "div": "<div xmlns=\"http://www.w3.org/1999/xhtml\"><div class=\"hapiHeaderText\">AssPrfDELRsltDtTimeEQIPEnd<b>DENOMPASS</b></div><table class=\"hapiPropertyTable\"><tbody><tr><td>Date of birth</td><td><span>01 February 2004</span></td></tr></tbody></table></div>"
      },
      "extension": [ {
        "url": "http://hl7.org/fhir/us/core/StructureDefinition/us-core-race",
        "extension": [ {
          "url": "ombCategory",
          "valueCoding": {
            "system": "urn:oid:2.16.840.1.113883.6.238",
            "code": "1002-5",
            "display": "American Indian or Alaska Native",
            "userSelected": true
          }
        }, {
          "url": "text",
          "valueString": "American Indian or Alaska Native"
        } ]
      }, {
        "url": "http://hl7.org/fhir/us/core/StructureDefinition/us-core-ethnicity",
        "extension": [ {
          "url": "ombCategory",
          "valueCoding": {
            "system": "urn:oid:2.16.840.1.113883.6.238",
            "code": "2135-2",
            "display": "Hispanic or Latino",
            "userSelected": true
          }
        }, {
          "url": "text",
          "valueString": "Hispanic or Latino"
        } ]
      } ],
      "identifier": [ {
        "type": {
          "coding": [ {
            "system": "http://terminology.hl7.org/CodeSystem/v2-0203",
            "code": "MR"
          } ]
        },
        "system": "https://bonnie-fhir.healthit.gov/",
        "value": "633b3f9e0968f80122503cd0"
      } ],
      "active": true,
      "name": [ {
        "use": "usual",
        "family": "DENOMPass",
        "given": [ "AssPrfDELRsltDtTimeEQIPEnd" ]
      } ],
      "gender": "female",
      "birthDate": "2005-02-01"
    },
    "request": {
      "method": "PUT",
      "url": "Patient/5f354296-62a1-4601-a8ed-05ebc37b13d7"
    }
  }, {
    "fullUrl": "https://madie.cms.gov/Observation/a3fac4ed-ff52-4044-9a77-0936cd190d73",
    "resource": {
      "resourceType": "Observation",
      "id": "a3fac4ed-ff52-4044-9a77-0936cd190d73",
      "meta": {
        "profile": [ "http://hl7.org/fhir/us/qicore/StructureDefinition/qicore-simple-observation" ]
      },
      "status": "final",
      "category": [ {
        "coding": [ {
          "system": "http://terminology.hl7.org/CodeSystem/observation-category",
          "code": "exam",
          "display": "exam",
          "userSelected": true
        } ]
      } ],
      "code": {
        "coding": [ {
          "system": "http://loinc.org",
          "code": "93857-1"
        } ]
      },
      "subject": {
        "reference": "Patient/5f354296-62a1-4601-a8ed-05ebc37b13d7"
      },
      "effectiveDateTime": "2026-02-05T08:15:00.000+00:00",
      "performer": [ {
        "reference": "Organization/example1",
        "display": "Hendricks Country Hospital"
      } ],
      "valueDateTime": "2026-02-05T08:15:00.000+00:00"
    },
    "request": {
      "method": "PUT",
      "url": "Observation/a3fac4ed-ff52-4044-9a77-0936cd190d73"
    }
  }, {
    "fullUrl": "https://madie.cms.gov/Observation/5396f1f7-1402-4fe3-b1eb-06e09579860f",
    "resource": {
      "resourceType": "Observation",
      "id": "5396f1f7-1402-4fe3-b1eb-06e09579860f",
      "meta": {
        "profile": [ "http://hl7.org/fhir/us/qicore/StructureDefinition/qicore-simple-observation" ]
      },
      "status": "final",
      "category": [ {
        "coding": [ {
          "system": "http://terminology.hl7.org/CodeSystem/observation-category",
          "code": "exam",
          "display": "exam",
          "userSelected": true
        } ]
      } ],
      "code": {
        "coding": [ {
          "system": "http://loinc.org",
          "code": "11778-8"
        } ]
      },
      "subject": {
        "reference": "Patient/5f354296-62a1-4601-a8ed-05ebc37b13d7"
      },
      "effectiveDateTime": "2026-02-01T08:00:00.000+00:00",
      "performer": [ {
        "reference": "Organization/example1",
        "display": "Hendricks Country Hospital"
      } ],
      "valueDateTime": "2026-02-01T08:00:00.000+00:00"
    },
    "request": {
      "method": "PUT",
      "url": "Observation/5396f1f7-1402-4fe3-b1eb-06e09579860f"
    }
  }, {
    "fullUrl": "https://madie.cms.gov/Encounter/ceb19d05-91c8-4385-8448-961a53302084",
    "resource": {
      "resourceType": "Encounter",
      "id": "ceb19d05-91c8-4385-8448-961a53302084",
      "meta": {
        "profile": [ "http://hl7.org/fhir/us/qicore/StructureDefinition/qicore-encounter" ]
      },
      "status": "finished",
      "class": {
        "system": "http://terminology.hl7.org/CodeSystem/v3-ActCode",
        "code": "IMP",
        "display": "inpatient encounter"
      },
      "type": [ {
        "coding": [ {
          "system": "http://snomed.info/sct",
          "code": "183452005"
        } ]
      } ],
      "subject": {
        "reference": "Patient/5f354296-62a1-4601-a8ed-05ebc37b13d7"
      },
      "period": {
        "start": "2026-02-01T08:00:00.000+00:00",
        "end": "2026-02-05T08:15:00.000+00:00"
      }
    },
    "request": {
      "method": "PUT",
      "url": "Encounter/ceb19d05-91c8-4385-8448-961a53302084"
    }
  }, {
    "fullUrl": "https://madie.cms.gov/Procedure/2dd7c5d5-4760-4f8e-8406-b834864f2d20",
    "resource": {
      "resourceType": "Procedure",
      "id": "2dd7c5d5-4760-4f8e-8406-b834864f2d20",
      "meta": {
        "profile": [ "http://hl7.org/fhir/us/qicore/StructureDefinition/qicore-procedure" ]
      },
      "extension": [ {
        "url": "http://hl7.org/fhir/us/qicore/StructureDefinition/qicore-recorded",
        "valueDateTime": "2014-04-05T13:35:00.000+00:00"
      } ],
      "status": "completed",
      "code": {
        "coding": [ {
          "system": "http://snomed.info/sct",
          "code": "10745001"
        } ]
      },
      "subject": {
        "reference": "Patient/5f354296-62a1-4601-a8ed-05ebc37b13d7"
      },
      "performedPeriod": {
        "start": "2026-02-01T08:00:00.000+00:00",
        "end": "2026-02-05T08:15:00.000+00:00"
      }
    },
    "request": {
      "method": "PUT",
      "url": "Procedure/2dd7c5d5-4760-4f8e-8406-b834864f2d20"
    }
  }, {
    "fullUrl": "https://madie.cms.gov/Coverage/f0a72328-c958-411b-ad1a-610484c9c88f",
    "resource": {
      "resourceType": "Coverage",
      "id": "f0a72328-c958-411b-ad1a-610484c9c88f",
      "meta": {
        "profile": [ "http://hl7.org/fhir/us/qicore/StructureDefinition/qicore-coverage" ]
      },
      "status": "active",
      "subscriberId": "523435",
      "beneficiary": {
        "reference": "Patient/5f354296-62a1-4601-a8ed-05ebc37b13d7"
      },
      "relationship": {
        "coding": [ {
          "system": "http://terminology.hl7.org/CodeSystem/subscriber-relationship",
          "code": "self"
        } ]
      },
      "payor": [ {
        "reference": "Organization/6f970c42-f263-4e6d-8418-5e5be8598d2d"
      } ]
    },
    "request": {
      "method": "PUT",
      "url": "Coverage/f0a72328-c958-411b-ad1a-610484c9c88f"
    }
  }, {
    "fullUrl": "https://madie.cms.gov/Organization/6f970c42-f263-4e6d-8418-5e5be8598d2d",
    "resource": {
      "resourceType": "Organization",
      "id": "6f970c42-f263-4e6d-8418-5e5be8598d2d",
      "meta": {
        "profile": [ "http://hl7.org/fhir/us/qicore/StructureDefinition/qicore-organization" ]
      },
      "identifier": [ {
        "use": "temp",
        "system": "urn:oid:2.16.840.1.113883.4.4",
        "value": "21-3259825"
      } ],
      "active": true,
      "type": [ {
        "coding": [ {
          "system": "http://terminology.hl7.org/CodeSystem/organization-type",
          "code": "pay",
          "display": "Payer"
        } ]
      } ],
      "name": "Blue Cross Blue Shield of Texas",
      "telecom": [ {
        "system": "phone",
        "value": "(+1) 972-766-6900"
      } ],
      "address": [ {
        "use": "billing",
        "type": "postal",
        "line": [ "P.O. Box 660044" ],
        "city": "Dallas",
        "state": "TX",
        "postalCode": "75266-0044",
        "country": "USA"
      } ]
    },
    "request": {
      "method": "PUT",
      "url": "Organization/6f970c42-f263-4e6d-8418-5e5be8598d2d"
    }
  }, {
    "fullUrl": "https://madie.cms.gov/Practitioner/8868f048-3a8d-4287-9a0d-6b9258b25a74",
    "resource": {
      "resourceType": "Practitioner",
      "id": "8868f048-3a8d-4287-9a0d-6b9258b25a74",
      "meta": {
        "profile": [ "http://hl7.org/fhir/us/qicore/StructureDefinition/qicore-practitioner" ]
      },
      "identifier": [ {
        "system": "http://hl7.org/fhir/sid/us-npi",
        "value": "1234567890"
      } ],
      "name": [ {
        "family": "Evil",
        "prefix": [ "Dr" ]
      } ]
    },
    "request": {
      "method": "PUT",
      "url": "Practitioner/8868f048-3a8d-4287-9a0d-6b9258b25a74"
    }
  }, {
    "fullUrl": "https://madie.cms.gov/MeasureReport/ee3d30a3-ff46-40a9-811b-21dd750ae8d6",
    "resource": {
      "resourceType": "MeasureReport",
      "id": "ee3d30a3-ff46-40a9-811b-21dd750ae8d6",
      "meta": {
        "profile": [ "http://hl7.org/fhir/us/cqfmeasures/StructureDefinition/test-case-cqfm" ]
      },
      "contained": [ {
        "resourceType": "Parameters",
        "id": "a51bf016-5fc5-4be4-bf2a-2ec35a1f0432-parameters",
        "parameter": [ {
          "name": "subject",
          "valueString": "5f354296-62a1-4601-a8ed-05ebc37b13d7"
        } ]
      } ],
      "extension": [ {
        "url": "http://hl7.org/fhir/StructureDefinition/cqf-inputParameters",
        "valueReference": {
          "reference": "#a51bf016-5fc5-4be4-bf2a-2ec35a1f0432-parameters"
        }
      }, {
        "url": "http://hl7.org/fhir/us/cqfmeasures/StructureDefinition/cqfm-testCaseDescription",
        "valueMarkdown": "Result date/Time of delivery (based on assessment performed) is equal to encounter end.\n"
      } ],
      "modifierExtension": [ {
        "url": "http://hl7.org/fhir/us/cqfmeasures/StructureDefinition/cqfm-isTestCase",
        "valueBoolean": true
      } ],
      "status": "complete",
      "type": "individual",
      "measure": "https://madie.cms.gov/Measure/CMS1028FHIRPCSevereOBComps",
      "period": {
        "start": "2026-01-01",
        "end": "2026-12-31"
      },
      "group": [ {
        "id": "Group_1",
        "population": [ {
          "id": "InitialPopulation_1",
          "code": {
            "coding": [ {
              "system": "http://terminology.hl7.org/CodeSystem/measure-population",
              "code": "initial-population",
              "display": "Initial Population"
            } ]
          },
          "count": 1
        }, {
          "id": "Denominator_1",
          "code": {
            "coding": [ {
              "system": "http://terminology.hl7.org/CodeSystem/measure-population",
              "code": "denominator",
              "display": "Denominator"
            } ]
          },
          "count": 1
        }, {
          "id": "Numerator_1",
          "code": {
            "coding": [ {
              "system": "http://terminology.hl7.org/CodeSystem/measure-population",
              "code": "numerator",
              "display": "Numerator"
            } ]
          },
          "count": 0
        }, {
          "id": "NumeratorExclusion_1",
          "code": {
            "coding": [ {
              "system": "http://terminology.hl7.org/CodeSystem/measure-population",
              "code": "numerator-exclusion",
              "display": "Numerator Exclusion"
            } ]
          },
          "count": 0
        } ],
        "measureScore": {
          "value": 0.0
        }
      }, {
        "id": "Group_2",
        "population": [ {
          "id": "InitialPopulation_2",
          "code": {
            "coding": [ {
              "system": "http://terminology.hl7.org/CodeSystem/measure-population",
              "code": "initial-population",
              "display": "Initial Population"
            } ]
          },
          "count": 1
        }, {
          "id": "Denominator_2",
          "code": {
            "coding": [ {
              "system": "http://terminology.hl7.org/CodeSystem/measure-population",
              "code": "denominator",
              "display": "Denominator"
            } ]
          },
          "count": 1
        }, {
          "id": "Numerator_2",
          "code": {
            "coding": [ {
              "system": "http://terminology.hl7.org/CodeSystem/measure-population",
              "code": "numerator",
              "display": "Numerator"
            } ]
          },
          "count": 0
        }, {
          "id": "NumeratorExclusion_2",
          "code": {
            "coding": [ {
              "system": "http://terminology.hl7.org/CodeSystem/measure-population",
              "code": "numerator-exclusion",
              "display": "Numerator Exclusion"
            } ]
          },
          "count": 0
        } ],
        "measureScore": {
          "value": 0.0
        }
      } ],
      "evaluatedResource": [ {
        "reference": "Patient/5f354296-62a1-4601-a8ed-05ebc37b13d7"
      }, {
        "reference": "Observation/a3fac4ed-ff52-4044-9a77-0936cd190d73"
      }, {
        "reference": "Observation/5396f1f7-1402-4fe3-b1eb-06e09579860f"
      }, {
        "reference": "Encounter/ceb19d05-91c8-4385-8448-961a53302084"
      }, {
        "reference": "Procedure/2dd7c5d5-4760-4f8e-8406-b834864f2d20"
      }, {
        "reference": "Coverage/f0a72328-c958-411b-ad1a-610484c9c88f"
      }, {
        "reference": "Organization/6f970c42-f263-4e6d-8418-5e5be8598d2d"
      }, {
        "reference": "Practitioner/8868f048-3a8d-4287-9a0d-6b9258b25a74"
      } ]
    },
    "request": {
      "method": "PUT",
      "url": "MeasureReport/ee3d30a3-ff46-40a9-811b-21dd750ae8d6"
    }
  } ]
}