{
  "resourceType": "Bundle",
  "id": "661579e3db207d74c03b8a54",
  "type": "transaction",
  "entry": [ {
    "fullUrl": "https://madie.cms.gov/Patient/5ae9589c-1301-45a0-af30-ac7b679b649f",
    "resource": {
      "resourceType": "Patient",
      "id": "5ae9589c-1301-45a0-af30-ac7b679b649f",
      "meta": {
        "profile": [ "http://hl7.org/fhir/us/qicore/StructureDefinition/qicore-patient" ]
      },
      "extension": [ {
        "url": "http://hl7.org/fhir/us/core/StructureDefinition/us-core-race",
        "extension": [ {
          "url": "ombCategory",
          "valueCoding": {
            "system": "urn:oid:2.16.840.1.113883.6.238",
            "code": "2076-8",
            "display": "Native Hawaiian or Other Pacific Islander",
            "userSelected": true
          }
        }, {
          "url": "text",
          "valueString": "Native Hawaiian or Other Pacific Islander"
        } ]
      }, {
        "url": "http://hl7.org/fhir/us/core/StructureDefinition/us-core-ethnicity",
        "extension": [ {
          "url": "ombCategory",
          "valueCoding": {
            "system": "urn:oid:2.16.840.1.113883.6.238",
            "code": "2186-5",
            "display": "Not Hispanic or Latino",
            "userSelected": true
          }
        }, {
          "url": "text",
          "valueString": "Not Hispanic or Latino"
        } ]
      }, {
        "url": "http://hl7.org/fhir/us/core/StructureDefinition/us-core-sex",
        "valueCode": "248152002"
      } ],
      "identifier": [ {
        "type": {
          "coding": [ {
            "system": "http://terminology.hl7.org/CodeSystem/v2-0203",
            "code": "MR"
          } ]
        },
        "system": "https://bonnie-fhir.healthit.gov/",
        "value": "661579e3db207d74c03b8a54"
      } ],
      "name": [ {
        "family": "NUMERStrat2Pass",
        "given": [ "TimeToTx61Min" ]
      } ],
      "gender": "female",
      "birthDate": "2008-12-31"
    },
    "request": {
      "method": "PUT",
      "url": "Patient/5ae9589c-1301-45a0-af30-ac7b679b649f"
    }
  }, {
    "fullUrl": "https://madie.cms.gov/Encounter/eae21eaa-6949-42a1-8c7a-e22739780dde",
    "resource": {
      "resourceType": "Encounter",
      "id": "eae21eaa-6949-42a1-8c7a-e22739780dde",
      "meta": {
        "profile": [ "http://hl7.org/fhir/us/qicore/StructureDefinition/qicore-encounter" ]
      },
      "status": "finished",
      "class": {
        "system": "http://terminology.hl7.org/CodeSystem/v3-ActCode",
        "code": "EMER",
        "display": "emergency"
      },
      "type": [ {
        "coding": [ {
          "system": "http://snomed.info/sct",
          "version": "2023-09",
          "code": "4525004",
          "display": "Emergency department patient visit (procedure)",
          "userSelected": true
        } ]
      } ],
      "subject": {
        "reference": "Patient/5ae9589c-1301-45a0-af30-ac7b679b649f"
      },
      "period": {
        "start": "2027-05-01T08:00:00.000+00:00",
        "end": "2027-05-01T12:15:00.000+00:00"
      },
      "diagnosis": [ {
        "condition": {
          "reference": "Condition/85c4d85b-bbc7-4a27-b31c-4b8578dc4f80"
        },
        "use": {
          "coding": [ {
            "system": "http://terminology.hl7.org/CodeSystem/diagnosis-role",
            "code": "billing"
          } ]
        },
        "rank": 1
      } ],
      "location": [ {
        "location": {
          "reference": "Location/ee42d9ce-5c12-4f9c-ba90-5d70c2aefb73"
        },
        "period": {
          "start": "2027-05-01T07:45:00.000+00:00",
          "end": "2027-05-01T12:15:00.000+00:00"
        }
      }, {
        "location": {
          "reference": "Location/bbed155a-2304-4196-8cdf-61fa2c6b9ab3"
        },
        "period": {
          "start": "2027-05-01T09:01:00.000+00:00",
          "end": "2027-05-01T12:15:00.000+00:00"
        }
      } ]
    },
    "request": {
      "method": "PUT",
      "url": "Encounter/eae21eaa-6949-42a1-8c7a-e22739780dde"
    }
  }, {
    "fullUrl": "https://madie.cms.gov/Location/ee42d9ce-5c12-4f9c-ba90-5d70c2aefb73",
    "resource": {
      "resourceType": "Location",
      "id": "ee42d9ce-5c12-4f9c-ba90-5d70c2aefb73",
      "meta": {
        "profile": [ "http://hl7.org/fhir/us/qicore/StructureDefinition/qicore-location" ]
      },
      "identifier": [ {
        "use": "usual",
        "system": "http://exampleoflocation.com",
        "value": "B1-S.F1"
      } ],
      "name": "Emergency Department",
      "type": [ {
        "coding": [ {
          "system": "https://www.cdc.gov/nhsn/cdaportal/terminology/codesystem/hsloc.html",
          "version": "2022",
          "code": "1108-0",
          "display": "Emergency Department",
          "userSelected": true
        } ]
      } ]
    },
    "request": {
      "method": "PUT",
      "url": "Location/ee42d9ce-5c12-4f9c-ba90-5d70c2aefb73"
    }
  }, {
    "fullUrl": "https://madie.cms.gov/Location/bbed155a-2304-4196-8cdf-61fa2c6b9ab3",
    "resource": {
      "resourceType": "Location",
      "id": "bbed155a-2304-4196-8cdf-61fa2c6b9ab3",
      "meta": {
        "profile": [ "http://hl7.org/fhir/us/qicore/StructureDefinition/qicore-location" ]
      },
      "identifier": [ {
        "use": "usual",
        "system": "http://exampleoflocation.com",
        "value": "B1-S.F2"
      } ],
      "name": "Emergency Department",
      "type": [ {
        "coding": [ {
          "system": "https://www.cdc.gov/nhsn/cdaportal/terminology/codesystem/hsloc.html",
          "version": "2022",
          "code": "1209-6",
          "display": "Treatment Room",
          "userSelected": true
        } ]
      } ]
    },
    "request": {
      "method": "PUT",
      "url": "Location/bbed155a-2304-4196-8cdf-61fa2c6b9ab3"
    }
  }, {
    "fullUrl": "https://madie.cms.gov/Condition/85c4d85b-bbc7-4a27-b31c-4b8578dc4f80",
    "resource": {
      "resourceType": "Condition",
      "id": "85c4d85b-bbc7-4a27-b31c-4b8578dc4f80",
      "meta": {
        "profile": [ "http://hl7.org/fhir/us/qicore/StructureDefinition/qicore-condition-encounter-diagnosis" ]
      },
      "category": [ {
        "coding": [ {
          "system": "http://terminology.hl7.org/CodeSystem/condition-category",
          "code": "encounter-diagnosis",
          "display": "Encounter Diagnosis"
        } ]
      } ],
      "code": {
        "coding": [ {
          "system": "http://snomed.info/sct",
          "version": "2023-09",
          "code": "10660471000119109",
          "display": "Ulcer of left foot due to type 2 diabetes mellitus (disorder)",
          "userSelected": true
        } ]
      },
      "subject": {
        "reference": "Patient/5ae9589c-1301-45a0-af30-ac7b679b649f"
      },
      "recordedDate": "2027-05-01T08:00:00.000+00:00"
    },
    "request": {
      "method": "PUT",
      "url": "Condition/85c4d85b-bbc7-4a27-b31c-4b8578dc4f80"
    }
  }, {
    "fullUrl": "https://madie.cms.gov/Location/ff134872-69a7-43d0-94a5-eb23d2aa3438",
    "resource": {
      "resourceType": "Location",
      "id": "ff134872-69a7-43d0-94a5-eb23d2aa3438",
      "meta": {
        "profile": [ "http://hl7.org/fhir/us/qicore/StructureDefinition/qicore-location" ]
      },
      "identifier": [ {
        "use": "usual",
        "system": "http://exampleoflocation.com",
        "value": "B1-S.F1"
      } ],
      "name": "Medical Surgical East, first floor",
      "type": [ {
        "coding": [ {
          "system": "https://www.cdc.gov/nhsn/cdaportal/terminology/codesystem/hsloc.html",
          "version": "2022",
          "code": "1108-0",
          "display": "Emergency Department",
          "userSelected": true
        } ]
      } ]
    },
    "request": {
      "method": "PUT",
      "url": "Location/ff134872-69a7-43d0-94a5-eb23d2aa3438"
    }
  }, {
    "fullUrl": "https://madie.cms.gov/Location/08c02665-5a4b-44e7-999e-c68d36a8f093",
    "resource": {
      "resourceType": "Location",
      "id": "08c02665-5a4b-44e7-999e-c68d36a8f093",
      "meta": {
        "profile": [ "http://hl7.org/fhir/us/qicore/StructureDefinition/qicore-location" ]
      },
      "identifier": [ {
        "use": "usual",
        "system": "http://exampleoflocation.com",
        "value": "B1-S.F2"
      } ],
      "name": "Emergency Department",
      "type": [ {
        "coding": [ {
          "system": "https://www.cdc.gov/nhsn/cdaportal/terminology/codesystem/hsloc.html",
          "version": "2022",
          "code": "1209-6",
          "display": "Treatment Room",
          "userSelected": true
        } ]
      } ]
    },
    "request": {
      "method": "PUT",
      "url": "Location/08c02665-5a4b-44e7-999e-c68d36a8f093"
    }
  }, {
    "fullUrl": "https://madie.cms.gov/claim/ClaimBehavior-NotSubsAbuse",
    "resource": {
      "resourceType": "Claim",
      "id": "ClaimBehavior-NotSubsAbuse",
      "meta": {
        "profile": [ "http://hl7.org/fhir/us/qicore/StructureDefinition/qicore-claim" ]
      },
      "status": "active",
      "type": {
        "coding": [ {
          "system": "http://terminology.hl7.org/CodeSystem/claim-type",
          "code": "institutional"
        } ]
      },
      "use": "claim",
      "patient": {
        "reference": "Patient/5ae9589c-1301-45a0-af30-ac7b679b649f"
      },
      "created": "2027-05-01",
      "provider": {
        "reference": "Practitioner/practitioner-123456"
      },
      "priority": {
        "coding": [ {
          "system": "http://terminology.hl7.org/CodeSystem/processpriority",
          "code": "normal"
        } ]
      },
      "diagnosis": [ {
        "sequence": 1,
        "diagnosisReference": {
          "reference": "Condition/85c4d85b-bbc7-4a27-b31c-4b8578dc4f80"
        },
        "type": [ {
          "coding": [ {
            "system": "http://terminology.hl7.org/CodeSystem/ex-diagnosistype",
            "code": "principal"
          } ]
        } ]
      } ],
      "insurance": [ {
        "sequence": 1,
        "focal": true,
        "coverage": {
          "reference": "Coverage/1"
        }
      } ],
      "item": [ {
        "sequence": 1,
        "diagnosisSequence": [ 1 ],
        "productOrService": {
          "coding": [ {
            "system": "http://terminology.hl7.org/CodeSystem/ex-USCLS",
            "code": "99555"
          } ]
        },
        "encounter": [ {
          "reference": "Encounter/eae21eaa-6949-42a1-8c7a-e22739780dde"
        } ]
      } ]
    },
    "request": {
      "method": "PUT",
      "url": "Claim/ClaimBehavior-NotSubsAbuse"
    }
  }, {
    "fullUrl": "https://madie.cms.gov/Coverage/dd523c3b-38c3-4397-9073-51e93f2e5fe8",
    "resource": {
      "resourceType": "Coverage",
      "id": "dd523c3b-38c3-4397-9073-51e93f2e5fe8",
      "meta": {
        "profile": [ "http://hl7.org/fhir/us/qicore/StructureDefinition/qicore-coverage" ]
      },
      "identifier": [ {
        "type": {
          "coding": [ {
            "system": "http://terminology.hl7.org/CodeSystem/v2-0203",
            "code": "MB"
          } ]
        }
      } ],
      "status": "active",
      "beneficiary": {
        "reference": "Patient/5ae9589c-1301-45a0-af30-ac7b679b649f"
      },
      "relationship": {
        "coding": [ {
          "system": "http://terminology.hl7.org/CodeSystem/subscriber-relationship",
          "code": "self"
        } ]
      },
      "payor": [ {
        "reference": "Organization/54e07508-fd5b-4da0-8129-313d187c4437"
      } ]
    },
    "request": {
      "method": "PUT",
      "url": "Coverage/dd523c3b-38c3-4397-9073-51e93f2e5fe8"
    }
  }, {
    "fullUrl": "https://madie.cms.gov/Organization/54e07508-fd5b-4da0-8129-313d187c4437",
    "resource": {
      "resourceType": "Organization",
      "id": "54e07508-fd5b-4da0-8129-313d187c4437",
      "meta": {
        "profile": [ "http://hl7.org/fhir/us/qicore/StructureDefinition/qicore-organization" ]
      },
      "identifier": [ {
        "use": "temp",
        "system": "urn:oid:2.16.840.1.113883.4.4",
        "value": "21-3259825"
      } ],
      "active": true,
      "type": [ {
        "coding": [ {
          "system": "http://terminology.hl7.org/CodeSystem/organization-type",
          "code": "pay",
          "display": "Payer"
        } ]
      } ],
      "name": "Blue Cross Blue Shield of Texas",
      "telecom": [ {
        "system": "phone",
        "value": "(+1) 972-766-6900"
      } ],
      "address": [ {
        "use": "billing",
        "type": "postal",
        "line": [ "P.O. Box 660044" ],
        "city": "Dallas",
        "state": "TX",
        "postalCode": "75266-0044",
        "country": "USA"
      } ]
    },
    "request": {
      "method": "PUT",
      "url": "Organization/54e07508-fd5b-4da0-8129-313d187c4437"
    }
  }, {
    "fullUrl": "https://madie.cms.gov/Practitioner/5cefcea6-13d2-4edf-b676-946da635fbb7",
    "resource": {
      "resourceType": "Practitioner",
      "id": "5cefcea6-13d2-4edf-b676-946da635fbb7",
      "meta": {
        "profile": [ "http://hl7.org/fhir/us/qicore/StructureDefinition/qicore-practitioner" ]
      },
      "identifier": [ {
        "system": "http://hl7.org/fhir/sid/us-npi",
        "value": "9999999896"
      } ],
      "name": [ {
        "family": "Evil",
        "prefix": [ "Dr" ]
      } ]
    },
    "request": {
      "method": "PUT",
      "url": "Practitioner/5cefcea6-13d2-4edf-b676-946da635fbb7"
    }
  }, {
    "fullUrl": "https://madie.cms.gov/MeasureReport/9f7e1750-ebca-4be4-baed-625c1edae5b9",
    "resource": {
      "resourceType": "MeasureReport",
      "id": "9f7e1750-ebca-4be4-baed-625c1edae5b9",
      "meta": {
        "profile": [ "http://hl7.org/fhir/us/cqfmeasures/StructureDefinition/test-case-cqfm" ]
      },
      "contained": [ {
        "resourceType": "Parameters",
        "id": "ff49e176-c75c-4927-8ba6-da6b1fb50eb1-parameters",
        "parameter": [ {
          "name": "subject",
          "valueString": "5ae9589c-1301-45a0-af30-ac7b679b649f"
        } ]
      } ],
      "extension": [ {
        "url": "http://hl7.org/fhir/StructureDefinition/cqf-inputParameters",
        "valueReference": {
          "reference": "#ff49e176-c75c-4927-8ba6-da6b1fb50eb1-parameters"
        }
      }, {
        "url": "http://hl7.org/fhir/us/cqfmeasures/StructureDefinition/cqfm-testCaseDescription",
        "valueMarkdown": "Adult, age 18, Encounter first day of MP, time to treatment 61 minutes, no mental illness"
      } ],
      "modifierExtension": [ {
        "url": "http://hl7.org/fhir/us/cqfmeasures/StructureDefinition/cqfm-isTestCase",
        "valueBoolean": true
      } ],
      "status": "complete",
      "type": "individual",
      "measure": "https://madie.cms.gov/Measure/CMS1264FHIRECATREHQR",
      "period": {
        "start": "2027-01-01",
        "end": "2027-12-31"
      },
      "group": [ {
        "id": "Group_1",
        "population": [ {
          "id": "InitialPopulation_1",
          "code": {
            "coding": [ {
              "system": "http://terminology.hl7.org/CodeSystem/measure-population",
              "code": "initial-population",
              "display": "Initial Population"
            } ]
          },
          "count": 1
        }, {
          "id": "Denominator_1",
          "code": {
            "coding": [ {
              "system": "http://terminology.hl7.org/CodeSystem/measure-population",
              "code": "denominator",
              "display": "Denominator"
            } ]
          },
          "count": 1
        }, {
          "id": "Numerator_1",
          "code": {
            "coding": [ {
              "system": "http://terminology.hl7.org/CodeSystem/measure-population",
              "code": "numerator",
              "display": "Numerator"
            } ]
          },
          "count": 1
        } ],
        "measureScore": {
          "value": 0.0
        },
        "stratifier": [ {
          "id": "Stratification_1_1",
          "code": [ {
            "text": "Strata-1"
          } ],
          "stratum": [ {
            "value": {
              "text": "Strata-1"
            },
            "population": [ {
              "id": "InitialPopulation_1",
              "code": {
                "coding": [ {
                  "system": "http://terminology.hl7.org/CodeSystem/measure-population",
                  "code": "initial-population",
                  "display": "Initial Population"
                } ]
              },
              "count": 0
            }, {
              "id": "Denominator_1",
              "code": {
                "coding": [ {
                  "system": "http://terminology.hl7.org/CodeSystem/measure-population",
                  "code": "denominator",
                  "display": "Denominator"
                } ]
              },
              "count": 0
            }, {
              "id": "Numerator_1",
              "code": {
                "coding": [ {
                  "system": "http://terminology.hl7.org/CodeSystem/measure-population",
                  "code": "numerator",
                  "display": "Numerator"
                } ]
              },
              "count": 0
            } ]
          } ]
        }, {
          "id": "Stratification_1_2",
          "code": [ {
            "text": "Strata-2"
          } ],
          "stratum": [ {
            "value": {
              "text": "Strata-2"
            },
            "population": [ {
              "id": "InitialPopulation_1",
              "code": {
                "coding": [ {
                  "system": "http://terminology.hl7.org/CodeSystem/measure-population",
                  "code": "initial-population",
                  "display": "Initial Population"
                } ]
              },
              "count": 1
            }, {
              "id": "Denominator_1",
              "code": {
                "coding": [ {
                  "system": "http://terminology.hl7.org/CodeSystem/measure-population",
                  "code": "denominator",
                  "display": "Denominator"
                } ]
              },
              "count": 1
            }, {
              "id": "Numerator_1",
              "code": {
                "coding": [ {
                  "system": "http://terminology.hl7.org/CodeSystem/measure-population",
                  "code": "numerator",
                  "display": "Numerator"
                } ]
              },
              "count": 1
            } ]
          } ]
        }, {
          "id": "Stratification_1_3",
          "code": [ {
            "text": "Strata-3"
          } ],
          "stratum": [ {
            "value": {
              "text": "Strata-3"
            },
            "population": [ {
              "id": "InitialPopulation_1",
              "code": {
                "coding": [ {
                  "system": "http://terminology.hl7.org/CodeSystem/measure-population",
                  "code": "initial-population",
                  "display": "Initial Population"
                } ]
              },
              "count": 0
            }, {
              "id": "Denominator_1",
              "code": {
                "coding": [ {
                  "system": "http://terminology.hl7.org/CodeSystem/measure-population",
                  "code": "denominator",
                  "display": "Denominator"
                } ]
              },
              "count": 0
            }, {
              "id": "Numerator_1",
              "code": {
                "coding": [ {
                  "system": "http://terminology.hl7.org/CodeSystem/measure-population",
                  "code": "numerator",
                  "display": "Numerator"
                } ]
              },
              "count": 0
            } ]
          } ]
        }, {
          "id": "Stratification_1_4",
          "code": [ {
            "text": "Strata-4"
          } ],
          "stratum": [ {
            "value": {
              "text": "Strata-4"
            },
            "population": [ {
              "id": "InitialPopulation_1",
              "code": {
                "coding": [ {
                  "system": "http://terminology.hl7.org/CodeSystem/measure-population",
                  "code": "initial-population",
                  "display": "Initial Population"
                } ]
              },
              "count": 0
            }, {
              "id": "Denominator_1",
              "code": {
                "coding": [ {
                  "system": "http://terminology.hl7.org/CodeSystem/measure-population",
                  "code": "denominator",
                  "display": "Denominator"
                } ]
              },
              "count": 0
            }, {
              "id": "Numerator_1",
              "code": {
                "coding": [ {
                  "system": "http://terminology.hl7.org/CodeSystem/measure-population",
                  "code": "numerator",
                  "display": "Numerator"
                } ]
              },
              "count": 0
            } ]
          } ]
        } ]
      } ],
      "evaluatedResource": [ {
        "reference": "Patient/5ae9589c-1301-45a0-af30-ac7b679b649f"
      }, {
        "reference": "Encounter/eae21eaa-6949-42a1-8c7a-e22739780dde"
      }, {
        "reference": "Location/ee42d9ce-5c12-4f9c-ba90-5d70c2aefb73"
      }, {
        "reference": "Location/bbed155a-2304-4196-8cdf-61fa2c6b9ab3"
      }, {
        "reference": "Condition/85c4d85b-bbc7-4a27-b31c-4b8578dc4f80"
      }, {
        "reference": "Location/ff134872-69a7-43d0-94a5-eb23d2aa3438"
      }, {
        "reference": "Location/08c02665-5a4b-44e7-999e-c68d36a8f093"
      }, {
        "reference": "Claim/ClaimBehavior-NotSubsAbuse"
      }, {
        "reference": "Coverage/dd523c3b-38c3-4397-9073-51e93f2e5fe8"
      }, {
        "reference": "Organization/54e07508-fd5b-4da0-8129-313d187c4437"
      }, {
        "reference": "Practitioner/5cefcea6-13d2-4edf-b676-946da635fbb7"
      } ]
    },
    "request": {
      "method": "PUT",
      "url": "MeasureReport/9f7e1750-ebca-4be4-baed-625c1edae5b9"
    }
  } ]
}