{
  "resourceType": "Bundle",
  "id": "6109658e98086b538055b9d0",
  "type": "collection",
  "entry": [ {
    "fullUrl": "https://madie.cms.gov/Patient/7263b5ad-e3fe-45af-8775-b827ecfd1c93",
    "resource": {
      "resourceType": "Patient",
      "id": "7263b5ad-e3fe-45af-8775-b827ecfd1c93",
      "meta": {
        "profile": [ "http://hl7.org/fhir/us/qicore/StructureDefinition/qicore-patient" ]
      },
      "extension": [ {
        "url": "http://hl7.org/fhir/us/core/StructureDefinition/us-core-race",
        "extension": [ {
          "url": "ombCategory",
          "valueCoding": {
            "system": "urn:oid:2.16.840.1.113883.6.238",
            "code": "1002-5",
            "display": "American Indian or Alaska Native",
            "userSelected": true
          }
        }, {
          "url": "text",
          "valueString": "American Indian or Alaska Native"
        } ]
      }, {
        "url": "http://hl7.org/fhir/us/core/StructureDefinition/us-core-ethnicity",
        "extension": [ {
          "url": "ombCategory",
          "valueCoding": {
            "system": "urn:oid:2.16.840.1.113883.6.238",
            "code": "2135-2",
            "display": "Hispanic or Latino",
            "userSelected": true
          }
        }, {
          "url": "text",
          "valueString": "Hispanic or Latino"
        } ]
      } ],
      "identifier": [ {
        "type": {
          "coding": [ {
            "system": "http://terminology.hl7.org/CodeSystem/v2-0203",
            "code": "MR"
          } ]
        },
        "system": "https://bonnie-fhir.healthit.gov/",
        "value": "6109658e98086b538055b9d0"
      } ],
      "active": true,
      "name": [ {
        "use": "usual",
        "family": "NUMERFail",
        "given": [ "OpticDiscExmB4EncEdge" ]
      } ],
      "gender": "female",
      "birthDate": "1948-09-18"
    }
  }, {
    "fullUrl": "https://madie.cms.gov/Condition/24f051e4-4e57-4e9a-ae3e-f72e3f80335b",
    "resource": {
      "resourceType": "Condition",
      "id": "24f051e4-4e57-4e9a-ae3e-f72e3f80335b",
      "meta": {
        "profile": [ "http://hl7.org/fhir/us/qicore/StructureDefinition/qicore-condition-problems-health-concerns" ]
      },
      "clinicalStatus": {
        "coding": [ {
          "system": "http://terminology.hl7.org/CodeSystem/condition-clinical",
          "code": "active",
          "display": "active",
          "userSelected": true
        } ]
      },
      "category": [ {
        "coding": [ {
          "system": "http://terminology.hl7.org/CodeSystem/condition-category",
          "code": "problem-list-item",
          "display": "Problem List Item",
          "userSelected": true
        } ]
      } ],
      "code": {
        "coding": [ {
          "system": "http://hl7.org/fhir/sid/icd-10-cm",
          "code": "H40.10X0"
        } ]
      },
      "subject": {
        "reference": "Patient/7263b5ad-e3fe-45af-8775-b827ecfd1c93"
      },
      "onsetDateTime": "2016-06-15T07:00:00.000+00:00"
    }
  }, {
    "fullUrl": "https://madie.cms.gov/Observation/80794d95-4322-4c21-aa58-883e016f863a",
    "resource": {
      "resourceType": "Observation",
      "id": "80794d95-4322-4c21-aa58-883e016f863a",
      "meta": {
        "profile": [ "http://hl7.org/fhir/us/qicore/StructureDefinition/qicore-observation-clinical-result" ]
      },
      "status": "final",
      "category": [ {
        "coding": [ {
          "system": "http://terminology.hl7.org/CodeSystem/observation-category",
          "code": "laboratory",
          "display": "laboratory",
          "userSelected": true
        } ]
      }, {
        "coding": [ {
          "system": "http://terminology.hl7.org/CodeSystem/observation-category",
          "code": "survey"
        } ]
      } ],
      "code": {
        "coding": [ {
          "system": "http://loinc.org",
          "version": "2.73",
          "code": "71486-5"
        } ]
      },
      "subject": {
        "reference": "Patient/7263b5ad-e3fe-45af-8775-b827ecfd1c93"
      },
      "effectiveDateTime": "2026-01-22T08:00:00.000+00:00",
      "valueString": "Optic disc neural rim asymmetry of the two eyes consistent with loss of neural tissue"
    }
  }, {
    "fullUrl": "https://madie.cms.gov/Observation/7c5484e8-d4f9-4778-9dd4-4d592a7e11cc",
    "resource": {
      "resourceType": "Observation",
      "id": "7c5484e8-d4f9-4778-9dd4-4d592a7e11cc",
      "meta": {
        "profile": [ "http://hl7.org/fhir/us/qicore/StructureDefinition/qicore-observation-clinical-result" ]
      },
      "status": "final",
      "category": [ {
        "coding": [ {
          "system": "http://terminology.hl7.org/CodeSystem/observation-category",
          "code": "laboratory",
          "display": "laboratory",
          "userSelected": true
        } ]
      }, {
        "coding": [ {
          "system": "http://terminology.hl7.org/CodeSystem/observation-category",
          "code": "survey"
        } ]
      } ],
      "code": {
        "coding": [ {
          "system": "http://loinc.org",
          "version": "2.73",
          "code": "71486-5",
          "display": "Left eye Optic disc or retinal nerve fiber layer structural abnormalities by Ophthalmoscopy"
        } ]
      },
      "subject": {
        "reference": "Patient/7263b5ad-e3fe-45af-8775-b827ecfd1c93"
      },
      "effectiveDateTime": "2026-01-26T07:59:00.000+00:00",
      "valueQuantity": {
        "value": 0.7
      }
    }
  }, {
    "fullUrl": "https://madie.cms.gov/Encounter/eb8f02d2-a381-40ef-8627-ef9fdf822b11",
    "resource": {
      "resourceType": "Encounter",
      "id": "eb8f02d2-a381-40ef-8627-ef9fdf822b11",
      "meta": {
        "profile": [ "http://hl7.org/fhir/us/qicore/StructureDefinition/qicore-encounter" ]
      },
      "status": "finished",
      "class": {
        "system": "http://terminology.hl7.org/CodeSystem/v3-ActCode",
        "code": "AMB",
        "display": "ambulatory",
        "userSelected": true
      },
      "type": [ {
        "coding": [ {
          "system": "http://www.ama-assn.org/go/cpt",
          "version": "2023",
          "code": "99213"
        } ]
      } ],
      "subject": {
        "reference": "Patient/7263b5ad-e3fe-45af-8775-b827ecfd1c93"
      },
      "period": {
        "start": "2026-01-26T08:00:00.000+00:00",
        "end": "2026-01-26T08:00:00.000+00:00"
      },
      "length": {
        "value": 0.0,
        "unit": "days"
      }
    }
  }, {
    "fullUrl": "https://madie.cms.gov/MeasureReport/836aa194-7ca0-4848-88c7-0f9ded5a9fac",
    "resource": {
      "resourceType": "MeasureReport",
      "id": "836aa194-7ca0-4848-88c7-0f9ded5a9fac",
      "meta": {
        "profile": [ "http://hl7.org/fhir/us/cqfmeasures/StructureDefinition/test-case-cqfm" ]
      },
      "contained": [ {
        "resourceType": "Parameters",
        "id": "2961fc38-013f-4777-b7e6-435ea190a064-parameters",
        "parameter": [ {
          "name": "subject",
          "valueString": "7263b5ad-e3fe-45af-8775-b827ecfd1c93"
        } ]
      } ],
      "extension": [ {
        "url": "http://hl7.org/fhir/StructureDefinition/cqf-inputParameters",
        "valueReference": {
          "reference": "#2961fc38-013f-4777-b7e6-435ea190a064-parameters"
        }
      }, {
        "url": "http://hl7.org/fhir/us/cqfmeasures/StructureDefinition/cqfm-testCaseDescription",
        "valueMarkdown": "Required Optic Disc Exam for Patient with POAD Qualifying Encounter occurs before POAD Enc period start by 1 minute"
      } ],
      "modifierExtension": [ {
        "url": "http://hl7.org/fhir/us/cqfmeasures/StructureDefinition/cqfm-isTestCase",
        "valueBoolean": true
      } ],
      "status": "complete",
      "type": "individual",
      "measure": "https://madie.cms.gov/Measure/CMS143FHIRPOAGOpticNerveEval",
      "period": {
        "start": "2026-01-01",
        "end": "2026-12-31"
      },
      "group": [ {
        "id": "Group_1",
        "population": [ {
          "id": "InitialPopulation_1",
          "code": {
            "coding": [ {
              "system": "http://terminology.hl7.org/CodeSystem/measure-population",
              "code": "initial-population",
              "display": "Initial Population"
            } ]
          },
          "count": 1
        }, {
          "id": "Denominator_1",
          "code": {
            "coding": [ {
              "system": "http://terminology.hl7.org/CodeSystem/measure-population",
              "code": "denominator",
              "display": "Denominator"
            } ]
          },
          "count": 1
        }, {
          "id": "Numerator_1",
          "code": {
            "coding": [ {
              "system": "http://terminology.hl7.org/CodeSystem/measure-population",
              "code": "numerator",
              "display": "Numerator"
            } ]
          },
          "count": 0
        }, {
          "id": "DenominatorException_1",
          "code": {
            "coding": [ {
              "system": "http://terminology.hl7.org/CodeSystem/measure-population",
              "code": "denominator-exception",
              "display": "Denominator Exception"
            } ]
          },
          "count": 0
        } ],
        "measureScore": {
          "value": 1.0
        }
      } ],
      "evaluatedResource": [ {
        "reference": "Patient/7263b5ad-e3fe-45af-8775-b827ecfd1c93"
      }, {
        "reference": "Condition/24f051e4-4e57-4e9a-ae3e-f72e3f80335b"
      }, {
        "reference": "Observation/80794d95-4322-4c21-aa58-883e016f863a"
      }, {
        "reference": "Observation/7c5484e8-d4f9-4778-9dd4-4d592a7e11cc"
      }, {
        "reference": "Encounter/eb8f02d2-a381-40ef-8627-ef9fdf822b11"
      } ]
    }
  } ]
}