{
  "resourceType": "Bundle",
  "id": "63487c2e0968f8012254018b",
  "type": "transaction",
  "entry": [ {
    "fullUrl": "https://madie.cms.gov/Patient/61631e28-b3a8-446d-9330-d0f68c78c133",
    "resource": {
      "resourceType": "Patient",
      "id": "61631e28-b3a8-446d-9330-d0f68c78c133",
      "meta": {
        "profile": [ "http://hl7.org/fhir/us/qicore/StructureDefinition/qicore-patient" ]
      },
      "text": {
        "status": "generated",
        "div": "<div xmlns=\"http://www.w3.org/1999/xhtml\"><div class=\"hapiHeaderText\">ReasonCodeOf37Weeks<b>DENOMPASS</b></div><table class=\"hapiPropertyTable\"><tbody><tr><td>Identifier</td><td>26ae2095ae359d33c45002ef417f38a5e4f6a61da3ea75d0332f68a4cb93137e</td></tr><tr><td>Date of birth</td><td><span>14 February 1985</span></td></tr></tbody></table></div>"
      },
      "extension": [ {
        "url": "http://hl7.org/fhir/us/core/StructureDefinition/us-core-race",
        "extension": [ {
          "url": "ombCategory",
          "valueCoding": {
            "system": "urn:oid:2.16.840.1.113883.6.238",
            "code": "1002-5",
            "display": "American Indian or Alaska Native",
            "userSelected": true
          }
        }, {
          "url": "text",
          "valueString": "American Indian or Alaska Native"
        } ]
      }, {
        "url": "http://hl7.org/fhir/us/core/StructureDefinition/us-core-ethnicity",
        "extension": [ {
          "url": "ombCategory",
          "valueCoding": {
            "system": "urn:oid:2.16.840.1.113883.6.238",
            "code": "2135-2",
            "display": "Hispanic or Latino",
            "userSelected": true
          }
        }, {
          "url": "text",
          "valueString": "Hispanic or Latino"
        } ]
      } ],
      "identifier": [ {
        "type": {
          "coding": [ {
            "system": "http://terminology.hl7.org/CodeSystem/v2-0203",
            "code": "MR"
          } ]
        },
        "system": "https://bonnie-fhir.healthit.gov/",
        "value": "63487c2e0968f8012254018b"
      } ],
      "active": true,
      "name": [ {
        "use": "usual",
        "family": "DENOMPass",
        "given": [ "ReasonCodeOf37Weeks" ]
      } ],
      "gender": "female",
      "birthDate": "1998-02-14"
    },
    "request": {
      "method": "PUT",
      "url": "Patient/61631e28-b3a8-446d-9330-d0f68c78c133"
    }
  }, {
    "fullUrl": "https://madie.cms.gov/Observation/675d449b-bb58-4cff-b169-b224ed384b75",
    "resource": {
      "resourceType": "Observation",
      "id": "675d449b-bb58-4cff-b169-b224ed384b75",
      "meta": {
        "profile": [ "http://hl7.org/fhir/us/qicore/StructureDefinition/qicore-simple-observation" ]
      },
      "status": "final",
      "category": [ {
        "coding": [ {
          "system": "http://terminology.hl7.org/CodeSystem/observation-category",
          "code": "exam",
          "display": "exam",
          "userSelected": true
        } ]
      } ],
      "code": {
        "coding": [ {
          "system": "http://loinc.org",
          "code": "11996-6",
          "display": "Pregnancies"
        } ]
      },
      "subject": {
        "reference": "Patient/61631e28-b3a8-446d-9330-d0f68c78c133"
      },
      "effectiveDateTime": "2026-06-08T08:00:00.000+00:00",
      "performer": [ {
        "reference": "Organization/example1",
        "display": "Hendricks Country Hospital"
      } ],
      "valueInteger": 1
    },
    "request": {
      "method": "PUT",
      "url": "Observation/675d449b-bb58-4cff-b169-b224ed384b75"
    }
  }, {
    "fullUrl": "https://madie.cms.gov/Observation/3ae587c5-0185-4751-97ab-ce7ef19830b3",
    "resource": {
      "resourceType": "Observation",
      "id": "3ae587c5-0185-4751-97ab-ce7ef19830b3",
      "meta": {
        "profile": [ "http://hl7.org/fhir/us/qicore/StructureDefinition/qicore-simple-observation" ]
      },
      "status": "final",
      "category": [ {
        "coding": [ {
          "system": "http://terminology.hl7.org/CodeSystem/observation-category",
          "code": "exam",
          "display": "exam",
          "userSelected": true
        } ]
      } ],
      "code": {
        "coding": [ {
          "system": "http://loinc.org",
          "code": "93857-1",
          "display": "Date and time of obstetric delivery"
        } ]
      },
      "subject": {
        "reference": "Patient/61631e28-b3a8-446d-9330-d0f68c78c133"
      },
      "effectiveDateTime": "2026-06-08T20:00:00.000+00:00",
      "performer": [ {
        "reference": "Organization/example1",
        "display": "Hendricks Country Hospital"
      } ],
      "valueDateTime": "2026-06-08T20:00:00.000+00:00"
    },
    "request": {
      "method": "PUT",
      "url": "Observation/3ae587c5-0185-4751-97ab-ce7ef19830b3"
    }
  }, {
    "fullUrl": "https://madie.cms.gov/Encounter/a898c054-6f61-4956-b5b1-a8a8e95531b0",
    "resource": {
      "resourceType": "Encounter",
      "id": "a898c054-6f61-4956-b5b1-a8a8e95531b0",
      "meta": {
        "profile": [ "http://hl7.org/fhir/us/qicore/StructureDefinition/qicore-encounter" ]
      },
      "status": "finished",
      "class": {
        "system": "http://terminology.hl7.org/CodeSystem/v3-ActCode",
        "code": "IMP",
        "display": "inpatient encounter"
      },
      "type": [ {
        "coding": [ {
          "system": "http://snomed.info/sct",
          "code": "8715000"
        } ]
      } ],
      "subject": {
        "reference": "Patient/61631e28-b3a8-446d-9330-d0f68c78c133"
      },
      "period": {
        "start": "2026-06-08T08:00:00.000+00:00",
        "end": "2026-06-10T08:15:00.000+00:00"
      },
      "reasonCode": [ {
        "coding": [ {
          "system": "http://snomed.info/sct",
          "code": "43697006",
          "display": "Gestation period, 37 weeks (finding)"
        } ]
      } ],
      "reasonReference": [ {
        "reference": "Condition/7d470dfd-b649-4757-8784-903427f7fbd0"
      } ]
    },
    "request": {
      "method": "PUT",
      "url": "Encounter/a898c054-6f61-4956-b5b1-a8a8e95531b0"
    }
  }, {
    "fullUrl": "https://madie.cms.gov/Procedure/6426c1a3-8cba-4e07-b10f-aacb5d696520",
    "resource": {
      "resourceType": "Procedure",
      "id": "6426c1a3-8cba-4e07-b10f-aacb5d696520",
      "meta": {
        "profile": [ "http://hl7.org/fhir/us/qicore/StructureDefinition/qicore-procedure" ]
      },
      "extension": [ {
        "url": "http://hl7.org/fhir/us/qicore/StructureDefinition/qicore-recorded",
        "valueDateTime": "2014-04-05T13:35:00.000+00:00"
      } ],
      "status": "completed",
      "code": {
        "coding": [ {
          "system": "http://snomed.info/sct",
          "version": "2022-09",
          "code": "10745001",
          "display": "Delivery of transverse presentation (procedure)",
          "userSelected": true
        } ]
      },
      "subject": {
        "reference": "Patient/61631e28-b3a8-446d-9330-d0f68c78c133"
      },
      "performedPeriod": {
        "start": "2026-06-08T20:00:00.000+00:00",
        "end": "2026-06-10T20:00:00.000+00:00"
      }
    },
    "request": {
      "method": "PUT",
      "url": "Procedure/6426c1a3-8cba-4e07-b10f-aacb5d696520"
    }
  }, {
    "fullUrl": "https://madie.cms.gov/Condition/7d470dfd-b649-4757-8784-903427f7fbd0",
    "resource": {
      "resourceType": "Condition",
      "id": "7d470dfd-b649-4757-8784-903427f7fbd0",
      "meta": {
        "profile": [ "http://hl7.org/fhir/us/qicore/StructureDefinition/qicore-condition-encounter-diagnosis" ]
      },
      "category": [ {
        "coding": [ {
          "system": "http://terminology.hl7.org/CodeSystem/condition-category",
          "code": "encounter-diagnosis",
          "display": "Encounter Diagnosis"
        } ]
      } ],
      "code": {
        "coding": [ {
          "system": "http://snomed.info/sct",
          "version": "2022-09",
          "code": "169826009",
          "display": "Single live birth from singleton pregnancy (finding)",
          "userSelected": true
        } ]
      },
      "subject": {
        "reference": "Patient/61631e28-b3a8-446d-9330-d0f68c78c133"
      },
      "encounter": {
        "reference": "Encounter/a898c054-6f61-4956-b5b1-a8a8e95531b0"
      },
      "recordedDate": "2026-10-17T08:00:00.000+00:00"
    },
    "request": {
      "method": "PUT",
      "url": "Condition/7d470dfd-b649-4757-8784-903427f7fbd0"
    }
  }, {
    "fullUrl": "https://madie.cms.gov/Condition/77d3b418-6add-456b-916c-fa5fc889cb10",
    "resource": {
      "resourceType": "Condition",
      "id": "77d3b418-6add-456b-916c-fa5fc889cb10",
      "meta": {
        "profile": [ "http://hl7.org/fhir/us/qicore/StructureDefinition/qicore-condition-encounter-diagnosis" ]
      },
      "category": [ {
        "coding": [ {
          "system": "http://terminology.hl7.org/CodeSystem/condition-category",
          "code": "encounter-diagnosis",
          "display": "Encounter Diagnosis"
        } ]
      } ],
      "code": {
        "coding": [ {
          "system": "http://snomed.info/sct",
          "version": "2022-09",
          "code": "43697006",
          "display": "Gestation period, 37 weeks (finding)",
          "userSelected": true
        } ]
      },
      "subject": {
        "reference": "Patient/61631e28-b3a8-446d-9330-d0f68c78c133"
      },
      "encounter": {
        "reference": "Encounter/5ca6295db8484628b8de1d45"
      },
      "recordedDate": "2026-10-17T08:00:00.000+00:00"
    },
    "request": {
      "method": "PUT",
      "url": "Condition/77d3b418-6add-456b-916c-fa5fc889cb10"
    }
  }, {
    "fullUrl": "https://madie.cms.gov/Coverage/eb7a9bb1-6c74-43ff-8010-e031690d2292",
    "resource": {
      "resourceType": "Coverage",
      "id": "eb7a9bb1-6c74-43ff-8010-e031690d2292",
      "meta": {
        "profile": [ "http://hl7.org/fhir/us/qicore/StructureDefinition/qicore-coverage" ]
      },
      "status": "active",
      "subscriberId": "523435",
      "beneficiary": {
        "reference": "Patient/61631e28-b3a8-446d-9330-d0f68c78c133"
      },
      "relationship": {
        "coding": [ {
          "system": "http://terminology.hl7.org/CodeSystem/subscriber-relationship",
          "code": "self"
        } ]
      },
      "payor": [ {
        "reference": "Organization/579eb96f-7149-4fb8-81a4-d9df074a0204"
      } ]
    },
    "request": {
      "method": "PUT",
      "url": "Coverage/eb7a9bb1-6c74-43ff-8010-e031690d2292"
    }
  }, {
    "fullUrl": "https://madie.cms.gov/Organization/579eb96f-7149-4fb8-81a4-d9df074a0204",
    "resource": {
      "resourceType": "Organization",
      "id": "579eb96f-7149-4fb8-81a4-d9df074a0204",
      "meta": {
        "profile": [ "http://hl7.org/fhir/us/qicore/StructureDefinition/qicore-organization" ]
      },
      "identifier": [ {
        "use": "temp",
        "system": "urn:oid:2.16.840.1.113883.4.4",
        "value": "21-3259825"
      } ],
      "active": true,
      "type": [ {
        "coding": [ {
          "system": "http://terminology.hl7.org/CodeSystem/organization-type",
          "code": "pay",
          "display": "Payer"
        } ]
      } ],
      "name": "Blue Cross Blue Shield of Texas",
      "telecom": [ {
        "system": "phone",
        "value": "(+1) 972-766-6900"
      } ],
      "address": [ {
        "use": "billing",
        "type": "postal",
        "line": [ "P.O. Box 660044" ],
        "city": "Dallas",
        "state": "TX",
        "postalCode": "75266-0044",
        "country": "USA"
      } ]
    },
    "request": {
      "method": "PUT",
      "url": "Organization/579eb96f-7149-4fb8-81a4-d9df074a0204"
    }
  }, {
    "fullUrl": "https://madie.cms.gov/Practitioner/914c31f8-7fc9-4bd7-bea6-11b4728ddb2b",
    "resource": {
      "resourceType": "Practitioner",
      "id": "914c31f8-7fc9-4bd7-bea6-11b4728ddb2b",
      "meta": {
        "profile": [ "http://hl7.org/fhir/us/qicore/StructureDefinition/qicore-practitioner" ]
      },
      "identifier": [ {
        "system": "http://hl7.org/fhir/sid/us-npi",
        "value": "1234567890"
      } ],
      "name": [ {
        "family": "Evil",
        "prefix": [ "Dr" ]
      } ]
    },
    "request": {
      "method": "PUT",
      "url": "Practitioner/914c31f8-7fc9-4bd7-bea6-11b4728ddb2b"
    }
  }, {
    "fullUrl": "https://madie.cms.gov/MeasureReport/f99ddbdf-b8cb-4fa4-9fe8-01d209f68d62",
    "resource": {
      "resourceType": "MeasureReport",
      "id": "f99ddbdf-b8cb-4fa4-9fe8-01d209f68d62",
      "meta": {
        "profile": [ "http://hl7.org/fhir/us/cqfmeasures/StructureDefinition/test-case-cqfm" ]
      },
      "contained": [ {
        "resourceType": "Parameters",
        "id": "38a29254-4792-49fd-9181-e8969b69696f-parameters",
        "parameter": [ {
          "name": "subject",
          "valueString": "61631e28-b3a8-446d-9330-d0f68c78c133"
        } ]
      } ],
      "extension": [ {
        "url": "http://hl7.org/fhir/StructureDefinition/cqf-inputParameters",
        "valueReference": {
          "reference": "#38a29254-4792-49fd-9181-e8969b69696f-parameters"
        }
      }, {
        "url": "http://hl7.org/fhir/us/cqfmeasures/StructureDefinition/cqfm-testCaseDescription",
        "valueMarkdown": "CGA and EGA are not present.  Based on diagnosis coding, reasonCode of 37 weeks will pass Denom."
      } ],
      "modifierExtension": [ {
        "url": "http://hl7.org/fhir/us/cqfmeasures/StructureDefinition/cqfm-isTestCase",
        "valueBoolean": true
      } ],
      "status": "complete",
      "type": "individual",
      "measure": "https://madie.cms.gov/Measure/CMS0334FHIRPCCesareanBirth",
      "period": {
        "start": "2026-01-01",
        "end": "2026-12-31"
      },
      "group": [ {
        "id": "Group_1",
        "population": [ {
          "id": "InitialPopulation_1",
          "code": {
            "coding": [ {
              "system": "http://terminology.hl7.org/CodeSystem/measure-population",
              "code": "initial-population",
              "display": "Initial Population"
            } ]
          },
          "count": 1
        }, {
          "id": "Denominator_1",
          "code": {
            "coding": [ {
              "system": "http://terminology.hl7.org/CodeSystem/measure-population",
              "code": "denominator",
              "display": "Denominator"
            } ]
          },
          "count": 1
        }, {
          "id": "DenominatorExclusion_1",
          "code": {
            "coding": [ {
              "system": "http://terminology.hl7.org/CodeSystem/measure-population",
              "code": "denominator-exclusion",
              "display": "Denominator Exclusion"
            } ]
          },
          "count": 0
        }, {
          "id": "Numerator_1",
          "code": {
            "coding": [ {
              "system": "http://terminology.hl7.org/CodeSystem/measure-population",
              "code": "numerator",
              "display": "Numerator"
            } ]
          },
          "count": 0
        } ],
        "measureScore": {
          "value": 0.0
        }
      } ],
      "evaluatedResource": [ {
        "reference": "Patient/61631e28-b3a8-446d-9330-d0f68c78c133"
      }, {
        "reference": "Observation/675d449b-bb58-4cff-b169-b224ed384b75"
      }, {
        "reference": "Observation/3ae587c5-0185-4751-97ab-ce7ef19830b3"
      }, {
        "reference": "Encounter/a898c054-6f61-4956-b5b1-a8a8e95531b0"
      }, {
        "reference": "Procedure/6426c1a3-8cba-4e07-b10f-aacb5d696520"
      }, {
        "reference": "Condition/7d470dfd-b649-4757-8784-903427f7fbd0"
      }, {
        "reference": "Condition/77d3b418-6add-456b-916c-fa5fc889cb10"
      }, {
        "reference": "Coverage/eb7a9bb1-6c74-43ff-8010-e031690d2292"
      }, {
        "reference": "Organization/579eb96f-7149-4fb8-81a4-d9df074a0204"
      }, {
        "reference": "Practitioner/914c31f8-7fc9-4bd7-bea6-11b4728ddb2b"
      } ]
    },
    "request": {
      "method": "PUT",
      "url": "MeasureReport/f99ddbdf-b8cb-4fa4-9fe8-01d209f68d62"
    }
  } ]
}