{
  "resourceType": "Bundle",
  "id": "62a8967831a203bdc7237521",
  "type": "collection",
  "entry": [ {
    "fullUrl": "https://madie.cms.gov/Patient/844dab9e-f34d-41dc-bd89-1440551471a6",
    "resource": {
      "resourceType": "Patient",
      "id": "844dab9e-f34d-41dc-bd89-1440551471a6",
      "meta": {
        "profile": [ "http://hl7.org/fhir/us/qicore/StructureDefinition/qicore-patient" ]
      },
      "extension": [ {
        "url": "http://hl7.org/fhir/us/core/StructureDefinition/us-core-race",
        "extension": [ {
          "url": "ombCategory",
          "valueCoding": {
            "system": "urn:oid:2.16.840.1.113883.6.238",
            "code": "2106-3",
            "display": "White"
          }
        }, {
          "url": "text",
          "valueString": "White"
        } ]
      }, {
        "url": "http://hl7.org/fhir/us/core/StructureDefinition/us-core-ethnicity",
        "extension": [ {
          "url": "ombCategory",
          "valueCoding": {
            "system": "urn:oid:2.16.840.1.113883.6.238",
            "code": "2186-5",
            "display": "Not Hispanic or Latino"
          }
        }, {
          "url": "text",
          "valueString": "Not Hispanic or Latino"
        } ]
      }, {
        "url": "http://hl7.org/fhir/us/core/StructureDefinition/us-core-sex",
        "valueCode": "248153007"
      } ],
      "identifier": [ {
        "type": {
          "coding": [ {
            "system": "http://terminology.hl7.org/CodeSystem/v2-0203",
            "code": "MR"
          } ]
        },
        "system": "https://myGoodHealthcare.com/",
        "value": "4851351681610651"
      } ],
      "name": [ {
        "family": "IPPass",
        "given": [ "BPHdxGT6MoB4StartofMP" ]
      } ],
      "gender": "male",
      "birthDate": "1971-06-01"
    }
  }, {
    "fullUrl": "https://madie.cms.gov/Encounter/9ef827e1-7b36-4db6-ba85-ce49d119fca7",
    "resource": {
      "resourceType": "Encounter",
      "id": "9ef827e1-7b36-4db6-ba85-ce49d119fca7",
      "meta": {
        "profile": [ "http://hl7.org/fhir/us/qicore/StructureDefinition/qicore-encounter" ]
      },
      "status": "finished",
      "class": {
        "system": "http://terminology.hl7.org/CodeSystem/v3-ActCode",
        "code": "AMB",
        "display": "ambulatory"
      },
      "type": [ {
        "coding": [ {
          "system": "http://snomed.info/sct",
          "version": "http://snomed.info/sct/731000124108/version/20240301",
          "code": "185463005",
          "display": "Visit out of hours (procedure)"
        } ]
      } ],
      "subject": {
        "reference": "Patient/844dab9e-f34d-41dc-bd89-1440551471a6"
      },
      "period": {
        "start": "2026-02-12T08:00:00.000+00:00",
        "end": "2026-02-12T08:15:00.000+00:00"
      }
    }
  }, {
    "fullUrl": "https://madie.cms.gov/Condition/49554be4-c921-4fda-bf99-fb3493ad1361",
    "resource": {
      "resourceType": "Condition",
      "id": "49554be4-c921-4fda-bf99-fb3493ad1361",
      "meta": {
        "profile": [ "http://hl7.org/fhir/us/qicore/StructureDefinition/qicore-condition-encounter-diagnosis" ]
      },
      "clinicalStatus": {
        "coding": [ {
          "system": "http://terminology.hl7.org/CodeSystem/condition-clinical",
          "code": "active",
          "display": "active"
        } ]
      },
      "verificationStatus": {
        "coding": [ {
          "system": "http://terminology.hl7.org/CodeSystem/condition-ver-status",
          "code": "confirmed",
          "display": "Confirmed"
        } ]
      },
      "category": [ {
        "coding": [ {
          "system": "http://terminology.hl7.org/CodeSystem/condition-category",
          "code": "encounter-diagnosis",
          "display": "Encounter Diagnosis"
        } ]
      } ],
      "code": {
        "coding": [ {
          "system": "http://hl7.org/fhir/sid/icd-10-cm",
          "version": "2024",
          "code": "N40.1",
          "display": "Benign prostatic hyperplasia with lower urinary tract symptoms"
        } ]
      },
      "subject": {
        "reference": "Patient/844dab9e-f34d-41dc-bd89-1440551471a6"
      },
      "onsetPeriod": {
        "start": "2025-01-15T08:00:00.000+00:00"
      }
    }
  }, {
    "fullUrl": "https://madie.cms.gov/Condition/f07b1f6f-98a6-461e-8ab4-ca702957a2d8",
    "resource": {
      "resourceType": "Condition",
      "id": "f07b1f6f-98a6-461e-8ab4-ca702957a2d8",
      "meta": {
        "profile": [ "http://hl7.org/fhir/us/qicore/StructureDefinition/qicore-condition-encounter-diagnosis" ]
      },
      "clinicalStatus": {
        "coding": [ {
          "system": "http://terminology.hl7.org/CodeSystem/condition-clinical",
          "code": "active",
          "display": "active"
        } ]
      },
      "verificationStatus": {
        "coding": [ {
          "system": "http://terminology.hl7.org/CodeSystem/condition-ver-status",
          "code": "confirmed",
          "display": "Confirmed"
        } ]
      },
      "category": [ {
        "coding": [ {
          "system": "http://terminology.hl7.org/CodeSystem/condition-category",
          "code": "encounter-diagnosis",
          "display": "Encounter Diagnosis"
        } ]
      } ],
      "code": {
        "coding": [ {
          "system": "http://hl7.org/fhir/sid/icd-10-cm",
          "version": "2024",
          "code": "N40.1",
          "display": "Benign prostatic hyperplasia with lower urinary tract symptoms"
        } ]
      },
      "subject": {
        "reference": "Patient/844dab9e-f34d-41dc-bd89-1440551471a6"
      },
      "onsetPeriod": {
        "start": "2025-12-12T08:00:00.000+00:00"
      }
    }
  }, {
    "fullUrl": "https://madie.cms.gov/Observation/3344d493-a629-46f3-a563-6265d84d5aa4",
    "resource": {
      "resourceType": "Observation",
      "id": "3344d493-a629-46f3-a563-6265d84d5aa4",
      "meta": {
        "profile": [ "http://hl7.org/fhir/us/qicore/StructureDefinition/qicore-observation-screening-assessment" ]
      },
      "status": "final",
      "category": [ {
        "coding": [ {
          "system": "http://terminology.hl7.org/CodeSystem/observation-category",
          "code": "survey",
          "display": "Survey"
        } ]
      } ],
      "code": {
        "coding": [ {
          "system": "http://loinc.org",
          "version": "2.76",
          "code": "80976-4",
          "display": "International Prostate Symptom Score [IPSS]"
        } ]
      },
      "subject": {
        "reference": "Patient/844dab9e-f34d-41dc-bd89-1440551471a6"
      },
      "effectiveDateTime": "2026-12-11T08:00:00.000+00:00",
      "valueInteger": 5
    }
  }, {
    "fullUrl": "https://madie.cms.gov/Observation/d4436d6c-a658-43e1-a706-7a4482c79535",
    "resource": {
      "resourceType": "Observation",
      "id": "d4436d6c-a658-43e1-a706-7a4482c79535",
      "meta": {
        "profile": [ "http://hl7.org/fhir/us/qicore/StructureDefinition/qicore-observation-screening-assessment" ]
      },
      "status": "final",
      "category": [ {
        "coding": [ {
          "system": "http://terminology.hl7.org/CodeSystem/observation-category",
          "code": "survey",
          "display": "Survey"
        } ]
      } ],
      "code": {
        "coding": [ {
          "system": "http://loinc.org",
          "version": "2.76",
          "code": "80976-4",
          "display": "International Prostate Symptom Score [IPSS]"
        } ]
      },
      "subject": {
        "reference": "Patient/844dab9e-f34d-41dc-bd89-1440551471a6"
      },
      "effectiveDateTime": "2025-12-13T23:59:00.000+00:00",
      "valueInteger": 2
    }
  }, {
    "fullUrl": "https://madie.cms.gov/MeasureReport/126ecdc4-6713-41a0-8ddb-9faab4eb97fd",
    "resource": {
      "resourceType": "MeasureReport",
      "id": "126ecdc4-6713-41a0-8ddb-9faab4eb97fd",
      "meta": {
        "profile": [ "http://hl7.org/fhir/us/cqfmeasures/StructureDefinition/test-case-cqfm" ]
      },
      "contained": [ {
        "resourceType": "Parameters",
        "id": "6321855f-63cc-42bb-ae51-c52ccbbf6831-parameters",
        "parameter": [ {
          "name": "subject",
          "valueString": "844dab9e-f34d-41dc-bd89-1440551471a6"
        } ]
      } ],
      "extension": [ {
        "url": "http://hl7.org/fhir/StructureDefinition/cqf-inputParameters",
        "valueReference": {
          "reference": "#6321855f-63cc-42bb-ae51-c52ccbbf6831-parameters"
        }
      }, {
        "url": "http://hl7.org/fhir/us/cqfmeasures/StructureDefinition/cqfm-testCaseDescription",
        "valueMarkdown": "Male Patient with OV, Initial and Followup USS Assessment and 2 BPH of which earliest GT 6 months before start of MP and one which falls in the 6 month window around the start of the MP. "
      } ],
      "modifierExtension": [ {
        "url": "http://hl7.org/fhir/us/cqfmeasures/StructureDefinition/cqfm-isTestCase",
        "valueBoolean": true
      } ],
      "status": "complete",
      "type": "individual",
      "measure": "https://madie.cms.gov/Measure/CMS771FHIRUrinarySymptomScoreBPH",
      "period": {
        "start": "2026-01-01",
        "end": "2026-12-31"
      },
      "group": [ {
        "id": "Group_1",
        "population": [ {
          "id": "InitialPopulation_1",
          "code": {
            "coding": [ {
              "system": "http://terminology.hl7.org/CodeSystem/measure-population",
              "code": "initial-population",
              "display": "Initial Population"
            } ]
          },
          "count": 1
        }, {
          "id": "Denominator_1",
          "code": {
            "coding": [ {
              "system": "http://terminology.hl7.org/CodeSystem/measure-population",
              "code": "denominator",
              "display": "Denominator"
            } ]
          },
          "count": 1
        }, {
          "id": "DenominatorExclusion_1",
          "code": {
            "coding": [ {
              "system": "http://terminology.hl7.org/CodeSystem/measure-population",
              "code": "denominator-exclusion",
              "display": "Denominator Exclusion"
            } ]
          },
          "count": 0
        }, {
          "id": "Numerator_1",
          "code": {
            "coding": [ {
              "system": "http://terminology.hl7.org/CodeSystem/measure-population",
              "code": "numerator",
              "display": "Numerator"
            } ]
          },
          "count": 0
        } ],
        "measureScore": {
          "value": 1.0
        }
      } ],
      "evaluatedResource": [ {
        "reference": "Patient/844dab9e-f34d-41dc-bd89-1440551471a6"
      }, {
        "reference": "Encounter/9ef827e1-7b36-4db6-ba85-ce49d119fca7"
      }, {
        "reference": "Condition/49554be4-c921-4fda-bf99-fb3493ad1361"
      }, {
        "reference": "Condition/f07b1f6f-98a6-461e-8ab4-ca702957a2d8"
      }, {
        "reference": "Observation/3344d493-a629-46f3-a563-6265d84d5aa4"
      }, {
        "reference": "Observation/d4436d6c-a658-43e1-a706-7a4482c79535"
      } ]
    }
  } ]
}