{
  "resourceType": "Bundle",
  "id": "62c880ed0111a60120dc2224",
  "type": "transaction",
  "entry": [ {
    "fullUrl": "https://madie.cms.gov/Patient/757c5855-602e-4c25-8783-c22afccc1618",
    "resource": {
      "resourceType": "Patient",
      "id": "757c5855-602e-4c25-8783-c22afccc1618",
      "meta": {
        "profile": [ "http://hl7.org/fhir/us/qicore/StructureDefinition/qicore-patient" ]
      },
      "extension": [ {
        "url": "http://hl7.org/fhir/us/core/StructureDefinition/us-core-race",
        "extension": [ {
          "url": "ombCategory",
          "valueCoding": {
            "system": "urn:oid:2.16.840.1.113883.6.238",
            "code": "1002-5",
            "display": "American Indian or Alaska Native"
          }
        }, {
          "url": "text",
          "valueString": "American Indian or Alaska Native"
        } ]
      }, {
        "url": "http://hl7.org/fhir/us/core/StructureDefinition/us-core-ethnicity",
        "extension": [ {
          "url": "ombCategory",
          "valueCoding": {
            "system": "urn:oid:2.16.840.1.113883.6.238",
            "code": "2135-2",
            "display": "Hispanic or Latino"
          }
        }, {
          "url": "text",
          "valueString": "Hispanic or Latino"
        } ]
      } ],
      "identifier": [ {
        "type": {
          "coding": [ {
            "system": "http://terminology.hl7.org/CodeSystem/v2-0203",
            "code": "MR"
          } ]
        },
        "system": "https://bonnie-fhir.healthit.gov/",
        "value": "62c880ed0111a60120dc2224"
      } ],
      "active": true,
      "name": [ {
        "use": "usual",
        "family": "NUMERFailPop1",
        "given": [ "PainAssessResultMissing" ]
      } ],
      "gender": "female",
      "birthDate": "1938-05-13"
    },
    "request": {
      "method": "PUT",
      "url": "Patient/757c5855-602e-4c25-8783-c22afccc1618"
    }
  }, {
    "fullUrl": "https://madie.cms.gov/Observation/0ea093a5-3a23-466e-aa54-c22f71a16949",
    "resource": {
      "resourceType": "Observation",
      "id": "0ea093a5-3a23-466e-aa54-c22f71a16949",
      "meta": {
        "profile": [ "http://hl7.org/fhir/us/qicore/StructureDefinition/qicore-observation-screening-assessment" ]
      },
      "status": "final",
      "category": [ {
        "coding": [ {
          "system": "http://terminology.hl7.org/CodeSystem/observation-category",
          "code": "survey",
          "display": "survey"
        } ]
      } ],
      "code": {
        "coding": [ {
          "system": "http://loinc.org",
          "code": "38208-5",
          "display": "Pain severity - Reported"
        } ],
        "text": "Pain severity - Reported"
      },
      "subject": {
        "reference": "Patient/757c5855-602e-4c25-8783-c22afccc1618"
      },
      "effectiveDateTime": "2026-03-03T14:00:00.000+00:00"
    },
    "request": {
      "method": "PUT",
      "url": "Observation/0ea093a5-3a23-466e-aa54-c22f71a16949"
    }
  }, {
    "fullUrl": "https://madie.cms.gov/Observation/5ab970e5-daf0-4e2d-a2cd-d5bd51823062",
    "resource": {
      "resourceType": "Observation",
      "id": "5ab970e5-daf0-4e2d-a2cd-d5bd51823062",
      "meta": {
        "profile": [ "http://hl7.org/fhir/us/qicore/StructureDefinition/qicore-observation-screening-assessment" ]
      },
      "status": "final",
      "category": [ {
        "coding": [ {
          "system": "http://terminology.hl7.org/CodeSystem/observation-category",
          "code": "survey",
          "display": "Survey"
        } ],
        "text": "Survey"
      } ],
      "code": {
        "coding": [ {
          "system": "http://loinc.org",
          "code": "38208-5",
          "display": "Pain severity - Reported"
        } ],
        "text": "Pain severity - Reported"
      },
      "subject": {
        "reference": "Patient/757c5855-602e-4c25-8783-c22afccc1618"
      },
      "effectiveDateTime": "2026-05-22T08:00:00.000+00:00"
    },
    "request": {
      "method": "PUT",
      "url": "Observation/5ab970e5-daf0-4e2d-a2cd-d5bd51823062"
    }
  }, {
    "fullUrl": "https://madie.cms.gov/Observation/270ef400-12ad-4503-b8e0-126edfda9cda",
    "resource": {
      "resourceType": "Observation",
      "id": "270ef400-12ad-4503-b8e0-126edfda9cda",
      "meta": {
        "profile": [ "http://hl7.org/fhir/us/qicore/StructureDefinition/qicore-observation-screening-assessment" ]
      },
      "status": "final",
      "category": [ {
        "coding": [ {
          "system": "http://terminology.hl7.org/CodeSystem/observation-category",
          "code": "survey",
          "display": "Survey"
        } ],
        "text": "Survey"
      } ],
      "code": {
        "coding": [ {
          "system": "http://loinc.org",
          "code": "38208-5",
          "display": "Pain severity - Reported"
        } ],
        "text": "Pain severity - Reported"
      },
      "subject": {
        "reference": "Patient/757c5855-602e-4c25-8783-c22afccc1618"
      },
      "effectiveDateTime": "2026-06-01T11:30:00.000+00:00"
    },
    "request": {
      "method": "PUT",
      "url": "Observation/270ef400-12ad-4503-b8e0-126edfda9cda"
    }
  }, {
    "fullUrl": "https://madie.cms.gov/Condition/a4fa7096-f337-4405-b43c-2a9686675833",
    "resource": {
      "resourceType": "Condition",
      "id": "a4fa7096-f337-4405-b43c-2a9686675833",
      "meta": {
        "profile": [ "http://hl7.org/fhir/us/qicore/StructureDefinition/qicore-condition-encounter-diagnosis" ]
      },
      "clinicalStatus": {
        "coding": [ {
          "system": "http://terminology.hl7.org/CodeSystem/condition-clinical",
          "code": "active"
        } ]
      },
      "verificationStatus": {
        "coding": [ {
          "system": "http://terminology.hl7.org/CodeSystem/condition-ver-status",
          "code": "confirmed"
        } ]
      },
      "category": [ {
        "coding": [ {
          "system": "http://terminology.hl7.org/CodeSystem/condition-category",
          "code": "encounter-diagnosis",
          "display": "Encounter Diagnosis"
        } ]
      } ],
      "code": {
        "coding": [ {
          "system": "http://hl7.org/fhir/sid/icd-10-cm",
          "code": "C00.0"
        } ]
      },
      "subject": {
        "reference": "Patient/757c5855-602e-4c25-8783-c22afccc1618"
      },
      "onsetDateTime": "2024-11-01T13:30:00.000+00:00"
    },
    "request": {
      "method": "PUT",
      "url": "Condition/a4fa7096-f337-4405-b43c-2a9686675833"
    }
  }, {
    "fullUrl": "https://madie.cms.gov/Encounter/6c0eca24-a8bf-431d-aba3-5c99f8f9e367",
    "resource": {
      "resourceType": "Encounter",
      "id": "6c0eca24-a8bf-431d-aba3-5c99f8f9e367",
      "meta": {
        "profile": [ "http://hl7.org/fhir/us/qicore/StructureDefinition/qicore-encounter" ]
      },
      "status": "finished",
      "class": {
        "system": "http://terminology.hl7.org/CodeSystem/v3-ActCode",
        "code": "AMB",
        "display": "ambulatory",
        "userSelected": true
      },
      "type": [ {
        "coding": [ {
          "system": "http://www.ama-assn.org/go/cpt",
          "code": "99202"
        } ]
      } ],
      "subject": {
        "reference": "Patient/757c5855-602e-4c25-8783-c22afccc1618"
      },
      "period": {
        "start": "2026-01-30T14:00:00.000+00:00",
        "end": "2026-01-30T15:00:00.000+00:00"
      }
    },
    "request": {
      "method": "PUT",
      "url": "Encounter/6c0eca24-a8bf-431d-aba3-5c99f8f9e367"
    }
  }, {
    "fullUrl": "https://madie.cms.gov/Encounter/51ea9a54-59a5-4894-bdac-4aff4fdd54d5",
    "resource": {
      "resourceType": "Encounter",
      "id": "51ea9a54-59a5-4894-bdac-4aff4fdd54d5",
      "meta": {
        "profile": [ "http://hl7.org/fhir/us/qicore/StructureDefinition/qicore-encounter" ]
      },
      "status": "finished",
      "class": {
        "system": "http://terminology.hl7.org/CodeSystem/v3-ActCode",
        "code": "AMB",
        "display": "ambulatory",
        "userSelected": true
      },
      "type": [ {
        "coding": [ {
          "system": "http://www.ama-assn.org/go/cpt",
          "code": "99202"
        } ]
      } ],
      "subject": {
        "reference": "Patient/757c5855-602e-4c25-8783-c22afccc1618"
      },
      "period": {
        "start": "2026-03-03T13:30:00.000+00:00",
        "end": "2026-03-03T14:30:00.000+00:00"
      }
    },
    "request": {
      "method": "PUT",
      "url": "Encounter/51ea9a54-59a5-4894-bdac-4aff4fdd54d5"
    }
  }, {
    "fullUrl": "https://madie.cms.gov/Encounter/ce2af5ee-bfaa-4d78-82dc-aee9245064eb",
    "resource": {
      "resourceType": "Encounter",
      "id": "ce2af5ee-bfaa-4d78-82dc-aee9245064eb",
      "meta": {
        "profile": [ "http://hl7.org/fhir/us/qicore/StructureDefinition/qicore-encounter" ]
      },
      "status": "finished",
      "class": {
        "system": "http://terminology.hl7.org/CodeSystem/v3-ActCode",
        "code": "AMB",
        "display": "ambulatory",
        "userSelected": true
      },
      "type": [ {
        "coding": [ {
          "system": "http://www.ama-assn.org/go/cpt",
          "code": "99202"
        } ]
      } ],
      "subject": {
        "reference": "Patient/757c5855-602e-4c25-8783-c22afccc1618"
      },
      "period": {
        "start": "2026-05-30T12:45:00.000+00:00",
        "end": "2026-05-30T13:45:00.000+00:00"
      }
    },
    "request": {
      "method": "PUT",
      "url": "Encounter/ce2af5ee-bfaa-4d78-82dc-aee9245064eb"
    }
  }, {
    "fullUrl": "https://madie.cms.gov/Encounter/7445c017-0640-4163-a4e5-5bffe5ab5255",
    "resource": {
      "resourceType": "Encounter",
      "id": "7445c017-0640-4163-a4e5-5bffe5ab5255",
      "meta": {
        "profile": [ "http://hl7.org/fhir/us/qicore/StructureDefinition/qicore-encounter" ]
      },
      "status": "finished",
      "class": {
        "system": "http://terminology.hl7.org/CodeSystem/v3-ActCode",
        "code": "AMB",
        "display": "ambulatory",
        "userSelected": true
      },
      "type": [ {
        "coding": [ {
          "system": "http://www.ama-assn.org/go/cpt",
          "code": "99204"
        } ]
      } ],
      "subject": {
        "reference": "Patient/757c5855-602e-4c25-8783-c22afccc1618"
      },
      "period": {
        "start": "2026-07-03T10:45:00.000+00:00",
        "end": "2026-07-03T11:45:00.000+00:00"
      }
    },
    "request": {
      "method": "PUT",
      "url": "Encounter/7445c017-0640-4163-a4e5-5bffe5ab5255"
    }
  }, {
    "fullUrl": "https://madie.cms.gov/Coverage/35cbac0c-c42e-4e30-bc0c-14c6dd5d1942",
    "resource": {
      "resourceType": "Coverage",
      "id": "35cbac0c-c42e-4e30-bc0c-14c6dd5d1942",
      "meta": {
        "profile": [ "http://hl7.org/fhir/us/qicore/StructureDefinition/qicore-coverage" ]
      },
      "status": "active",
      "beneficiary": {
        "reference": "Patient/757c5855-602e-4c25-8783-c22afccc1618"
      },
      "period": {
        "start": "1938-05-13T08:00:00.000+00:00"
      },
      "payor": [ {
        "reference": "Organization/d7108061-18d8-4b54-87e3-c9a21e5b099c"
      } ]
    },
    "request": {
      "method": "PUT",
      "url": "Coverage/35cbac0c-c42e-4e30-bc0c-14c6dd5d1942"
    }
  }, {
    "fullUrl": "https://madie.cms.gov/Procedure/8294b260-6977-49dd-bf85-f651ffe3d580",
    "resource": {
      "resourceType": "Procedure",
      "id": "8294b260-6977-49dd-bf85-f651ffe3d580",
      "meta": {
        "profile": [ "http://hl7.org/fhir/us/qicore/StructureDefinition/qicore-procedure" ]
      },
      "extension": [ {
        "url": "http://hl7.org/fhir/us/qicore/StructureDefinition/qicore-recorded",
        "valueDateTime": "2026-02-27T12:35:00.000+00:00"
      } ],
      "status": "completed",
      "code": {
        "coding": [ {
          "system": "http://www.ama-assn.org/go/cpt",
          "code": "96409"
        } ]
      },
      "subject": {
        "reference": "Patient/757c5855-602e-4c25-8783-c22afccc1618"
      },
      "performedPeriod": {
        "start": "2026-02-27T11:30:00.000+00:00",
        "end": "2026-02-27T11:30:00.000+00:00"
      }
    },
    "request": {
      "method": "PUT",
      "url": "Procedure/8294b260-6977-49dd-bf85-f651ffe3d580"
    }
  }, {
    "fullUrl": "https://madie.cms.gov/Procedure/29661677-d87c-4b1c-8db7-6f6c0bf7a36e",
    "resource": {
      "resourceType": "Procedure",
      "id": "29661677-d87c-4b1c-8db7-6f6c0bf7a36e",
      "meta": {
        "profile": [ "http://hl7.org/fhir/us/qicore/StructureDefinition/qicore-procedure" ]
      },
      "extension": [ {
        "url": "http://hl7.org/fhir/us/qicore/StructureDefinition/qicore-recorded",
        "valueDateTime": "2026-04-01T12:35:00.000+00:00"
      } ],
      "status": "completed",
      "code": {
        "coding": [ {
          "system": "http://www.ama-assn.org/go/cpt",
          "code": "96409"
        } ]
      },
      "subject": {
        "reference": "Patient/757c5855-602e-4c25-8783-c22afccc1618"
      },
      "performedPeriod": {
        "start": "2026-04-01T12:30:00.000+00:00",
        "end": "2026-04-01T12:30:00.000+00:00"
      }
    },
    "request": {
      "method": "PUT",
      "url": "Procedure/29661677-d87c-4b1c-8db7-6f6c0bf7a36e"
    }
  }, {
    "fullUrl": "https://madie.cms.gov/Procedure/c4de1a25-6a28-446a-9ebb-f8a1218c906f",
    "resource": {
      "resourceType": "Procedure",
      "id": "c4de1a25-6a28-446a-9ebb-f8a1218c906f",
      "meta": {
        "profile": [ "http://hl7.org/fhir/us/qicore/StructureDefinition/qicore-procedure" ]
      },
      "extension": [ {
        "url": "http://hl7.org/fhir/us/qicore/StructureDefinition/qicore-recorded",
        "valueDateTime": "2026-06-04T16:35:00.000+00:00"
      } ],
      "status": "completed",
      "code": {
        "coding": [ {
          "system": "http://www.ama-assn.org/go/cpt",
          "code": "51720"
        }, {
          "system": "http://snomed.info/sct",
          "code": "4114003"
        } ]
      },
      "subject": {
        "reference": "Patient/757c5855-602e-4c25-8783-c22afccc1618"
      },
      "performedPeriod": {
        "start": "2026-06-04T15:30:00.000+00:00",
        "end": "2026-06-04T15:30:00.000+00:00"
      }
    },
    "request": {
      "method": "PUT",
      "url": "Procedure/c4de1a25-6a28-446a-9ebb-f8a1218c906f"
    }
  }, {
    "fullUrl": "https://madie.cms.gov/Organization/d7108061-18d8-4b54-87e3-c9a21e5b099c",
    "resource": {
      "resourceType": "Organization",
      "id": "d7108061-18d8-4b54-87e3-c9a21e5b099c",
      "meta": {
        "profile": [ "http://hl7.org/fhir/us/qicore/StructureDefinition/qicore-organization" ]
      },
      "identifier": [ {
        "use": "temp",
        "system": "urn:oid:2.16.840.1.113883.4.4",
        "value": "21-3259825"
      } ],
      "active": true,
      "type": [ {
        "coding": [ {
          "system": "http://terminology.hl7.org/CodeSystem/organization-type",
          "code": "pay",
          "display": "Payer"
        } ]
      } ],
      "name": "Blue Cross Blue Shield of Texas",
      "telecom": [ {
        "system": "phone",
        "value": "(+1) 972-766-6900"
      } ],
      "address": [ {
        "use": "billing",
        "type": "postal",
        "line": [ "P.O. Box 660044" ],
        "city": "Dallas",
        "state": "TX",
        "postalCode": "75266-0044",
        "country": "USA"
      } ]
    },
    "request": {
      "method": "PUT",
      "url": "Organization/d7108061-18d8-4b54-87e3-c9a21e5b099c"
    }
  }, {
    "fullUrl": "https://madie.cms.gov/Practitioner/2da1fe42-a81f-453e-bd3c-60909d5d10d0",
    "resource": {
      "resourceType": "Practitioner",
      "id": "2da1fe42-a81f-453e-bd3c-60909d5d10d0",
      "meta": {
        "profile": [ "http://hl7.org/fhir/us/qicore/StructureDefinition/qicore-practitioner" ]
      },
      "identifier": [ {
        "system": "http://hl7.org/fhir/sid/us-npi",
        "value": "1234567890"
      } ],
      "name": [ {
        "family": "Evil",
        "prefix": [ "Dr" ]
      } ]
    },
    "request": {
      "method": "PUT",
      "url": "Practitioner/2da1fe42-a81f-453e-bd3c-60909d5d10d0"
    }
  }, {
    "fullUrl": "https://madie.cms.gov/MeasureReport/64d75922-fcb8-4e74-b5e0-c399e8920b43",
    "resource": {
      "resourceType": "MeasureReport",
      "id": "64d75922-fcb8-4e74-b5e0-c399e8920b43",
      "meta": {
        "profile": [ "http://hl7.org/fhir/us/cqfmeasures/StructureDefinition/test-case-cqfm" ]
      },
      "contained": [ {
        "resourceType": "Parameters",
        "id": "bddc65b8-4873-4212-862a-bb69c421c130-parameters",
        "parameter": [ {
          "name": "subject",
          "valueString": "757c5855-602e-4c25-8783-c22afccc1618"
        } ]
      } ],
      "extension": [ {
        "url": "http://hl7.org/fhir/StructureDefinition/cqf-inputParameters",
        "valueReference": {
          "reference": "#bddc65b8-4873-4212-862a-bb69c421c130-parameters"
        }
      }, {
        "url": "http://hl7.org/fhir/us/cqfmeasures/StructureDefinition/cqfm-testCaseDescription",
        "valueMarkdown": "Patient with cancer diagnosis overlaps the office visits during measurement period. Chemotherapy administered, and pain intensity assessment was performed during an office visit but no result.  \n"
      } ],
      "modifierExtension": [ {
        "url": "http://hl7.org/fhir/us/cqfmeasures/StructureDefinition/cqfm-isTestCase",
        "valueBoolean": true
      } ],
      "status": "complete",
      "type": "individual",
      "measure": "https://madie.cms.gov/Measure/CMS157FHIRPainIntensityQuantified",
      "period": {
        "start": "2026-01-01",
        "end": "2026-12-31"
      },
      "group": [ {
        "id": "Group_1",
        "population": [ {
          "id": "InitialPopulation_1",
          "code": {
            "coding": [ {
              "system": "http://terminology.hl7.org/CodeSystem/measure-population",
              "code": "initial-population",
              "display": "Initial Population"
            } ]
          },
          "count": 1
        }, {
          "id": "Denominator_1",
          "code": {
            "coding": [ {
              "system": "http://terminology.hl7.org/CodeSystem/measure-population",
              "code": "denominator",
              "display": "Denominator"
            } ]
          },
          "count": 1
        }, {
          "id": "Numerator_1",
          "code": {
            "coding": [ {
              "system": "http://terminology.hl7.org/CodeSystem/measure-population",
              "code": "numerator",
              "display": "Numerator"
            } ]
          },
          "count": 0
        } ],
        "measureScore": {
          "value": 0.0
        }
      }, {
        "id": "Group_2",
        "population": [ {
          "id": "InitialPopulation_2",
          "code": {
            "coding": [ {
              "system": "http://terminology.hl7.org/CodeSystem/measure-population",
              "code": "initial-population",
              "display": "Initial Population"
            } ]
          },
          "count": 0
        }, {
          "id": "Denominator_2",
          "code": {
            "coding": [ {
              "system": "http://terminology.hl7.org/CodeSystem/measure-population",
              "code": "denominator",
              "display": "Denominator"
            } ]
          },
          "count": 0
        }, {
          "id": "Numerator_2",
          "code": {
            "coding": [ {
              "system": "http://terminology.hl7.org/CodeSystem/measure-population",
              "code": "numerator",
              "display": "Numerator"
            } ]
          },
          "count": 0
        } ],
        "measureScore": {
          "value": 0.0
        }
      } ],
      "evaluatedResource": [ {
        "reference": "Patient/757c5855-602e-4c25-8783-c22afccc1618"
      }, {
        "reference": "Observation/0ea093a5-3a23-466e-aa54-c22f71a16949"
      }, {
        "reference": "Observation/5ab970e5-daf0-4e2d-a2cd-d5bd51823062"
      }, {
        "reference": "Observation/270ef400-12ad-4503-b8e0-126edfda9cda"
      }, {
        "reference": "Condition/a4fa7096-f337-4405-b43c-2a9686675833"
      }, {
        "reference": "Encounter/6c0eca24-a8bf-431d-aba3-5c99f8f9e367"
      }, {
        "reference": "Encounter/51ea9a54-59a5-4894-bdac-4aff4fdd54d5"
      }, {
        "reference": "Encounter/ce2af5ee-bfaa-4d78-82dc-aee9245064eb"
      }, {
        "reference": "Encounter/7445c017-0640-4163-a4e5-5bffe5ab5255"
      }, {
        "reference": "Coverage/35cbac0c-c42e-4e30-bc0c-14c6dd5d1942"
      }, {
        "reference": "Procedure/8294b260-6977-49dd-bf85-f651ffe3d580"
      }, {
        "reference": "Procedure/29661677-d87c-4b1c-8db7-6f6c0bf7a36e"
      }, {
        "reference": "Procedure/c4de1a25-6a28-446a-9ebb-f8a1218c906f"
      }, {
        "reference": "Organization/d7108061-18d8-4b54-87e3-c9a21e5b099c"
      }, {
        "reference": "Practitioner/2da1fe42-a81f-453e-bd3c-60909d5d10d0"
      } ]
    },
    "request": {
      "method": "PUT",
      "url": "MeasureReport/64d75922-fcb8-4e74-b5e0-c399e8920b43"
    }
  } ]
}