{
  "resourceType": "Bundle",
  "id": "62c880ec0111a60120dc21f8",
  "type": "transaction",
  "entry": [ {
    "fullUrl": "https://madie.cms.gov/Patient/4cb92166-501c-46e1-9c52-6693e48b0c6d",
    "resource": {
      "resourceType": "Patient",
      "id": "4cb92166-501c-46e1-9c52-6693e48b0c6d",
      "meta": {
        "profile": [ "http://hl7.org/fhir/us/qicore/StructureDefinition/qicore-patient" ]
      },
      "extension": [ {
        "url": "http://hl7.org/fhir/us/core/StructureDefinition/us-core-race",
        "extension": [ {
          "url": "ombCategory",
          "valueCoding": {
            "system": "urn:oid:2.16.840.1.113883.6.238",
            "code": "1002-5",
            "display": "American Indian or Alaska Native",
            "userSelected": true
          }
        }, {
          "url": "text",
          "valueString": "American Indian or Alaska Native"
        } ]
      }, {
        "url": "http://hl7.org/fhir/us/core/StructureDefinition/us-core-ethnicity",
        "extension": [ {
          "url": "ombCategory",
          "valueCoding": {
            "system": "urn:oid:2.16.840.1.113883.6.238",
            "code": "2135-2",
            "display": "Hispanic or Latino",
            "userSelected": true
          }
        }, {
          "url": "text",
          "valueString": "Hispanic or Latino"
        } ]
      } ],
      "identifier": [ {
        "type": {
          "coding": [ {
            "system": "http://terminology.hl7.org/CodeSystem/v2-0203",
            "code": "MR"
          } ]
        },
        "system": "https://bonnie-fhir.healthit.gov/",
        "value": "62c880ec0111a60120dc21f8"
      } ],
      "active": true,
      "name": [ {
        "use": "usual",
        "family": "NUMERPassPop2",
        "given": [ "PainAssessSameDayAfterRadTx" ]
      } ],
      "gender": "male",
      "birthDate": "1976-04-25"
    },
    "request": {
      "method": "PUT",
      "url": "Patient/4cb92166-501c-46e1-9c52-6693e48b0c6d"
    }
  }, {
    "fullUrl": "https://madie.cms.gov/Observation/fb25c61f-e669-4c1e-915d-cd6119b35fb8",
    "resource": {
      "resourceType": "Observation",
      "id": "fb25c61f-e669-4c1e-915d-cd6119b35fb8",
      "meta": {
        "profile": [ "http://hl7.org/fhir/us/qicore/StructureDefinition/qicore-observation-screening-assessment" ]
      },
      "status": "final",
      "category": [ {
        "coding": [ {
          "system": "http://terminology.hl7.org/CodeSystem/observation-category",
          "code": "survey",
          "display": "Survey"
        } ],
        "text": "Survey"
      } ],
      "code": {
        "coding": [ {
          "system": "http://loinc.org",
          "code": "38208-5"
        } ]
      },
      "subject": {
        "reference": "Patient/4cb92166-501c-46e1-9c52-6693e48b0c6d"
      },
      "effectiveDateTime": "2026-05-06T14:00:00.000+00:00",
      "valueInteger": 9
    },
    "request": {
      "method": "PUT",
      "url": "Observation/fb25c61f-e669-4c1e-915d-cd6119b35fb8"
    }
  }, {
    "fullUrl": "https://madie.cms.gov/Condition/9d351870-646a-4ffd-ab35-ee05409ed117",
    "resource": {
      "resourceType": "Condition",
      "id": "9d351870-646a-4ffd-ab35-ee05409ed117",
      "meta": {
        "profile": [ "http://hl7.org/fhir/us/qicore/StructureDefinition/qicore-condition-problems-health-concerns" ]
      },
      "clinicalStatus": {
        "coding": [ {
          "system": "http://terminology.hl7.org/CodeSystem/condition-clinical",
          "code": "active",
          "display": "active",
          "userSelected": true
        } ]
      },
      "verificationStatus": {
        "coding": [ {
          "system": "http://terminology.hl7.org/CodeSystem/condition-ver-status",
          "code": "confirmed",
          "display": "Confirmed"
        } ]
      },
      "category": [ {
        "coding": [ {
          "system": "http://terminology.hl7.org/CodeSystem/condition-category",
          "code": "problem-list-item",
          "display": "Problem List Item"
        } ]
      } ],
      "code": {
        "coding": [ {
          "system": "http://snomed.info/sct",
          "code": "107691000119101"
        } ]
      },
      "subject": {
        "reference": "Patient/4cb92166-501c-46e1-9c52-6693e48b0c6d"
      },
      "onsetDateTime": "2022-05-06T12:45:00.000+00:00"
    },
    "request": {
      "method": "PUT",
      "url": "Condition/9d351870-646a-4ffd-ab35-ee05409ed117"
    }
  }, {
    "fullUrl": "https://madie.cms.gov/Coverage/3b10a485-4a16-4c7b-8a17-156bc78f3697",
    "resource": {
      "resourceType": "Coverage",
      "id": "3b10a485-4a16-4c7b-8a17-156bc78f3697",
      "meta": {
        "profile": [ "http://hl7.org/fhir/us/qicore/StructureDefinition/qicore-coverage" ]
      },
      "status": "active",
      "beneficiary": {
        "reference": "Patient/4cb92166-501c-46e1-9c52-6693e48b0c6d"
      },
      "period": {
        "start": "1976-04-25T08:00:00.000+00:00"
      },
      "payor": [ {
        "reference": "Organization/8b056ec5-c0d6-46fa-842b-e2ff723df2b7"
      } ]
    },
    "request": {
      "method": "PUT",
      "url": "Coverage/3b10a485-4a16-4c7b-8a17-156bc78f3697"
    }
  }, {
    "fullUrl": "https://madie.cms.gov/Encounter/f607bd87-b528-41ee-8fb2-25bf40b863bd",
    "resource": {
      "resourceType": "Encounter",
      "id": "f607bd87-b528-41ee-8fb2-25bf40b863bd",
      "meta": {
        "profile": [ "http://hl7.org/fhir/us/qicore/StructureDefinition/qicore-encounter" ]
      },
      "status": "finished",
      "class": {
        "system": "http://terminology.hl7.org/CodeSystem/v3-ActCode",
        "code": "AMB",
        "display": "ambulatory",
        "userSelected": true
      },
      "type": [ {
        "coding": [ {
          "system": "http://www.ama-assn.org/go/cpt",
          "version": "2023",
          "code": "77427",
          "display": "Radiation treatment management, 5 treatments",
          "userSelected": true
        } ]
      } ],
      "subject": {
        "reference": "Patient/4cb92166-501c-46e1-9c52-6693e48b0c6d"
      },
      "period": {
        "start": "2026-05-06T09:00:00.000+00:00",
        "end": "2026-05-06T13:00:00.000+00:00"
      }
    },
    "request": {
      "method": "PUT",
      "url": "Encounter/f607bd87-b528-41ee-8fb2-25bf40b863bd"
    }
  }, {
    "fullUrl": "https://madie.cms.gov/Organization/8b056ec5-c0d6-46fa-842b-e2ff723df2b7",
    "resource": {
      "resourceType": "Organization",
      "id": "8b056ec5-c0d6-46fa-842b-e2ff723df2b7",
      "meta": {
        "profile": [ "http://hl7.org/fhir/us/qicore/StructureDefinition/qicore-organization" ]
      },
      "identifier": [ {
        "use": "temp",
        "system": "urn:oid:2.16.840.1.113883.4.4",
        "value": "21-3259825"
      } ],
      "active": true,
      "type": [ {
        "coding": [ {
          "system": "http://terminology.hl7.org/CodeSystem/organization-type",
          "code": "pay",
          "display": "Payer"
        } ]
      } ],
      "name": "Blue Cross Blue Shield of Texas",
      "telecom": [ {
        "system": "phone",
        "value": "(+1) 972-766-6900"
      } ],
      "address": [ {
        "use": "billing",
        "type": "postal",
        "line": [ "P.O. Box 660044" ],
        "city": "Dallas",
        "state": "TX",
        "postalCode": "75266-0044",
        "country": "USA"
      } ]
    },
    "request": {
      "method": "PUT",
      "url": "Organization/8b056ec5-c0d6-46fa-842b-e2ff723df2b7"
    }
  }, {
    "fullUrl": "https://madie.cms.gov/Practitioner/77efbc65-a11c-4ef2-95c0-43edeaa78033",
    "resource": {
      "resourceType": "Practitioner",
      "id": "77efbc65-a11c-4ef2-95c0-43edeaa78033",
      "meta": {
        "profile": [ "http://hl7.org/fhir/us/qicore/StructureDefinition/qicore-practitioner" ]
      },
      "identifier": [ {
        "system": "http://hl7.org/fhir/sid/us-npi",
        "value": "1234567890"
      } ],
      "name": [ {
        "family": "Evil",
        "prefix": [ "Dr" ]
      } ]
    },
    "request": {
      "method": "PUT",
      "url": "Practitioner/77efbc65-a11c-4ef2-95c0-43edeaa78033"
    }
  }, {
    "fullUrl": "https://madie.cms.gov/MeasureReport/74a8a532-2aa9-4929-b028-614f2aa36877",
    "resource": {
      "resourceType": "MeasureReport",
      "id": "74a8a532-2aa9-4929-b028-614f2aa36877",
      "meta": {
        "profile": [ "http://hl7.org/fhir/us/cqfmeasures/StructureDefinition/test-case-cqfm" ]
      },
      "contained": [ {
        "resourceType": "Parameters",
        "id": "9532f726-9496-429f-bdf0-3f9f3f186a6e-parameters",
        "parameter": [ {
          "name": "subject",
          "valueString": "4cb92166-501c-46e1-9c52-6693e48b0c6d"
        } ]
      } ],
      "extension": [ {
        "url": "http://hl7.org/fhir/StructureDefinition/cqf-inputParameters",
        "valueReference": {
          "reference": "#9532f726-9496-429f-bdf0-3f9f3f186a6e-parameters"
        }
      }, {
        "url": "http://hl7.org/fhir/us/cqfmeasures/StructureDefinition/cqfm-testCaseDescription",
        "valueMarkdown": "Patient with cancer diagnosis that overlaps radiation treatment management during measurement period. Pain intensity assessment was performed on the same day of but the time stamp was after end of radiation treatment management encounter. "
      } ],
      "modifierExtension": [ {
        "url": "http://hl7.org/fhir/us/cqfmeasures/StructureDefinition/cqfm-isTestCase",
        "valueBoolean": true
      } ],
      "status": "complete",
      "type": "individual",
      "measure": "https://madie.cms.gov/Measure/CMS157FHIRPainIntensityQuantified",
      "period": {
        "start": "2026-01-01",
        "end": "2026-12-31"
      },
      "group": [ {
        "id": "Group_1",
        "population": [ {
          "id": "InitialPopulation_1",
          "code": {
            "coding": [ {
              "system": "http://terminology.hl7.org/CodeSystem/measure-population",
              "code": "initial-population",
              "display": "Initial Population"
            } ]
          },
          "count": 0
        }, {
          "id": "Denominator_1",
          "code": {
            "coding": [ {
              "system": "http://terminology.hl7.org/CodeSystem/measure-population",
              "code": "denominator",
              "display": "Denominator"
            } ]
          },
          "count": 0
        }, {
          "id": "Numerator_1",
          "code": {
            "coding": [ {
              "system": "http://terminology.hl7.org/CodeSystem/measure-population",
              "code": "numerator",
              "display": "Numerator"
            } ]
          },
          "count": 0
        } ],
        "measureScore": {
          "value": 0.0
        }
      }, {
        "id": "Group_2",
        "population": [ {
          "id": "InitialPopulation_2",
          "code": {
            "coding": [ {
              "system": "http://terminology.hl7.org/CodeSystem/measure-population",
              "code": "initial-population",
              "display": "Initial Population"
            } ]
          },
          "count": 1
        }, {
          "id": "Denominator_2",
          "code": {
            "coding": [ {
              "system": "http://terminology.hl7.org/CodeSystem/measure-population",
              "code": "denominator",
              "display": "Denominator"
            } ]
          },
          "count": 1
        }, {
          "id": "Numerator_2",
          "code": {
            "coding": [ {
              "system": "http://terminology.hl7.org/CodeSystem/measure-population",
              "code": "numerator",
              "display": "Numerator"
            } ]
          },
          "count": 1
        } ],
        "measureScore": {
          "value": 0.0
        }
      } ],
      "evaluatedResource": [ {
        "reference": "Patient/4cb92166-501c-46e1-9c52-6693e48b0c6d"
      }, {
        "reference": "Observation/fb25c61f-e669-4c1e-915d-cd6119b35fb8"
      }, {
        "reference": "Condition/9d351870-646a-4ffd-ab35-ee05409ed117"
      }, {
        "reference": "Coverage/3b10a485-4a16-4c7b-8a17-156bc78f3697"
      }, {
        "reference": "Encounter/f607bd87-b528-41ee-8fb2-25bf40b863bd"
      }, {
        "reference": "Organization/8b056ec5-c0d6-46fa-842b-e2ff723df2b7"
      }, {
        "reference": "Practitioner/77efbc65-a11c-4ef2-95c0-43edeaa78033"
      } ]
    },
    "request": {
      "method": "PUT",
      "url": "MeasureReport/74a8a532-2aa9-4929-b028-614f2aa36877"
    }
  } ]
}