{
  "resourceType": "Bundle",
  "id": "61168b8798086b77ef9c5ecc",
  "type": "collection",
  "entry": [ {
    "fullUrl": "https://madie.cms.gov/Patient/28492651-41c3-4e9e-a68f-9b7836e3eca9",
    "resource": {
      "resourceType": "Patient",
      "id": "28492651-41c3-4e9e-a68f-9b7836e3eca9",
      "meta": {
        "profile": [ "http://hl7.org/fhir/us/qicore/StructureDefinition/qicore-patient" ]
      },
      "extension": [ {
        "url": "http://hl7.org/fhir/us/core/StructureDefinition/us-core-race",
        "extension": [ {
          "url": "ombCategory",
          "valueCoding": {
            "system": "urn:oid:2.16.840.1.113883.6.238",
            "code": "2106-3",
            "display": "White",
            "userSelected": true
          }
        }, {
          "url": "text",
          "valueString": "White"
        } ]
      }, {
        "url": "http://hl7.org/fhir/us/core/StructureDefinition/us-core-ethnicity",
        "extension": [ {
          "url": "ombCategory",
          "valueCoding": {
            "system": "urn:oid:2.16.840.1.113883.6.238",
            "code": "2186-5",
            "display": "Not Hispanic or Latino",
            "userSelected": true
          }
        }, {
          "url": "text",
          "valueString": "Not Hispanic or Latino"
        } ]
      } ],
      "identifier": [ {
        "type": {
          "coding": [ {
            "system": "http://terminology.hl7.org/CodeSystem/v2-0203",
            "code": "MR"
          } ]
        },
        "system": "https://myGoodHealthCare.com/",
        "value": "61168b8798086b77ef9c5ecc"
      } ],
      "active": true,
      "name": [ {
        "use": "usual",
        "family": "DENEXCEPPass",
        "given": [ "CommEdemaAbsentNotDoneMR" ]
      } ],
      "gender": "male",
      "birthDate": "1973-08-29"
    }
  }, {
    "fullUrl": "https://madie.cms.gov/Communication/f80c9b5d-7c64-4df7-bd97-4d8e62007a66",
    "resource": {
      "resourceType": "Communication",
      "id": "f80c9b5d-7c64-4df7-bd97-4d8e62007a66",
      "meta": {
        "profile": [ "http://hl7.org/fhir/us/qicore/StructureDefinition/qicore-communicationnotdone" ]
      },
      "extension": [ {
        "url": "http://hl7.org/fhir/us/qicore/StructureDefinition/qicore-recorded",
        "valueDateTime": "2014-07-02T15:00:00.000+00:00"
      } ],
      "status": "not-done",
      "statusReason": {
        "coding": [ {
          "system": "http://snomed.info/sct",
          "version": "http://snomed.info/sct/731000124108/version/202303",
          "code": "183932001",
          "display": "Procedure contraindicated (situation)",
          "userSelected": true
        } ]
      },
      "subject": {
        "reference": "Patient/28492651-41c3-4e9e-a68f-9b7836e3eca9"
      },
      "topic": {
        "coding": [ {
          "system": "http://terminology.hl7.org/CodeSystem/communication-topic",
          "code": "progress-update",
          "display": "Progress Update"
        } ]
      },
      "sent": "2026-07-09T08:00:00.000+00:00",
      "reasonCode": [ {
        "coding": [ {
          "system": "http://snomed.info/sct",
          "version": "http://snomed.info/sct/731000124108/version/202303",
          "code": "428341000124108"
        } ]
      } ]
    }
  }, {
    "fullUrl": "https://madie.cms.gov/Condition/36747212-c552-477a-8e59-800f0d2ce808",
    "resource": {
      "resourceType": "Condition",
      "id": "36747212-c552-477a-8e59-800f0d2ce808",
      "meta": {
        "profile": [ "http://hl7.org/fhir/us/qicore/StructureDefinition/qicore-condition-problems-health-concerns" ]
      },
      "clinicalStatus": {
        "coding": [ {
          "system": "http://terminology.hl7.org/CodeSystem/condition-clinical",
          "code": "active",
          "display": "active",
          "userSelected": true
        } ]
      },
      "category": [ {
        "coding": [ {
          "system": "http://terminology.hl7.org/CodeSystem/condition-category",
          "code": "problem-list-item",
          "display": "Problem List Item"
        } ]
      } ],
      "code": {
        "coding": [ {
          "system": "http://snomed.info/sct",
          "version": "http://snomed.info/sct/731000124108/version/20250301",
          "code": "193349004"
        }, {
          "system": "http://hl7.org/fhir/sid/icd-10-cm",
          "code": "E08.311"
        } ]
      },
      "subject": {
        "reference": "Patient/28492651-41c3-4e9e-a68f-9b7836e3eca9"
      },
      "onsetDateTime": "2014-07-01T15:00:00.000+00:00"
    }
  }, {
    "fullUrl": "https://madie.cms.gov/Observation/47b1fb9c-6fd5-4678-92e1-d08745302f77",
    "resource": {
      "resourceType": "Observation",
      "id": "47b1fb9c-6fd5-4678-92e1-d08745302f77",
      "meta": {
        "profile": [ "http://hl7.org/fhir/us/qicore/StructureDefinition/qicore-observation-clinical-result" ]
      },
      "status": "final",
      "category": [ {
        "coding": [ {
          "system": "http://terminology.hl7.org/CodeSystem/observation-category",
          "code": "vital-signs",
          "display": "Vital Signs"
        } ]
      }, {
        "coding": [ {
          "system": "http://terminology.hl7.org/CodeSystem/observation-category",
          "code": "survey"
        } ]
      } ],
      "code": {
        "coding": [ {
          "system": "http://loinc.org",
          "version": "2.73",
          "code": "32451-7"
        } ]
      },
      "subject": {
        "reference": "Patient/28492651-41c3-4e9e-a68f-9b7836e3eca9"
      },
      "effectiveDateTime": "2026-07-09T08:00:00.000+00:00",
      "valueBoolean": true
    }
  }, {
    "fullUrl": "https://madie.cms.gov/Encounter/7e75b9a9-d586-413c-adc5-220bac238fc2",
    "resource": {
      "resourceType": "Encounter",
      "id": "7e75b9a9-d586-413c-adc5-220bac238fc2",
      "meta": {
        "profile": [ "http://hl7.org/fhir/us/qicore/StructureDefinition/qicore-encounter" ]
      },
      "status": "finished",
      "class": {
        "system": "http://terminology.hl7.org/CodeSystem/v3-ActCode",
        "code": "AMB"
      },
      "type": [ {
        "coding": [ {
          "system": "http://www.ama-assn.org/go/cpt",
          "version": "2023",
          "code": "99205"
        } ]
      } ],
      "subject": {
        "reference": "Patient/28492651-41c3-4e9e-a68f-9b7836e3eca9"
      },
      "period": {
        "start": "2026-07-02T15:00:00.000+00:00",
        "end": "2026-08-02T16:00:00.000+00:00"
      }
    }
  }, {
    "fullUrl": "https://madie.cms.gov/Communication/4f980fb0-d787-4858-8db9-a570ebc9f33e",
    "resource": {
      "resourceType": "Communication",
      "id": "4f980fb0-d787-4858-8db9-a570ebc9f33e",
      "meta": {
        "profile": [ "http://hl7.org/fhir/us/qicore/StructureDefinition/qicore-communication" ]
      },
      "status": "completed",
      "statusReason": {
        "coding": [ {
          "system": "http://snomed.info/sct",
          "version": "http://snomed.info/sct/731000124108/version/202303",
          "code": "183932001",
          "display": "Procedure contraindicated (situation)",
          "userSelected": true
        } ]
      },
      "category": [ {
        "coding": [ {
          "system": "http://snomed.info/sct",
          "version": "http://snomed.info/sct/731000124108/version/202303",
          "code": "428341000124108",
          "display": "Macular edema absent (situation)",
          "userSelected": true
        } ]
      } ],
      "sent": "2026-07-09T08:00:00.000+00:00"
    }
  }, {
    "fullUrl": "https://madie.cms.gov/MeasureReport/47f5ebe9-1e7f-4fef-ae36-9fc86a548dfa",
    "resource": {
      "resourceType": "MeasureReport",
      "id": "47f5ebe9-1e7f-4fef-ae36-9fc86a548dfa",
      "meta": {
        "profile": [ "http://hl7.org/fhir/us/cqfmeasures/StructureDefinition/test-case-cqfm" ]
      },
      "contained": [ {
        "resourceType": "Parameters",
        "id": "e5b8bea0-b2d6-4465-8c9e-a4013ae71d2d-parameters",
        "parameter": [ {
          "name": "subject",
          "valueString": "28492651-41c3-4e9e-a68f-9b7836e3eca9"
        } ]
      } ],
      "extension": [ {
        "url": "http://hl7.org/fhir/StructureDefinition/cqf-inputParameters",
        "valueReference": {
          "reference": "#e5b8bea0-b2d6-4465-8c9e-a4013ae71d2d-parameters"
        }
      }, {
        "url": "http://hl7.org/fhir/us/cqfmeasures/StructureDefinition/cqfm-testCaseDescription",
        "valueMarkdown": "Communication status complete"
      } ],
      "modifierExtension": [ {
        "url": "http://hl7.org/fhir/us/cqfmeasures/StructureDefinition/cqfm-isTestCase",
        "valueBoolean": true
      } ],
      "status": "complete",
      "type": "individual",
      "measure": "https://madie.cms.gov/Measure/CMS142FHIRCommWithDrManagingDiab",
      "period": {
        "start": "2026-01-01",
        "end": "2026-12-31"
      },
      "group": [ {
        "id": "Group_1",
        "population": [ {
          "id": "InitialPopulation_1",
          "code": {
            "coding": [ {
              "system": "http://terminology.hl7.org/CodeSystem/measure-population",
              "code": "initial-population",
              "display": "Initial Population"
            } ]
          },
          "count": 1
        }, {
          "id": "Denominator_1",
          "code": {
            "coding": [ {
              "system": "http://terminology.hl7.org/CodeSystem/measure-population",
              "code": "denominator",
              "display": "Denominator"
            } ]
          },
          "count": 1
        }, {
          "id": "Numerator_1",
          "code": {
            "coding": [ {
              "system": "http://terminology.hl7.org/CodeSystem/measure-population",
              "code": "numerator",
              "display": "Numerator"
            } ]
          },
          "count": 0
        }, {
          "id": "DenominatorException_1",
          "code": {
            "coding": [ {
              "system": "http://terminology.hl7.org/CodeSystem/measure-population",
              "code": "denominator-exception",
              "display": "Denominator Exception"
            } ]
          },
          "count": 0
        } ],
        "measureScore": {
          "value": 1.0
        }
      } ],
      "evaluatedResource": [ {
        "reference": "Patient/28492651-41c3-4e9e-a68f-9b7836e3eca9"
      }, {
        "reference": "Communication/f80c9b5d-7c64-4df7-bd97-4d8e62007a66"
      }, {
        "reference": "Condition/36747212-c552-477a-8e59-800f0d2ce808"
      }, {
        "reference": "Observation/47b1fb9c-6fd5-4678-92e1-d08745302f77"
      }, {
        "reference": "Encounter/7e75b9a9-d586-413c-adc5-220bac238fc2"
      }, {
        "reference": "Communication/4f980fb0-d787-4858-8db9-a570ebc9f33e"
      } ]
    }
  } ]
}