{
  "resourceType": "Bundle",
  "id": "NUMERFail-KCCQMissingFollowUp",
  "type": "collection",
  "entry": [ {
    "fullUrl": "https://madie.cms.gov/Patient/17de6744-31d5-479f-a677-a0f4a87f0515",
    "resource": {
      "resourceType": "Patient",
      "id": "17de6744-31d5-479f-a677-a0f4a87f0515",
      "meta": {
        "profile": [ "http://hl7.org/fhir/us/qicore/StructureDefinition/qicore-patient" ]
      },
      "extension": [ {
        "url": "http://hl7.org/fhir/us/core/StructureDefinition/us-core-race",
        "extension": [ {
          "url": "ombCategory",
          "valueCoding": {
            "system": "urn:oid:2.16.840.1.113883.6.238",
            "code": "2028-9",
            "display": "Asian"
          }
        }, {
          "url": "text",
          "valueString": "Asian"
        } ]
      }, {
        "url": "http://hl7.org/fhir/us/core/StructureDefinition/us-core-ethnicity",
        "extension": [ {
          "url": "ombCategory",
          "valueCoding": {
            "system": "urn:oid:2.16.840.1.113883.6.238",
            "code": "2135-2",
            "display": "Hispanic or Latino"
          }
        }, {
          "url": "text",
          "valueString": "Hispanic or Latino"
        } ]
      }, {
        "url": "http://hl7.org/fhir/us/core/StructureDefinition/us-core-sex",
        "valueCode": "248152002"
      } ],
      "identifier": [ {
        "system": "http://hospital.smarthealthit.org",
        "value": "999999995"
      } ],
      "name": [ {
        "family": "Bertha",
        "given": [ "Betty" ]
      } ],
      "gender": "female",
      "birthDate": "2008-01-01"
    }
  }, {
    "fullUrl": "https://madie.cms.gov/Encounter/7e1d5b64-3688-4a3f-b717-69d603b99626",
    "resource": {
      "resourceType": "Encounter",
      "id": "7e1d5b64-3688-4a3f-b717-69d603b99626",
      "meta": {
        "profile": [ "http://hl7.org/fhir/us/qicore/StructureDefinition/qicore-encounter" ]
      },
      "status": "finished",
      "class": {
        "system": "http://terminology.hl7.org/CodeSystem/v3-ActCode",
        "code": "AMB",
        "display": "ambulatory"
      },
      "type": [ {
        "coding": [ {
          "system": "http://snomed.info/sct",
          "code": "185317003",
          "display": "Telephone encounter (procedure)"
        } ]
      } ],
      "subject": {
        "reference": "Patient/17de6744-31d5-479f-a677-a0f4a87f0515"
      },
      "period": {
        "start": "2026-01-01T01:00:00.000+00:00",
        "end": "2026-01-01T01:15:00.000+00:00"
      }
    }
  }, {
    "fullUrl": "https://madie.cms.gov/Encounter/e372cb3f-eb8f-465e-9d37-28207c217625",
    "resource": {
      "resourceType": "Encounter",
      "id": "e372cb3f-eb8f-465e-9d37-28207c217625",
      "meta": {
        "profile": [ "http://hl7.org/fhir/us/qicore/StructureDefinition/qicore-encounter" ]
      },
      "status": "finished",
      "class": {
        "system": "http://terminology.hl7.org/CodeSystem/v3-ActCode",
        "code": "AMB",
        "display": "ambulatory"
      },
      "type": [ {
        "coding": [ {
          "system": "http://snomed.info/sct",
          "code": "185317003",
          "display": "Telephone encounter (procedure)"
        } ]
      } ],
      "subject": {
        "reference": "Patient/17de6744-31d5-479f-a677-a0f4a87f0515"
      },
      "period": {
        "start": "2026-01-02T01:00:00.000+00:00",
        "end": "2026-01-02T01:15:00.000+00:00"
      }
    }
  }, {
    "fullUrl": "https://madie.cms.gov/Condition/35b20443-28dc-4df0-9a43-13ed9d065aa9",
    "resource": {
      "resourceType": "Condition",
      "id": "35b20443-28dc-4df0-9a43-13ed9d065aa9",
      "meta": {
        "profile": [ "http://hl7.org/fhir/us/qicore/StructureDefinition/qicore-condition-problems-health-concerns" ]
      },
      "clinicalStatus": {
        "coding": [ {
          "system": "http://terminology.hl7.org/CodeSystem/condition-clinical",
          "code": "active"
        } ]
      },
      "category": [ {
        "coding": [ {
          "system": "http://terminology.hl7.org/CodeSystem/condition-category",
          "code": "problem-list-item",
          "display": "Problem List Item"
        } ]
      } ],
      "code": {
        "coding": [ {
          "system": "http://snomed.info/sct",
          "version": "http://snomed.info/sct/731000124108/version/20250301",
          "code": "10091002",
          "display": "High output heart failure (disorder)"
        } ]
      },
      "subject": {
        "reference": "Patient/17de6744-31d5-479f-a677-a0f4a87f0515"
      },
      "onsetDateTime": "2025-12-31T23:59:00.000+00:00"
    }
  }, {
    "fullUrl": "https://madie.cms.gov/Observation/3f79124a-8846-424b-b1bb-5e62f3fa0cc0",
    "resource": {
      "resourceType": "Observation",
      "id": "3f79124a-8846-424b-b1bb-5e62f3fa0cc0",
      "meta": {
        "profile": [ "http://hl7.org/fhir/us/qicore/StructureDefinition/qicore-observation-screening-assessment" ]
      },
      "status": "final",
      "category": [ {
        "coding": [ {
          "system": "http://terminology.hl7.org/CodeSystem/observation-category",
          "code": "survey",
          "display": "survey"
        } ],
        "text": "survey"
      } ],
      "code": {
        "coding": [ {
          "system": "http://loinc.org",
          "code": "71940-1",
          "display": "Overall summary score [KCCQ]"
        } ]
      },
      "subject": {
        "reference": "Patient/17de6744-31d5-479f-a677-a0f4a87f0515"
      },
      "effectivePeriod": {
        "start": "2026-01-01T23:00:00.000+00:00",
        "end": "2026-01-01T23:59:00.000+00:00"
      },
      "valueInteger": 4
    }
  }, {
    "fullUrl": "https://madie.cms.gov/MeasureReport/c57f5e11-c3b1-4812-8971-f123de30d948",
    "resource": {
      "resourceType": "MeasureReport",
      "id": "c57f5e11-c3b1-4812-8971-f123de30d948",
      "meta": {
        "profile": [ "http://hl7.org/fhir/us/cqfmeasures/StructureDefinition/test-case-cqfm" ]
      },
      "contained": [ {
        "resourceType": "Parameters",
        "id": "7291fb50-43f0-42b2-923f-128e81a7e1e0-parameters",
        "parameter": [ {
          "name": "subject",
          "valueString": "17de6744-31d5-479f-a677-a0f4a87f0515"
        } ]
      } ],
      "extension": [ {
        "url": "http://hl7.org/fhir/StructureDefinition/cqf-inputParameters",
        "valueReference": {
          "reference": "#7291fb50-43f0-42b2-923f-128e81a7e1e0-parameters"
        }
      }, {
        "url": "http://hl7.org/fhir/us/cqfmeasures/StructureDefinition/cqfm-testCaseDescription",
        "valueMarkdown": "Patient is missing one KCCQ Total Score Assessments with results."
      } ],
      "modifierExtension": [ {
        "url": "http://hl7.org/fhir/us/cqfmeasures/StructureDefinition/cqfm-isTestCase",
        "valueBoolean": true
      } ],
      "status": "complete",
      "type": "individual",
      "measure": "https://madie.cms.gov/Measure/CMS90FHIRFSAforHeartFailure",
      "period": {
        "start": "2026-01-01",
        "end": "2026-12-31"
      },
      "group": [ {
        "id": "Group_1",
        "population": [ {
          "id": "InitialPopulation_1",
          "code": {
            "coding": [ {
              "system": "http://terminology.hl7.org/CodeSystem/measure-population",
              "code": "initial-population",
              "display": "Initial Population"
            } ]
          },
          "count": 1
        }, {
          "id": "Denominator_1",
          "code": {
            "coding": [ {
              "system": "http://terminology.hl7.org/CodeSystem/measure-population",
              "code": "denominator",
              "display": "Denominator"
            } ]
          },
          "count": 1
        }, {
          "id": "DenominatorExclusion_1",
          "code": {
            "coding": [ {
              "system": "http://terminology.hl7.org/CodeSystem/measure-population",
              "code": "denominator-exclusion",
              "display": "Denominator Exclusion"
            } ]
          },
          "count": 0
        }, {
          "id": "Numerator_1",
          "code": {
            "coding": [ {
              "system": "http://terminology.hl7.org/CodeSystem/measure-population",
              "code": "numerator",
              "display": "Numerator"
            } ]
          },
          "count": 0
        } ],
        "measureScore": {
          "value": 1.0
        }
      } ],
      "evaluatedResource": [ {
        "reference": "Patient/17de6744-31d5-479f-a677-a0f4a87f0515"
      }, {
        "reference": "Encounter/7e1d5b64-3688-4a3f-b717-69d603b99626"
      }, {
        "reference": "Encounter/e372cb3f-eb8f-465e-9d37-28207c217625"
      }, {
        "reference": "Condition/35b20443-28dc-4df0-9a43-13ed9d065aa9"
      }, {
        "reference": "Observation/3f79124a-8846-424b-b1bb-5e62f3fa0cc0"
      } ]
    }
  } ]
}