{
  "resourceType": "Bundle",
  "id": "6109650598086b538055a0fd",
  "type": "transaction",
  "entry": [ {
    "fullUrl": "https://madie.cms.gov/Patient/a5c98189-aa29-4945-a2de-47c62ba4dec9",
    "resource": {
      "resourceType": "Patient",
      "id": "a5c98189-aa29-4945-a2de-47c62ba4dec9",
      "meta": {
        "profile": [ "http://hl7.org/fhir/us/qicore/StructureDefinition/qicore-patient" ]
      },
      "text": {
        "status": "generated",
        "div": "<div xmlns=\"http://www.w3.org/1999/xhtml\"><div class=\"hapiHeaderText\">EncAfterMP <b>IPPFAIL </b></div><table class=\"hapiPropertyTable\"><tbody><tr><td>Identifier</td><td>1d040d00d80e6dc1ce0a98a28e54fe43</td></tr><tr><td>Date of birth</td><td><span>13 December 2003</span></td></tr></tbody></table></div>"
      },
      "extension": [ {
        "url": "http://hl7.org/fhir/us/core/StructureDefinition/us-core-race",
        "extension": [ {
          "url": "ombCategory",
          "valueCoding": {
            "system": "urn:oid:2.16.840.1.113883.6.238",
            "code": "1002-5",
            "display": "American Indian or Alaska Native",
            "userSelected": true
          }
        }, {
          "url": "text",
          "valueString": "American Indian or Alaska Native"
        } ]
      }, {
        "url": "http://hl7.org/fhir/us/core/StructureDefinition/us-core-ethnicity",
        "extension": [ {
          "url": "ombCategory",
          "valueCoding": {
            "system": "urn:oid:2.16.840.1.113883.6.238",
            "code": "2186-5",
            "display": "Not Hispanic or Latino",
            "userSelected": true
          }
        }, {
          "url": "text",
          "valueString": "Not Hispanic or Latino"
        } ]
      } ],
      "identifier": [ {
        "type": {
          "coding": [ {
            "system": "http://terminology.hl7.org/CodeSystem/v2-0203",
            "code": "MR"
          } ]
        },
        "system": "https://bonnie-fhir.healthit.gov/",
        "value": "6109650598086b538055a0fd"
      } ],
      "active": true,
      "name": [ {
        "use": "usual",
        "family": "IPFail",
        "given": [ "EncAfterMP" ]
      } ],
      "gender": "female",
      "birthDate": "2008-12-13"
    },
    "request": {
      "method": "PUT",
      "url": "Patient/a5c98189-aa29-4945-a2de-47c62ba4dec9"
    }
  }, {
    "fullUrl": "https://madie.cms.gov/Encounter/e4b07d2a-f89b-4279-9c1f-61381ea592a2",
    "resource": {
      "resourceType": "Encounter",
      "id": "e4b07d2a-f89b-4279-9c1f-61381ea592a2",
      "status": "finished",
      "class": {
        "system": "http://terminology.hl7.org/CodeSystem/v3-ActCode",
        "code": "AMB",
        "display": "ambulatory",
        "userSelected": true
      },
      "type": [ {
        "coding": [ {
          "system": "http://www.ama-assn.org/go/cpt",
          "code": "90846",
          "userSelected": true
        } ]
      } ],
      "subject": {
        "reference": "Patient/a5c98189-aa29-4945-a2de-47c62ba4dec9"
      },
      "period": {
        "start": "2026-02-01T08:00:00.000+00:00",
        "end": "2026-02-01T08:15:00.000+00:00"
      },
      "diagnosis": [ {
        "condition": {
          "reference": "Condition/a42f47af-8a11-47a1-b0ae-b39144658370"
        },
        "use": {
          "coding": [ {
            "system": "http://snomed.info/sct",
            "version": "2022-09",
            "code": "10811161000119107",
            "display": "Major depressive disorder in mother complicating pregnancy (disorder)",
            "userSelected": true
          } ]
        }
      } ]
    },
    "request": {
      "method": "PUT",
      "url": "Encounter/e4b07d2a-f89b-4279-9c1f-61381ea592a2"
    }
  }, {
    "fullUrl": "https://madie.cms.gov/Condition/a42f47af-8a11-47a1-b0ae-b39144658370",
    "resource": {
      "resourceType": "Condition",
      "id": "a42f47af-8a11-47a1-b0ae-b39144658370",
      "category": [ {
        "coding": [ {
          "system": "http://terminology.hl7.org/CodeSystem/condition-category",
          "code": "encounter-diagnosis",
          "display": "Encounter Diagnosis"
        } ]
      } ],
      "code": {
        "coding": [ {
          "system": "http://snomed.info/sct",
          "version": "2022-09",
          "code": "10811121000119102",
          "display": "Major depressive disorder in mother complicating childbirth (disorder)",
          "userSelected": true
        } ]
      },
      "subject": {
        "reference": "Patient/a5c98189-aa29-4945-a2de-47c62ba4dec9"
      },
      "recordedDate": "2026-02-01T08:00:00.000+00:00"
    },
    "request": {
      "method": "PUT",
      "url": "Condition/a42f47af-8a11-47a1-b0ae-b39144658370"
    }
  }, {
    "fullUrl": "https://madie.cms.gov/Procedure/2ecc52d9-995c-449d-a732-593ed2eefa66",
    "resource": {
      "resourceType": "Procedure",
      "id": "2ecc52d9-995c-449d-a732-593ed2eefa66",
      "status": "completed",
      "code": {
        "coding": [ {
          "system": "http://snomed.info/sct",
          "code": "225337009",
          "display": "Suicide risk assessment (procedure)",
          "userSelected": true
        } ]
      },
      "subject": {
        "reference": "Patient/a5c98189-aa29-4945-a2de-47c62ba4dec9"
      },
      "performedPeriod": {
        "start": "2025-02-10T08:00:00.000+00:00",
        "end": "2025-02-10T08:15:00.000+00:00"
      }
    },
    "request": {
      "method": "PUT",
      "url": "Procedure/2ecc52d9-995c-449d-a732-593ed2eefa66"
    }
  }, {
    "fullUrl": "https://madie.cms.gov/Coverage/6cd8b00c-da21-498e-8238-a684455908d7",
    "resource": {
      "resourceType": "Coverage",
      "id": "6cd8b00c-da21-498e-8238-a684455908d7",
      "meta": {
        "profile": [ "http://hl7.org/fhir/us/qicore/StructureDefinition/qicore-coverage" ]
      },
      "status": "active",
      "beneficiary": {
        "reference": "Patient/a5c98189-aa29-4945-a2de-47c62ba4dec9"
      },
      "payor": [ {
        "reference": "Organization/9cfc83a0-c387-451a-9783-55a8bc07422d"
      } ]
    },
    "request": {
      "method": "PUT",
      "url": "Coverage/6cd8b00c-da21-498e-8238-a684455908d7"
    }
  }, {
    "fullUrl": "https://madie.cms.gov/Organization/9cfc83a0-c387-451a-9783-55a8bc07422d",
    "resource": {
      "resourceType": "Organization",
      "id": "9cfc83a0-c387-451a-9783-55a8bc07422d",
      "meta": {
        "profile": [ "http://hl7.org/fhir/us/qicore/StructureDefinition/qicore-organization" ]
      },
      "identifier": [ {
        "use": "temp",
        "system": "urn:oid:2.16.840.1.113883.4.4",
        "value": "21-3259825"
      } ],
      "active": true,
      "type": [ {
        "coding": [ {
          "system": "http://terminology.hl7.org/CodeSystem/organization-type",
          "code": "pay",
          "display": "Payer"
        } ]
      } ],
      "name": "Blue Cross Blue Shield of Texas",
      "telecom": [ {
        "system": "phone",
        "value": "(+1) 972-766-6900"
      } ],
      "address": [ {
        "use": "billing",
        "type": "postal",
        "line": [ "P.O. Box 660044" ],
        "city": "Dallas",
        "state": "TX",
        "postalCode": "75266-0044",
        "country": "USA"
      } ]
    },
    "request": {
      "method": "PUT",
      "url": "Organization/9cfc83a0-c387-451a-9783-55a8bc07422d"
    }
  }, {
    "fullUrl": "https://madie.cms.gov/Practitioner/9bea67f4-12ea-4989-89a7-593d928769e3",
    "resource": {
      "resourceType": "Practitioner",
      "id": "9bea67f4-12ea-4989-89a7-593d928769e3",
      "identifier": [ {
        "system": "http://hl7.org/fhir/sid/us-npi",
        "value": "123456"
      } ],
      "name": [ {
        "family": "Evil",
        "prefix": [ "Dr" ]
      } ]
    },
    "request": {
      "method": "PUT",
      "url": "Practitioner/9bea67f4-12ea-4989-89a7-593d928769e3"
    }
  }, {
    "fullUrl": "https://madie.cms.gov/MeasureReport/476c7851-80eb-4588-9402-0ec2ba1b8d8c",
    "resource": {
      "resourceType": "MeasureReport",
      "id": "476c7851-80eb-4588-9402-0ec2ba1b8d8c",
      "meta": {
        "profile": [ "http://hl7.org/fhir/us/cqfmeasures/StructureDefinition/test-case-cqfm" ]
      },
      "contained": [ {
        "resourceType": "Parameters",
        "id": "7d9aa2ea-dc13-4991-a12f-14c30dde61be-parameters",
        "parameter": [ {
          "name": "subject",
          "valueString": "a5c98189-aa29-4945-a2de-47c62ba4dec9"
        } ]
      } ],
      "extension": [ {
        "url": "http://hl7.org/fhir/StructureDefinition/cqf-inputParameters",
        "valueReference": {
          "reference": "#7d9aa2ea-dc13-4991-a12f-14c30dde61be-parameters"
        }
      }, {
        "url": "http://hl7.org/fhir/us/cqfmeasures/StructureDefinition/cqfm-testCaseDescription",
        "valueMarkdown": "Patient with depression diagnosis during psych family encounter after MP"
      } ],
      "modifierExtension": [ {
        "url": "http://hl7.org/fhir/us/cqfmeasures/StructureDefinition/cqfm-isTestCase",
        "valueBoolean": true
      } ],
      "status": "complete",
      "type": "individual",
      "measure": "https://madie.cms.gov/Measure/CMS177FHIRChildMDDSuicideAssmt",
      "period": {
        "start": "2026-01-01",
        "end": "2026-12-31"
      },
      "group": [ {
        "id": "Group_1",
        "population": [ {
          "id": "InitialPopulation_1",
          "code": {
            "coding": [ {
              "system": "http://terminology.hl7.org/CodeSystem/measure-population",
              "code": "initial-population",
              "display": "Initial Population"
            } ]
          },
          "count": 0
        }, {
          "id": "Denominator_1",
          "code": {
            "coding": [ {
              "system": "http://terminology.hl7.org/CodeSystem/measure-population",
              "code": "denominator",
              "display": "Denominator"
            } ]
          },
          "count": 0
        }, {
          "id": "Numerator_1",
          "code": {
            "coding": [ {
              "system": "http://terminology.hl7.org/CodeSystem/measure-population",
              "code": "numerator",
              "display": "Numerator"
            } ]
          },
          "count": 0
        } ],
        "measureScore": {
          "value": 0.0
        }
      } ],
      "evaluatedResource": [ {
        "reference": "Patient/a5c98189-aa29-4945-a2de-47c62ba4dec9"
      }, {
        "reference": "Encounter/e4b07d2a-f89b-4279-9c1f-61381ea592a2"
      }, {
        "reference": "Condition/a42f47af-8a11-47a1-b0ae-b39144658370"
      }, {
        "reference": "Procedure/2ecc52d9-995c-449d-a732-593ed2eefa66"
      }, {
        "reference": "Coverage/6cd8b00c-da21-498e-8238-a684455908d7"
      }, {
        "reference": "Organization/9cfc83a0-c387-451a-9783-55a8bc07422d"
      }, {
        "reference": "Practitioner/9bea67f4-12ea-4989-89a7-593d928769e3"
      } ]
    },
    "request": {
      "method": "PUT",
      "url": "MeasureReport/476c7851-80eb-4588-9402-0ec2ba1b8d8c"
    }
  } ]
}