{
  "resourceType": "Bundle",
  "id": "63487c300968f801225401c8",
  "type": "transaction",
  "entry": [ {
    "fullUrl": "https://madie.cms.gov/Patient/3e42d89a-425c-4a96-8604-74aaafcca8f8",
    "resource": {
      "resourceType": "Patient",
      "id": "3e42d89a-425c-4a96-8604-74aaafcca8f8",
      "meta": {
        "profile": [ "http://hl7.org/fhir/us/qicore/StructureDefinition/qicore-patient" ]
      },
      "text": {
        "status": "generated",
        "div": "<div xmlns=\"http://www.w3.org/1999/xhtml\"><div class=\"hapiHeaderText\">AssessPreTermLastResultIsNull <b>DENPASS </b></div><table class=\"hapiPropertyTable\"><tbody><tr><td>Identifier</td><td>68ae6e24f0fface97c058e998841dc5fd1e621f11f5d5bc2aeef1a3a248ebc14</td></tr><tr><td>Date of birth</td><td><span>14 February 1985</span></td></tr></tbody></table></div>"
      },
      "extension": [ {
        "url": "http://hl7.org/fhir/us/core/StructureDefinition/us-core-race",
        "extension": [ {
          "url": "ombCategory",
          "valueCoding": {
            "system": "urn:oid:2.16.840.1.113883.6.238",
            "code": "1002-5",
            "display": "American Indian or Alaska Native",
            "userSelected": true
          }
        }, {
          "url": "text",
          "valueString": "American Indian or Alaska Native"
        } ]
      }, {
        "url": "http://hl7.org/fhir/us/core/StructureDefinition/us-core-ethnicity",
        "extension": [ {
          "url": "ombCategory",
          "valueCoding": {
            "system": "urn:oid:2.16.840.1.113883.6.238",
            "code": "2135-2",
            "display": "Hispanic or Latino",
            "userSelected": true
          }
        }, {
          "url": "text",
          "valueString": "Hispanic or Latino"
        } ]
      } ],
      "identifier": [ {
        "type": {
          "coding": [ {
            "system": "http://terminology.hl7.org/CodeSystem/v2-0203",
            "code": "MR"
          } ]
        },
        "system": "https://bonnie-fhir.healthit.gov/",
        "value": "63487c300968f801225401c8"
      } ],
      "active": true,
      "name": [ {
        "use": "usual",
        "family": "DENPass",
        "given": [ "AssessPreTermLastResultIsNull" ]
      } ],
      "gender": "female",
      "birthDate": "1998-02-14"
    },
    "request": {
      "method": "PUT",
      "url": "Patient/3e42d89a-425c-4a96-8604-74aaafcca8f8"
    }
  }, {
    "fullUrl": "https://madie.cms.gov/Observation/2912d79e-f80f-464e-aa4a-dba79baee6e6",
    "resource": {
      "resourceType": "Observation",
      "id": "2912d79e-f80f-464e-aa4a-dba79baee6e6",
      "meta": {
        "profile": [ "http://hl7.org/fhir/us/qicore/StructureDefinition/qicore-simple-observation" ]
      },
      "status": "final",
      "category": [ {
        "coding": [ {
          "system": "http://terminology.hl7.org/CodeSystem/observation-category",
          "code": "exam",
          "display": "exam",
          "userSelected": true
        } ]
      } ],
      "code": {
        "coding": [ {
          "system": "http://loinc.org",
          "code": "11639-2"
        } ]
      },
      "subject": {
        "reference": "Patient/3e42d89a-425c-4a96-8604-74aaafcca8f8"
      },
      "effectiveDateTime": "2025-09-19T09:00:00.000+00:00",
      "valueInteger": 0
    },
    "request": {
      "method": "PUT",
      "url": "Observation/2912d79e-f80f-464e-aa4a-dba79baee6e6"
    }
  }, {
    "fullUrl": "https://madie.cms.gov/Observation/61f93d84-5fea-4cb4-aa98-704d18d174d3",
    "resource": {
      "resourceType": "Observation",
      "id": "61f93d84-5fea-4cb4-aa98-704d18d174d3",
      "meta": {
        "profile": [ "http://hl7.org/fhir/us/qicore/StructureDefinition/qicore-simple-observation" ]
      },
      "status": "final",
      "category": [ {
        "coding": [ {
          "system": "http://terminology.hl7.org/CodeSystem/observation-category",
          "code": "exam",
          "display": "exam",
          "userSelected": true
        } ]
      } ],
      "code": {
        "coding": [ {
          "system": "http://loinc.org",
          "code": "11637-6"
        } ]
      },
      "subject": {
        "reference": "Patient/3e42d89a-425c-4a96-8604-74aaafcca8f8"
      },
      "effectiveDateTime": "2026-06-08T09:00:00.000+00:00"
    },
    "request": {
      "method": "PUT",
      "url": "Observation/61f93d84-5fea-4cb4-aa98-704d18d174d3"
    }
  }, {
    "fullUrl": "https://madie.cms.gov/Observation/6e15856c-454b-4d1e-90b0-97dfeed08cf4",
    "resource": {
      "resourceType": "Observation",
      "id": "6e15856c-454b-4d1e-90b0-97dfeed08cf4",
      "meta": {
        "profile": [ "http://hl7.org/fhir/us/qicore/StructureDefinition/qicore-simple-observation" ]
      },
      "status": "final",
      "category": [ {
        "coding": [ {
          "system": "http://terminology.hl7.org/CodeSystem/observation-category",
          "code": "exam",
          "display": "exam",
          "userSelected": true
        } ]
      } ],
      "code": {
        "coding": [ {
          "system": "http://loinc.org",
          "code": "11884-4"
        } ]
      },
      "subject": {
        "reference": "Patient/3e42d89a-425c-4a96-8604-74aaafcca8f8"
      },
      "effectiveDateTime": "2026-06-08T20:00:00.000+00:00",
      "valueQuantity": {
        "value": 37,
        "system": "http://unitsofmeasure.org",
        "code": "wk"
      }
    },
    "request": {
      "method": "PUT",
      "url": "Observation/6e15856c-454b-4d1e-90b0-97dfeed08cf4"
    }
  }, {
    "fullUrl": "https://madie.cms.gov/Observation/e1138e1a-bac0-49ad-8705-afea84cd25aa",
    "resource": {
      "resourceType": "Observation",
      "id": "e1138e1a-bac0-49ad-8705-afea84cd25aa",
      "meta": {
        "profile": [ "http://hl7.org/fhir/us/qicore/StructureDefinition/qicore-simple-observation" ]
      },
      "status": "final",
      "category": [ {
        "coding": [ {
          "system": "http://terminology.hl7.org/CodeSystem/observation-category",
          "code": "exam",
          "display": "exam",
          "userSelected": true
        } ]
      } ],
      "code": {
        "coding": [ {
          "system": "http://loinc.org",
          "code": "93857-1"
        } ]
      },
      "subject": {
        "reference": "Patient/3e42d89a-425c-4a96-8604-74aaafcca8f8"
      },
      "effectiveDateTime": "2026-06-08T20:00:00.000+00:00",
      "valueDateTime": "2026-06-08T20:00:00.000+00:00"
    },
    "request": {
      "method": "PUT",
      "url": "Observation/e1138e1a-bac0-49ad-8705-afea84cd25aa"
    }
  }, {
    "fullUrl": "https://madie.cms.gov/Observation/8512b6bf-3f03-4308-9fed-9ca77bad4ba2",
    "resource": {
      "resourceType": "Observation",
      "id": "8512b6bf-3f03-4308-9fed-9ca77bad4ba2",
      "meta": {
        "profile": [ "http://hl7.org/fhir/us/qicore/StructureDefinition/qicore-simple-observation" ]
      },
      "status": "final",
      "category": [ {
        "coding": [ {
          "system": "http://terminology.hl7.org/CodeSystem/observation-category",
          "code": "exam",
          "display": "exam",
          "userSelected": true
        } ]
      } ],
      "code": {
        "coding": [ {
          "system": "http://loinc.org",
          "code": "11637-6"
        } ]
      },
      "subject": {
        "reference": "Patient/3e42d89a-425c-4a96-8604-74aaafcca8f8"
      },
      "effectiveDateTime": "2026-06-08T08:00:00.000+00:00",
      "valueInteger": 0
    },
    "request": {
      "method": "PUT",
      "url": "Observation/8512b6bf-3f03-4308-9fed-9ca77bad4ba2"
    }
  }, {
    "fullUrl": "https://madie.cms.gov/Encounter/d7dd39d3-cdea-477d-b39f-7ae3588ba001",
    "resource": {
      "resourceType": "Encounter",
      "id": "d7dd39d3-cdea-477d-b39f-7ae3588ba001",
      "meta": {
        "profile": [ "http://hl7.org/fhir/us/qicore/StructureDefinition/qicore-encounter" ]
      },
      "status": "finished",
      "class": {
        "system": "http://terminology.hl7.org/CodeSystem/v3-ActCode",
        "code": "IMP",
        "display": "inpatient encounter"
      },
      "type": [ {
        "coding": [ {
          "system": "http://snomed.info/sct",
          "code": "8715000"
        } ]
      } ],
      "subject": {
        "reference": "Patient/3e42d89a-425c-4a96-8604-74aaafcca8f8"
      },
      "period": {
        "start": "2026-06-08T08:00:00.000+00:00",
        "end": "2026-06-10T08:15:00.000+00:00"
      },
      "length": {
        "value": 2,
        "unit": "days"
      },
      "reasonReference": [ {
        "reference": "Condition/36906b0c-3b6b-40fd-bca2-238bfb93d650"
      } ]
    },
    "request": {
      "method": "PUT",
      "url": "Encounter/d7dd39d3-cdea-477d-b39f-7ae3588ba001"
    }
  }, {
    "fullUrl": "https://madie.cms.gov/Procedure/7154821f-e3dd-44c4-b2a6-d7a3fd30c2d0",
    "resource": {
      "resourceType": "Procedure",
      "id": "7154821f-e3dd-44c4-b2a6-d7a3fd30c2d0",
      "meta": {
        "profile": [ "http://hl7.org/fhir/us/qicore/StructureDefinition/qicore-procedure" ]
      },
      "extension": [ {
        "url": "http://hl7.org/fhir/us/qicore/StructureDefinition/qicore-recorded",
        "valueDateTime": "2014-04-05T13:35:00.000+00:00"
      } ],
      "status": "completed",
      "code": {
        "coding": [ {
          "system": "http://www.cms.gov/Medicare/Coding/ICD10",
          "code": "10D00Z0"
        }, {
          "system": "http://snomed.info/sct",
          "code": "4504004"
        } ]
      },
      "subject": {
        "reference": "Patient/3e42d89a-425c-4a96-8604-74aaafcca8f8"
      },
      "performedPeriod": {
        "start": "2026-06-08T20:00:00.000+00:00",
        "end": "2026-06-08T20:15:00.000+00:00"
      }
    },
    "request": {
      "method": "PUT",
      "url": "Procedure/7154821f-e3dd-44c4-b2a6-d7a3fd30c2d0"
    }
  }, {
    "fullUrl": "https://madie.cms.gov/Condition/36906b0c-3b6b-40fd-bca2-238bfb93d650",
    "resource": {
      "resourceType": "Condition",
      "id": "36906b0c-3b6b-40fd-bca2-238bfb93d650",
      "meta": {
        "profile": [ "http://hl7.org/fhir/us/qicore/StructureDefinition/qicore-condition-encounter-diagnosis" ]
      },
      "category": [ {
        "coding": [ {
          "system": "http://terminology.hl7.org/CodeSystem/condition-category",
          "code": "encounter-diagnosis",
          "display": "Encounter Diagnosis"
        } ]
      } ],
      "code": {
        "coding": [ {
          "system": "http://snomed.info/sct",
          "version": "2022-09",
          "code": "169826009",
          "display": "Single live birth from singleton pregnancy (finding)",
          "userSelected": true
        } ]
      },
      "subject": {
        "reference": "Patient/3e42d89a-425c-4a96-8604-74aaafcca8f8"
      },
      "encounter": {
        "reference": "Encounter/d7dd39d3-cdea-477d-b39f-7ae3588ba001"
      },
      "recordedDate": "2026-10-20T08:00:00.000+00:00"
    },
    "request": {
      "method": "PUT",
      "url": "Condition/36906b0c-3b6b-40fd-bca2-238bfb93d650"
    }
  }, {
    "fullUrl": "https://madie.cms.gov/Coverage/5b1a00b9-f059-41c3-a8ba-b77f5099a93f",
    "resource": {
      "resourceType": "Coverage",
      "id": "5b1a00b9-f059-41c3-a8ba-b77f5099a93f",
      "meta": {
        "profile": [ "http://hl7.org/fhir/us/qicore/StructureDefinition/qicore-coverage" ]
      },
      "status": "active",
      "subscriberId": "523435",
      "beneficiary": {
        "reference": "Patient/3e42d89a-425c-4a96-8604-74aaafcca8f8"
      },
      "relationship": {
        "coding": [ {
          "system": "http://terminology.hl7.org/CodeSystem/subscriber-relationship",
          "code": "self"
        } ]
      },
      "payor": [ {
        "reference": "Organization/3fd6a28c-a711-4826-a95b-85578d50ad24"
      } ]
    },
    "request": {
      "method": "PUT",
      "url": "Coverage/5b1a00b9-f059-41c3-a8ba-b77f5099a93f"
    }
  }, {
    "fullUrl": "https://madie.cms.gov/Organization/3fd6a28c-a711-4826-a95b-85578d50ad24",
    "resource": {
      "resourceType": "Organization",
      "id": "3fd6a28c-a711-4826-a95b-85578d50ad24",
      "meta": {
        "profile": [ "http://hl7.org/fhir/us/qicore/StructureDefinition/qicore-organization" ]
      },
      "identifier": [ {
        "use": "temp",
        "system": "urn:oid:2.16.840.1.113883.4.4",
        "value": "21-3259825"
      } ],
      "active": true,
      "type": [ {
        "coding": [ {
          "system": "http://terminology.hl7.org/CodeSystem/organization-type",
          "code": "pay",
          "display": "Payer"
        } ]
      } ],
      "name": "Blue Cross Blue Shield of Texas",
      "telecom": [ {
        "system": "phone",
        "value": "(+1) 972-766-6900"
      } ],
      "address": [ {
        "use": "billing",
        "type": "postal",
        "line": [ "P.O. Box 660044" ],
        "city": "Dallas",
        "state": "TX",
        "postalCode": "75266-0044",
        "country": "USA"
      } ]
    },
    "request": {
      "method": "PUT",
      "url": "Organization/3fd6a28c-a711-4826-a95b-85578d50ad24"
    }
  }, {
    "fullUrl": "https://madie.cms.gov/Practitioner/0549682e-0acf-4680-8f5e-cbd70d352b21",
    "resource": {
      "resourceType": "Practitioner",
      "id": "0549682e-0acf-4680-8f5e-cbd70d352b21",
      "meta": {
        "profile": [ "http://hl7.org/fhir/us/qicore/StructureDefinition/qicore-practitioner" ]
      },
      "identifier": [ {
        "system": "http://hl7.org/fhir/sid/us-npi",
        "value": "1234567890"
      } ],
      "name": [ {
        "family": "Evil",
        "prefix": [ "Dr" ]
      } ]
    },
    "request": {
      "method": "PUT",
      "url": "Practitioner/0549682e-0acf-4680-8f5e-cbd70d352b21"
    }
  }, {
    "fullUrl": "https://madie.cms.gov/MeasureReport/e9de500f-2631-4f5b-9e0a-c0fdc74fbc86",
    "resource": {
      "resourceType": "MeasureReport",
      "id": "e9de500f-2631-4f5b-9e0a-c0fdc74fbc86",
      "meta": {
        "profile": [ "http://hl7.org/fhir/us/cqfmeasures/StructureDefinition/test-case-cqfm" ]
      },
      "contained": [ {
        "resourceType": "Parameters",
        "id": "89f2ed5c-c2c4-44ce-a3e4-2d79255e45ab-parameters",
        "parameter": [ {
          "name": "subject",
          "valueString": "3e42d89a-425c-4a96-8604-74aaafcca8f8"
        } ]
      } ],
      "extension": [ {
        "url": "http://hl7.org/fhir/StructureDefinition/cqf-inputParameters",
        "valueReference": {
          "reference": "#89f2ed5c-c2c4-44ce-a3e4-2d79255e45ab-parameters"
        }
      }, {
        "url": "http://hl7.org/fhir/us/cqfmeasures/StructureDefinition/cqfm-testCaseDescription",
        "valueMarkdown": "\"Preterm Births is null, relevant date/time before Asse delivery datetime\nTerm Newborn=0, authored < 42weeks prior to Asse delivery\"\n"
      } ],
      "modifierExtension": [ {
        "url": "http://hl7.org/fhir/us/cqfmeasures/StructureDefinition/cqfm-isTestCase",
        "valueBoolean": true
      } ],
      "status": "complete",
      "type": "individual",
      "measure": "https://madie.cms.gov/Measure/CMS0334FHIRPCCesareanBirth",
      "period": {
        "start": "2026-01-01",
        "end": "2026-12-31"
      },
      "group": [ {
        "id": "Group_1",
        "population": [ {
          "id": "InitialPopulation_1",
          "code": {
            "coding": [ {
              "system": "http://terminology.hl7.org/CodeSystem/measure-population",
              "code": "initial-population",
              "display": "Initial Population"
            } ]
          },
          "count": 1
        }, {
          "id": "Denominator_1",
          "code": {
            "coding": [ {
              "system": "http://terminology.hl7.org/CodeSystem/measure-population",
              "code": "denominator",
              "display": "Denominator"
            } ]
          },
          "count": 1
        }, {
          "id": "DenominatorExclusion_1",
          "code": {
            "coding": [ {
              "system": "http://terminology.hl7.org/CodeSystem/measure-population",
              "code": "denominator-exclusion",
              "display": "Denominator Exclusion"
            } ]
          },
          "count": 0
        }, {
          "id": "Numerator_1",
          "code": {
            "coding": [ {
              "system": "http://terminology.hl7.org/CodeSystem/measure-population",
              "code": "numerator",
              "display": "Numerator"
            } ]
          },
          "count": 1
        } ],
        "measureScore": {
          "value": 0.0
        }
      } ],
      "evaluatedResource": [ {
        "reference": "Patient/3e42d89a-425c-4a96-8604-74aaafcca8f8"
      }, {
        "reference": "Observation/2912d79e-f80f-464e-aa4a-dba79baee6e6"
      }, {
        "reference": "Observation/61f93d84-5fea-4cb4-aa98-704d18d174d3"
      }, {
        "reference": "Observation/6e15856c-454b-4d1e-90b0-97dfeed08cf4"
      }, {
        "reference": "Observation/e1138e1a-bac0-49ad-8705-afea84cd25aa"
      }, {
        "reference": "Observation/8512b6bf-3f03-4308-9fed-9ca77bad4ba2"
      }, {
        "reference": "Encounter/d7dd39d3-cdea-477d-b39f-7ae3588ba001"
      }, {
        "reference": "Procedure/7154821f-e3dd-44c4-b2a6-d7a3fd30c2d0"
      }, {
        "reference": "Condition/36906b0c-3b6b-40fd-bca2-238bfb93d650"
      }, {
        "reference": "Coverage/5b1a00b9-f059-41c3-a8ba-b77f5099a93f"
      }, {
        "reference": "Organization/3fd6a28c-a711-4826-a95b-85578d50ad24"
      }, {
        "reference": "Practitioner/0549682e-0acf-4680-8f5e-cbd70d352b21"
      } ]
    },
    "request": {
      "method": "PUT",
      "url": "MeasureReport/e9de500f-2631-4f5b-9e0a-c0fdc74fbc86"
    }
  } ]
}