{
  "resourceType": "Bundle",
  "id": "617be8bd1619a529957d62ba",
  "type": "transaction",
  "entry": [ {
    "fullUrl": "https://madie.cms.gov/Patient/a5a0b1e6-fd91-4eaa-9019-618ddd0b8455",
    "resource": {
      "resourceType": "Patient",
      "id": "a5a0b1e6-fd91-4eaa-9019-618ddd0b8455",
      "meta": {
        "profile": [ "http://hl7.org/fhir/us/qicore/StructureDefinition/qicore-patient" ]
      },
      "extension": [ {
        "url": "http://hl7.org/fhir/us/core/StructureDefinition/us-core-race",
        "extension": [ {
          "url": "ombCategory",
          "valueCoding": {
            "system": "urn:oid:2.16.840.1.113883.6.238",
            "code": "2076-8",
            "display": "Native Hawaiian or Other Pacific Islander",
            "userSelected": true
          }
        }, {
          "url": "text",
          "valueString": "Native Hawaiian or Other Pacific Islander"
        } ]
      }, {
        "url": "http://hl7.org/fhir/us/core/StructureDefinition/us-core-ethnicity",
        "extension": [ {
          "url": "ombCategory",
          "valueCoding": {
            "system": "urn:oid:2.16.840.1.113883.6.238",
            "code": "2186-5",
            "display": "Not Hispanic or Latino",
            "userSelected": true
          }
        }, {
          "url": "text",
          "valueString": "Not Hispanic or Latino"
        } ]
      }, {
        "url": "http://hl7.org/fhir/us/core/StructureDefinition/us-core-sex",
        "valueCode": "248152002"
      } ],
      "identifier": [ {
        "type": {
          "coding": [ {
            "system": "http://terminology.hl7.org/CodeSystem/v2-0203",
            "code": "MR"
          } ]
        },
        "system": "https://bonnie-fhir.healthit.gov/",
        "value": "617be8bd1619a529957d62ba"
      } ],
      "name": [ {
        "family": "DenExcl7Fail",
        "given": [ "DxStartsDuringEDNoEnd" ]
      } ],
      "gender": "female",
      "birthDate": "1985-12-02"
    },
    "request": {
      "method": "PUT",
      "url": "Patient/a5a0b1e6-fd91-4eaa-9019-618ddd0b8455"
    }
  }, {
    "fullUrl": "https://madie.cms.gov/Encounter/3c2d31ac-0a00-41d4-bd75-37ba7e4bde82",
    "resource": {
      "resourceType": "Encounter",
      "id": "3c2d31ac-0a00-41d4-bd75-37ba7e4bde82",
      "meta": {
        "profile": [ "http://hl7.org/fhir/us/qicore/StructureDefinition/qicore-encounter" ]
      },
      "status": "finished",
      "class": {
        "system": "http://terminology.hl7.org/CodeSystem/v3-ActCode",
        "code": "EMER",
        "display": "emergency",
        "userSelected": true
      },
      "type": [ {
        "coding": [ {
          "system": "http://snomed.info/sct",
          "version": "2020-09",
          "code": "4525004",
          "display": "Emergency department patient visit (procedure)",
          "userSelected": true
        } ]
      } ],
      "subject": {
        "reference": "Patient/a5a0b1e6-fd91-4eaa-9019-618ddd0b8455"
      },
      "period": {
        "start": "2026-10-09T08:05:00.000+00:00",
        "end": "2026-10-10T07:15:00.000+00:00"
      },
      "reasonReference": [ {
        "reference": "Condition/885ceaf5-6f70-42f4-b58c-87045f82125b"
      } ]
    },
    "request": {
      "method": "PUT",
      "url": "Encounter/3c2d31ac-0a00-41d4-bd75-37ba7e4bde82"
    }
  }, {
    "fullUrl": "https://madie.cms.gov/Condition/885ceaf5-6f70-42f4-b58c-87045f82125b",
    "resource": {
      "resourceType": "Condition",
      "id": "885ceaf5-6f70-42f4-b58c-87045f82125b",
      "meta": {
        "profile": [ "http://hl7.org/fhir/us/qicore/StructureDefinition/qicore-condition-problems-health-concerns" ]
      },
      "clinicalStatus": {
        "coding": [ {
          "system": "http://terminology.hl7.org/CodeSystem/condition-clinical",
          "code": "active",
          "display": "active",
          "userSelected": true
        } ]
      },
      "category": [ {
        "coding": [ {
          "system": "http://terminology.hl7.org/CodeSystem/condition-category",
          "code": "problem-list-item",
          "display": "Problem List Item",
          "userSelected": true
        } ]
      } ],
      "code": {
        "coding": [ {
          "system": "http://snomed.info/sct",
          "version": "2020-09",
          "code": "401303003",
          "display": "Acute ST segment elevation myocardial infarction (disorder)",
          "userSelected": true
        } ]
      },
      "subject": {
        "reference": "Patient/a5a0b1e6-fd91-4eaa-9019-618ddd0b8455"
      },
      "onsetDateTime": "2026-10-09T08:30:00.000+00:00"
    },
    "request": {
      "method": "PUT",
      "url": "Condition/885ceaf5-6f70-42f4-b58c-87045f82125b"
    }
  }, {
    "fullUrl": "https://madie.cms.gov/Condition/790e20e0-5d23-490c-9af0-00ca12da725c",
    "resource": {
      "resourceType": "Condition",
      "id": "790e20e0-5d23-490c-9af0-00ca12da725c",
      "meta": {
        "profile": [ "http://hl7.org/fhir/us/qicore/StructureDefinition/qicore-condition-problems-health-concerns" ]
      },
      "clinicalStatus": {
        "coding": [ {
          "system": "http://terminology.hl7.org/CodeSystem/condition-clinical",
          "code": "active",
          "display": "Active",
          "userSelected": true
        } ]
      },
      "category": [ {
        "coding": [ {
          "system": "http://terminology.hl7.org/CodeSystem/condition-category",
          "code": "problem-list-item",
          "display": "Problem List Item",
          "userSelected": true
        } ]
      } ],
      "code": {
        "coding": [ {
          "system": "http://snomed.info/sct",
          "version": "2020-03",
          "code": "110030002",
          "display": "Concussion injury of brain (disorder)",
          "userSelected": true
        } ]
      },
      "subject": {
        "reference": "Patient/a5a0b1e6-fd91-4eaa-9019-618ddd0b8455"
      },
      "onsetDateTime": "2026-10-09T11:00:00.000+00:00"
    },
    "request": {
      "method": "PUT",
      "url": "Condition/790e20e0-5d23-490c-9af0-00ca12da725c"
    }
  }, {
    "fullUrl": "https://madie.cms.gov/MeasureReport/154c35de-4c3d-45ad-8dad-4a24b392ea54",
    "resource": {
      "resourceType": "MeasureReport",
      "id": "154c35de-4c3d-45ad-8dad-4a24b392ea54",
      "meta": {
        "profile": [ "http://hl7.org/fhir/us/cqfmeasures/StructureDefinition/test-case-cqfm" ]
      },
      "contained": [ {
        "resourceType": "Parameters",
        "id": "7a183c3a-6d7f-4917-a251-e98fe4bf120e-parameters",
        "parameter": [ {
          "name": "subject",
          "valueString": "a5a0b1e6-fd91-4eaa-9019-618ddd0b8455"
        } ]
      } ],
      "extension": [ {
        "url": "http://hl7.org/fhir/StructureDefinition/cqf-inputParameters",
        "valueReference": {
          "reference": "#7a183c3a-6d7f-4917-a251-e98fe4bf120e-parameters"
        }
      }, {
        "url": "http://hl7.org/fhir/us/cqfmeasures/StructureDefinition/cqfm-testCaseDescription",
        "valueMarkdown": "Patient has closed head trauma (exclusion diagnosis) starts during ED and no end"
      } ],
      "modifierExtension": [ {
        "url": "http://hl7.org/fhir/us/cqfmeasures/StructureDefinition/cqfm-isTestCase",
        "valueBoolean": true
      } ],
      "status": "complete",
      "type": "individual",
      "measure": "https://madie.cms.gov/Measure/CMS996FHIRAptTxforSTEMI",
      "period": {
        "start": "2026-01-01",
        "end": "2026-12-31"
      },
      "group": [ {
        "id": "Group_1",
        "population": [ {
          "id": "InitialPopulation_1",
          "code": {
            "coding": [ {
              "system": "http://terminology.hl7.org/CodeSystem/measure-population",
              "code": "initial-population",
              "display": "Initial Population"
            } ]
          },
          "count": 1
        }, {
          "id": "Denominator_1",
          "code": {
            "coding": [ {
              "system": "http://terminology.hl7.org/CodeSystem/measure-population",
              "code": "denominator",
              "display": "Denominator"
            } ]
          },
          "count": 1
        }, {
          "id": "DenominatorExclusion_1",
          "code": {
            "coding": [ {
              "system": "http://terminology.hl7.org/CodeSystem/measure-population",
              "code": "denominator-exclusion",
              "display": "Denominator Exclusion"
            } ]
          },
          "count": 0
        }, {
          "id": "Numerator_1",
          "code": {
            "coding": [ {
              "system": "http://terminology.hl7.org/CodeSystem/measure-population",
              "code": "numerator",
              "display": "Numerator"
            } ]
          },
          "count": 0
        }, {
          "id": "DenominatorException_1",
          "code": {
            "coding": [ {
              "system": "http://terminology.hl7.org/CodeSystem/measure-population",
              "code": "denominator-exception",
              "display": "Denominator Exception"
            } ]
          },
          "count": 0
        } ],
        "measureScore": {
          "value": 0.0
        }
      } ],
      "evaluatedResource": [ {
        "reference": "Patient/a5a0b1e6-fd91-4eaa-9019-618ddd0b8455"
      }, {
        "reference": "Encounter/3c2d31ac-0a00-41d4-bd75-37ba7e4bde82"
      }, {
        "reference": "Condition/885ceaf5-6f70-42f4-b58c-87045f82125b"
      }, {
        "reference": "Condition/790e20e0-5d23-490c-9af0-00ca12da725c"
      } ]
    },
    "request": {
      "method": "PUT",
      "url": "MeasureReport/154c35de-4c3d-45ad-8dad-4a24b392ea54"
    }
  } ]
}