{
  "resourceType": "Bundle",
  "id": "612e6f7502c62a011f2f1ee2",
  "type": "transaction",
  "entry": [ {
    "fullUrl": "https://madie.cms.gov/Patient/b8e41837-b85a-46d3-b92c-77c24952c52a",
    "resource": {
      "resourceType": "Patient",
      "id": "b8e41837-b85a-46d3-b92c-77c24952c52a",
      "meta": {
        "profile": [ "http://hl7.org/fhir/us/qicore/StructureDefinition/qicore-patient" ]
      },
      "text": {
        "status": "generated",
        "div": "<div xmlns=\"http://www.w3.org/1999/xhtml\"><div class=\"hapiHeaderText\">HipReplSurgeryEndsLT1DayAfterICUStart <b>DENEXPASS </b></div><table class=\"hapiPropertyTable\"><tbody><tr><td>Identifier</td><td>c86bf4d45e0ace80da93806dc6ebb45b</td></tr><tr><td>Date of birth</td><td><span>03 December 1965</span></td></tr></tbody></table></div>"
      },
      "extension": [ {
        "url": "http://hl7.org/fhir/us/core/StructureDefinition/us-core-race",
        "extension": [ {
          "url": "ombCategory",
          "valueCoding": {
            "system": "urn:oid:2.16.840.1.113883.6.238",
            "code": "1002-5",
            "display": "American Indian or Alaska Native",
            "userSelected": true
          }
        }, {
          "url": "text",
          "valueString": "American Indian or Alaska Native"
        } ]
      }, {
        "url": "http://hl7.org/fhir/us/core/StructureDefinition/us-core-ethnicity",
        "extension": [ {
          "url": "ombCategory",
          "valueCoding": {
            "system": "urn:oid:2.16.840.1.113883.6.238",
            "code": "2135-2",
            "display": "Hispanic or Latino",
            "userSelected": true
          }
        }, {
          "url": "text",
          "valueString": "Hispanic or Latino"
        } ]
      } ],
      "identifier": [ {
        "type": {
          "coding": [ {
            "system": "http://terminology.hl7.org/CodeSystem/v2-0203",
            "code": "MR"
          } ]
        },
        "system": "https://bonnie-fhir.healthit.gov/",
        "value": "612e6f7502c62a011f2f1ee2"
      } ],
      "active": true,
      "name": [ {
        "use": "usual",
        "family": "DENEXPass",
        "given": [ "HipReplSurgeryEndsLT1DayAfterICUStart" ]
      } ],
      "gender": "female",
      "birthDate": "1966-12-03"
    },
    "request": {
      "method": "PUT",
      "url": "Patient/b8e41837-b85a-46d3-b92c-77c24952c52a"
    }
  }, {
    "fullUrl": "https://madie.cms.gov/Encounter/0d889066-6a1f-424d-a7ed-da0ffb42fe9a",
    "resource": {
      "resourceType": "Encounter",
      "id": "0d889066-6a1f-424d-a7ed-da0ffb42fe9a",
      "meta": {
        "profile": [ "http://hl7.org/fhir/us/qicore/StructureDefinition/qicore-encounter" ]
      },
      "status": "finished",
      "class": {
        "system": "http://terminology.hl7.org/CodeSystem/v3-ActCode",
        "code": "IMP",
        "display": "inpatient encounter"
      },
      "type": [ {
        "coding": [ {
          "system": "http://snomed.info/sct",
          "code": "8715000"
        } ]
      } ],
      "subject": {
        "reference": "Patient/b8e41837-b85a-46d3-b92c-77c24952c52a"
      },
      "period": {
        "start": "2026-12-04T08:00:00.000+00:00",
        "end": "2026-12-30T08:15:00.000+00:00"
      },
      "length": {
        "value": 26,
        "unit": "days"
      },
      "location": [ {
        "location": {
          "reference": "Location/52e94cfa-7e9e-4212-a78a-e411dbe10573"
        },
        "period": {
          "start": "2026-12-06T08:00:00.000+00:00",
          "end": "2026-12-08T08:15:00.000+00:00"
        }
      } ]
    },
    "request": {
      "method": "PUT",
      "url": "Encounter/0d889066-6a1f-424d-a7ed-da0ffb42fe9a"
    }
  }, {
    "fullUrl": "https://madie.cms.gov/claim/5ca62962b8484628b8de1ec5",
    "resource": {
      "resourceType": "Claim",
      "id": "5ca62962b8484628b8de1ec5",
      "meta": {
        "profile": [ "http://hl7.org/fhir/us/qicore/StructureDefinition/qicore-claim" ]
      },
      "status": "active",
      "type": {
        "coding": [ {
          "system": "http://terminology.hl7.org/CodeSystem/claim-type",
          "code": "institutional"
        } ]
      },
      "use": "claim",
      "patient": {
        "reference": "Patient/b8e41837-b85a-46d3-b92c-77c24952c52a"
      },
      "created": "2026-12-01",
      "provider": {
        "reference": "Practitioner/25a04612-0ab9-4682-b1bb-ba7f48da4922"
      },
      "priority": {
        "coding": [ {
          "system": "http://terminology.hl7.org/CodeSystem/processpriority",
          "code": "normal"
        } ]
      },
      "procedure": [ {
        "sequence": 1,
        "type": [ {
          "coding": [ {
            "system": "http://terminology.hl7.org/CodeSystem/ex-procedure-type",
            "code": "primary"
          } ]
        } ],
        "procedureCodeableConcept": {
          "coding": [ {
            "system": "http://www.cms.gov/Medicare/Coding/ICD10",
            "code": "0SP909Z"
          } ]
        }
      } ],
      "insurance": [ {
        "sequence": 1,
        "focal": true,
        "coverage": {
          "reference": "Coverage/39342626-0b23-4c35-b730-7e4c091a3483"
        }
      } ],
      "item": [ {
        "sequence": 1,
        "procedureSequence": [ 1 ],
        "productOrService": {
          "coding": [ {
            "system": "http://terminology.hl7.org/CodeSystem/ex-USCLS",
            "code": "99555"
          } ]
        },
        "encounter": [ {
          "reference": "Encounter/0d889066-6a1f-424d-a7ed-da0ffb42fe9a"
        } ]
      } ]
    },
    "request": {
      "method": "PUT",
      "url": "Claim/5ca62962b8484628b8de1ec5"
    }
  }, {
    "fullUrl": "https://madie.cms.gov/Coverage/39342626-0b23-4c35-b730-7e4c091a3483",
    "resource": {
      "resourceType": "Coverage",
      "id": "39342626-0b23-4c35-b730-7e4c091a3483",
      "status": "active",
      "beneficiary": {
        "reference": "Patient/b8e41837-b85a-46d3-b92c-77c24952c52a"
      },
      "period": {
        "start": "1975-03-03T08:00:00.000+00:00"
      },
      "payor": [ {
        "reference": "Organization/9bd82f53-e93b-47ac-8a75-311858b95032"
      } ]
    },
    "request": {
      "method": "PUT",
      "url": "Coverage/39342626-0b23-4c35-b730-7e4c091a3483"
    }
  }, {
    "fullUrl": "https://madie.cms.gov/Procedure/33183d46-bd05-4c36-bc38-da6553bd1654",
    "resource": {
      "resourceType": "Procedure",
      "id": "33183d46-bd05-4c36-bc38-da6553bd1654",
      "meta": {
        "profile": [ "http://hl7.org/fhir/us/qicore/StructureDefinition/qicore-procedure" ]
      },
      "extension": [ {
        "url": "http://hl7.org/fhir/us/qicore/StructureDefinition/qicore-recorded",
        "valueDateTime": "2013-12-07T13:35:00.000+00:00"
      } ],
      "status": "completed",
      "code": {
        "coding": [ {
          "system": "http://www.cms.gov/Medicare/Coding/ICD10",
          "code": "0SP909Z"
        } ]
      },
      "subject": {
        "reference": "Patient/b8e41837-b85a-46d3-b92c-77c24952c52a"
      },
      "performedPeriod": {
        "start": "2026-12-06T06:00:00.000+00:00",
        "end": "2026-12-06T09:15:00.000+00:00"
      }
    },
    "request": {
      "method": "PUT",
      "url": "Procedure/33183d46-bd05-4c36-bc38-da6553bd1654"
    }
  }, {
    "fullUrl": "https://madie.cms.gov/Location/52e94cfa-7e9e-4212-a78a-e411dbe10573",
    "resource": {
      "resourceType": "Location",
      "id": "52e94cfa-7e9e-4212-a78a-e411dbe10573",
      "meta": {
        "profile": [ "http://hl7.org/fhir/us/qicore/StructureDefinition/qicore-location" ]
      },
      "identifier": [ {
        "use": "usual",
        "system": "http://exampleoflocation.com",
        "value": "B1-S.F2"
      } ],
      "name": "Medical Surgical East, first floor",
      "type": [ {
        "coding": [ {
          "system": "https://www.cdc.gov/nhsn/cdaportal/terminology/codesystem/hsloc.html",
          "code": "1025-6",
          "display": "Trauma Critical Care",
          "userSelected": true
        } ]
      } ]
    },
    "request": {
      "method": "PUT",
      "url": "Location/52e94cfa-7e9e-4212-a78a-e411dbe10573"
    }
  }, {
    "fullUrl": "https://madie.cms.gov/Organization/9bd82f53-e93b-47ac-8a75-311858b95032",
    "resource": {
      "resourceType": "Organization",
      "id": "9bd82f53-e93b-47ac-8a75-311858b95032",
      "meta": {
        "profile": [ "http://hl7.org/fhir/us/qicore/StructureDefinition/qicore-organization" ]
      },
      "identifier": [ {
        "use": "temp",
        "system": "urn:oid:2.16.840.1.113883.4.4",
        "value": "21-3259825"
      } ],
      "active": true,
      "type": [ {
        "coding": [ {
          "system": "http://terminology.hl7.org/CodeSystem/organization-type",
          "code": "pay",
          "display": "Payer"
        } ]
      } ],
      "name": "Blue Cross Blue Shield of Texas",
      "telecom": [ {
        "system": "phone",
        "value": "(+1) 972-766-6900"
      } ],
      "address": [ {
        "use": "billing",
        "type": "postal",
        "line": [ "P.O. Box 660044" ],
        "city": "Dallas",
        "state": "TX",
        "postalCode": "75266-0044",
        "country": "USA"
      } ]
    },
    "request": {
      "method": "PUT",
      "url": "Organization/9bd82f53-e93b-47ac-8a75-311858b95032"
    }
  }, {
    "fullUrl": "https://madie.cms.gov/Practitioner/25a04612-0ab9-4682-b1bb-ba7f48da4922",
    "resource": {
      "resourceType": "Practitioner",
      "id": "25a04612-0ab9-4682-b1bb-ba7f48da4922",
      "identifier": [ {
        "system": "http://hl7.org/fhir/sid/us-npi",
        "value": "123456"
      } ],
      "name": [ {
        "family": "Evil",
        "prefix": [ "Dr" ]
      } ]
    },
    "request": {
      "method": "PUT",
      "url": "Practitioner/25a04612-0ab9-4682-b1bb-ba7f48da4922"
    }
  }, {
    "fullUrl": "https://madie.cms.gov/MeasureReport/00987a1b-643f-462b-a9c3-04782da295d0",
    "resource": {
      "resourceType": "MeasureReport",
      "id": "00987a1b-643f-462b-a9c3-04782da295d0",
      "meta": {
        "profile": [ "http://hl7.org/fhir/us/cqfmeasures/StructureDefinition/test-case-cqfm" ]
      },
      "contained": [ {
        "resourceType": "Parameters",
        "id": "ab78a214-b786-41ff-bb18-03d659a65048-parameters",
        "parameter": [ {
          "name": "subject",
          "valueString": "b8e41837-b85a-46d3-b92c-77c24952c52a"
        } ]
      } ],
      "extension": [ {
        "url": "http://hl7.org/fhir/StructureDefinition/cqf-inputParameters",
        "valueReference": {
          "reference": "#ab78a214-b786-41ff-bb18-03d659a65048-parameters"
        }
      }, {
        "url": "http://hl7.org/fhir/us/cqfmeasures/StructureDefinition/cqfm-testCaseDescription",
        "valueMarkdown": "HipReplSurgeryEnds<1DayAfterICUStart\n"
      } ],
      "modifierExtension": [ {
        "url": "http://hl7.org/fhir/us/cqfmeasures/StructureDefinition/cqfm-isTestCase",
        "valueBoolean": true
      } ],
      "status": "complete",
      "type": "individual",
      "measure": "https://madie.cms.gov/Measure/CMS190FHIRVTEProphylaxisICU",
      "period": {
        "start": "2026-01-01",
        "end": "2026-12-31"
      },
      "group": [ {
        "id": "Group_1",
        "population": [ {
          "id": "InitialPopulation_1",
          "code": {
            "coding": [ {
              "system": "http://terminology.hl7.org/CodeSystem/measure-population",
              "code": "initial-population",
              "display": "Initial Population"
            } ]
          },
          "count": 1
        }, {
          "id": "Denominator_1",
          "code": {
            "coding": [ {
              "system": "http://terminology.hl7.org/CodeSystem/measure-population",
              "code": "denominator",
              "display": "Denominator"
            } ]
          },
          "count": 1
        }, {
          "id": "DenominatorExclusion_1",
          "code": {
            "coding": [ {
              "system": "http://terminology.hl7.org/CodeSystem/measure-population",
              "code": "denominator-exclusion",
              "display": "Denominator Exclusion"
            } ]
          },
          "count": 1
        }, {
          "id": "Numerator_1",
          "code": {
            "coding": [ {
              "system": "http://terminology.hl7.org/CodeSystem/measure-population",
              "code": "numerator",
              "display": "Numerator"
            } ]
          },
          "count": 0
        }, {
          "id": "DenominatorException_1",
          "code": {
            "coding": [ {
              "system": "http://terminology.hl7.org/CodeSystem/measure-population",
              "code": "denominator-exception",
              "display": "Denominator Exception"
            } ]
          },
          "count": 0
        } ],
        "measureScore": {
          "value": 0.0
        }
      } ],
      "evaluatedResource": [ {
        "reference": "Patient/b8e41837-b85a-46d3-b92c-77c24952c52a"
      }, {
        "reference": "Encounter/0d889066-6a1f-424d-a7ed-da0ffb42fe9a"
      }, {
        "reference": "Claim/5ca62962b8484628b8de1ec5"
      }, {
        "reference": "Coverage/39342626-0b23-4c35-b730-7e4c091a3483"
      }, {
        "reference": "Procedure/33183d46-bd05-4c36-bc38-da6553bd1654"
      }, {
        "reference": "Location/52e94cfa-7e9e-4212-a78a-e411dbe10573"
      }, {
        "reference": "Organization/9bd82f53-e93b-47ac-8a75-311858b95032"
      }, {
        "reference": "Practitioner/25a04612-0ab9-4682-b1bb-ba7f48da4922"
      } ]
    },
    "request": {
      "method": "PUT",
      "url": "MeasureReport/00987a1b-643f-462b-a9c3-04782da295d0"
    }
  } ]
}