{
  "resourceType": "Bundle",
  "id": "6356d03854e383debade759e",
  "type": "transaction",
  "entry": [ {
    "fullUrl": "https://madie.cms.gov/Patient/bec38daa-8a0d-435d-95e7-05ad5af182f6",
    "resource": {
      "resourceType": "Patient",
      "id": "bec38daa-8a0d-435d-95e7-05ad5af182f6",
      "meta": {
        "profile": [ "http://hl7.org/fhir/us/qicore/StructureDefinition/qicore-patient" ]
      },
      "text": {
        "status": "generated",
        "div": "<div xmlns=\"http://www.w3.org/1999/xhtml\"><div class=\"hapiHeaderText\">CalcAndEGA19WksDxCode20Weeks<b>DENOMFAIL</b></div><table class=\"hapiPropertyTable\"><tbody><tr><td>Date of birth</td><td><span>01 February 2004</span></td></tr></tbody></table></div>"
      },
      "extension": [ {
        "url": "http://hl7.org/fhir/us/core/StructureDefinition/us-core-race",
        "extension": [ {
          "url": "ombCategory",
          "valueCoding": {
            "system": "urn:oid:2.16.840.1.113883.6.238",
            "code": "1002-5",
            "display": "American Indian or Alaska Native",
            "userSelected": true
          }
        }, {
          "url": "text",
          "valueString": "American Indian or Alaska Native"
        } ]
      }, {
        "url": "http://hl7.org/fhir/us/core/StructureDefinition/us-core-ethnicity",
        "extension": [ {
          "url": "ombCategory",
          "valueCoding": {
            "system": "urn:oid:2.16.840.1.113883.6.238",
            "code": "2135-2",
            "display": "Hispanic or Latino",
            "userSelected": true
          }
        }, {
          "url": "text",
          "valueString": "Hispanic or Latino"
        } ]
      } ],
      "identifier": [ {
        "type": {
          "coding": [ {
            "system": "http://terminology.hl7.org/CodeSystem/v2-0203",
            "code": "MR"
          } ]
        },
        "system": "https://bonnie-fhir.healthit.gov/",
        "value": "6356d03854e383debade759e"
      } ],
      "active": true,
      "name": [ {
        "use": "usual",
        "family": "DENOMFail",
        "given": [ "CalcAndEGA19WksDxCode20Weeks" ]
      } ],
      "gender": "female",
      "birthDate": "2005-02-01"
    },
    "request": {
      "method": "PUT",
      "url": "Patient/bec38daa-8a0d-435d-95e7-05ad5af182f6"
    }
  }, {
    "fullUrl": "https://madie.cms.gov/Observation/a27f1747-4cec-4d43-8f37-f554ea716d16",
    "resource": {
      "resourceType": "Observation",
      "id": "a27f1747-4cec-4d43-8f37-f554ea716d16",
      "meta": {
        "profile": [ "http://hl7.org/fhir/us/qicore/StructureDefinition/qicore-simple-observation" ]
      },
      "status": "final",
      "category": [ {
        "coding": [ {
          "system": "http://terminology.hl7.org/CodeSystem/observation-category",
          "code": "exam",
          "display": "exam",
          "userSelected": true
        } ]
      } ],
      "code": {
        "coding": [ {
          "system": "http://loinc.org",
          "code": "11884-4"
        } ]
      },
      "subject": {
        "reference": "Patient/bec38daa-8a0d-435d-95e7-05ad5af182f6"
      },
      "effectiveDateTime": "2026-01-15T08:00:00.000+00:00",
      "performer": [ {
        "reference": "Organization/example1",
        "display": "Hendricks Country Hospital"
      } ],
      "valueQuantity": {
        "value": 19,
        "unit": "wk"
      }
    },
    "request": {
      "method": "PUT",
      "url": "Observation/a27f1747-4cec-4d43-8f37-f554ea716d16"
    }
  }, {
    "fullUrl": "https://madie.cms.gov/Observation/e7dd566b-bcda-499b-b6f6-58770b8fe49a",
    "resource": {
      "resourceType": "Observation",
      "id": "e7dd566b-bcda-499b-b6f6-58770b8fe49a",
      "meta": {
        "profile": [ "http://hl7.org/fhir/us/qicore/StructureDefinition/qicore-simple-observation" ]
      },
      "status": "final",
      "category": [ {
        "coding": [ {
          "system": "http://terminology.hl7.org/CodeSystem/observation-category",
          "code": "exam",
          "display": "exam",
          "userSelected": true
        } ]
      } ],
      "code": {
        "coding": [ {
          "system": "http://loinc.org",
          "code": "93857-1"
        } ]
      },
      "subject": {
        "reference": "Patient/bec38daa-8a0d-435d-95e7-05ad5af182f6"
      },
      "effectiveDateTime": "2026-01-15T08:00:00.000+00:00",
      "performer": [ {
        "reference": "Organization/example1",
        "display": "Hendricks Country Hospital"
      } ],
      "valueDateTime": "2026-01-15T08:00:00.000+00:00"
    },
    "request": {
      "method": "PUT",
      "url": "Observation/e7dd566b-bcda-499b-b6f6-58770b8fe49a"
    }
  }, {
    "fullUrl": "https://madie.cms.gov/Encounter/ef947ad1-33df-4189-9c37-4a611278501c",
    "resource": {
      "resourceType": "Encounter",
      "id": "ef947ad1-33df-4189-9c37-4a611278501c",
      "meta": {
        "profile": [ "http://hl7.org/fhir/us/qicore/StructureDefinition/qicore-encounter" ]
      },
      "status": "finished",
      "class": {
        "system": "http://terminology.hl7.org/CodeSystem/v3-ActCode",
        "code": "IMP",
        "display": "inpatient encounter"
      },
      "type": [ {
        "coding": [ {
          "system": "http://snomed.info/sct",
          "code": "183452005"
        } ]
      } ],
      "subject": {
        "reference": "Patient/bec38daa-8a0d-435d-95e7-05ad5af182f6"
      },
      "period": {
        "start": "2026-01-01T08:00:00.000+00:00",
        "end": "2026-02-05T08:15:00.000+00:00"
      },
      "reasonReference": [ {
        "reference": "Condition/atrial-fibrillation-flutter-f80a"
      } ]
    },
    "request": {
      "method": "PUT",
      "url": "Encounter/ef947ad1-33df-4189-9c37-4a611278501c"
    }
  }, {
    "fullUrl": "https://madie.cms.gov/Observation/e9782b3b-ef66-45ce-919b-d341394efe56",
    "resource": {
      "resourceType": "Observation",
      "id": "e9782b3b-ef66-45ce-919b-d341394efe56",
      "meta": {
        "profile": [ "http://hl7.org/fhir/us/qicore/StructureDefinition/qicore-simple-observation" ]
      },
      "status": "final",
      "category": [ {
        "coding": [ {
          "system": "http://terminology.hl7.org/CodeSystem/observation-category",
          "code": "exam",
          "display": "exam",
          "userSelected": true
        } ]
      } ],
      "code": {
        "coding": [ {
          "system": "http://loinc.org",
          "code": "11778-8"
        } ]
      },
      "subject": {
        "reference": "Patient/bec38daa-8a0d-435d-95e7-05ad5af182f6"
      },
      "effectiveDateTime": "2026-01-15T08:00:00.000+00:00",
      "performer": [ {
        "reference": "Organization/example1",
        "display": "Hendricks Country Hospital"
      } ],
      "valueDateTime": "2026-06-05T08:00:00.000+00:00"
    },
    "request": {
      "method": "PUT",
      "url": "Observation/e9782b3b-ef66-45ce-919b-d341394efe56"
    }
  }, {
    "fullUrl": "https://madie.cms.gov/Procedure/c3dbd516-8355-493b-a739-be345c1920a3",
    "resource": {
      "resourceType": "Procedure",
      "id": "c3dbd516-8355-493b-a739-be345c1920a3",
      "meta": {
        "profile": [ "http://hl7.org/fhir/us/qicore/StructureDefinition/qicore-procedure" ]
      },
      "extension": [ {
        "url": "http://hl7.org/fhir/us/qicore/StructureDefinition/qicore-recorded",
        "valueDateTime": "2014-04-05T13:35:00.000+00:00"
      } ],
      "status": "completed",
      "code": {
        "coding": [ {
          "system": "http://snomed.info/sct",
          "code": "10745001"
        } ]
      },
      "subject": {
        "reference": "Patient/bec38daa-8a0d-435d-95e7-05ad5af182f6"
      },
      "performedPeriod": {
        "start": "2026-01-01T08:00:00.000+00:00",
        "end": "2026-01-01T08:15:00.000+00:00"
      }
    },
    "request": {
      "method": "PUT",
      "url": "Procedure/c3dbd516-8355-493b-a739-be345c1920a3"
    }
  }, {
    "fullUrl": "https://madie.cms.gov/Condition/8e3d4194-85ff-408a-823e-08d27ba7b856",
    "resource": {
      "resourceType": "Condition",
      "id": "8e3d4194-85ff-408a-823e-08d27ba7b856",
      "meta": {
        "profile": [ "http://hl7.org/fhir/us/qicore/StructureDefinition/qicore-condition" ]
      },
      "category": [ {
        "coding": [ {
          "system": "http://terminology.hl7.org/CodeSystem/condition-category",
          "code": "encounter-diagnosis",
          "display": "Encounter Diagnosis"
        } ]
      } ],
      "code": {
        "coding": [ {
          "system": "http://snomed.info/sct",
          "version": "2024-03",
          "code": "23464008",
          "display": "Gestation period, 20 weeks",
          "userSelected": true
        } ]
      },
      "subject": {
        "reference": "Patient/bec38daa-8a0d-435d-95e7-05ad5af182f6"
      },
      "encounter": {
        "reference": "Encounter/ef947ad1-33df-4189-9c37-4a611278501c"
      },
      "recordedDate": "2026-10-24T08:00:00.000+00:00"
    },
    "request": {
      "method": "PUT",
      "url": "Condition/8e3d4194-85ff-408a-823e-08d27ba7b856"
    }
  }, {
    "fullUrl": "https://madie.cms.gov/Coverage/4c3ecd20-68d1-4c6d-a60e-464adc8d9d18",
    "resource": {
      "resourceType": "Coverage",
      "id": "4c3ecd20-68d1-4c6d-a60e-464adc8d9d18",
      "meta": {
        "profile": [ "http://hl7.org/fhir/us/qicore/StructureDefinition/qicore-coverage" ]
      },
      "status": "active",
      "subscriberId": "523435",
      "beneficiary": {
        "reference": "Patient/bec38daa-8a0d-435d-95e7-05ad5af182f6"
      },
      "relationship": {
        "coding": [ {
          "system": "http://terminology.hl7.org/CodeSystem/subscriber-relationship",
          "code": "self"
        } ]
      },
      "payor": [ {
        "reference": "Organization/ca330c8a-f732-45f7-9021-4075a960dde2"
      } ]
    },
    "request": {
      "method": "PUT",
      "url": "Coverage/4c3ecd20-68d1-4c6d-a60e-464adc8d9d18"
    }
  }, {
    "fullUrl": "https://madie.cms.gov/Organization/ca330c8a-f732-45f7-9021-4075a960dde2",
    "resource": {
      "resourceType": "Organization",
      "id": "ca330c8a-f732-45f7-9021-4075a960dde2",
      "meta": {
        "profile": [ "http://hl7.org/fhir/us/qicore/StructureDefinition/qicore-organization" ]
      },
      "identifier": [ {
        "use": "temp",
        "system": "urn:oid:2.16.840.1.113883.4.4",
        "value": "21-3259825"
      } ],
      "active": true,
      "type": [ {
        "coding": [ {
          "system": "http://terminology.hl7.org/CodeSystem/organization-type",
          "code": "pay",
          "display": "Payer"
        } ]
      } ],
      "name": "Blue Cross Blue Shield of Texas",
      "telecom": [ {
        "system": "phone",
        "value": "(+1) 972-766-6900"
      } ],
      "address": [ {
        "use": "billing",
        "type": "postal",
        "line": [ "P.O. Box 660044" ],
        "city": "Dallas",
        "state": "TX",
        "postalCode": "75266-0044",
        "country": "USA"
      } ]
    },
    "request": {
      "method": "PUT",
      "url": "Organization/ca330c8a-f732-45f7-9021-4075a960dde2"
    }
  }, {
    "fullUrl": "https://madie.cms.gov/Practitioner/ceb37817-7401-40ba-a0ab-dd6b57ce0458",
    "resource": {
      "resourceType": "Practitioner",
      "id": "ceb37817-7401-40ba-a0ab-dd6b57ce0458",
      "meta": {
        "profile": [ "http://hl7.org/fhir/us/qicore/StructureDefinition/qicore-practitioner" ]
      },
      "identifier": [ {
        "system": "http://hl7.org/fhir/sid/us-npi",
        "value": "1234567890"
      } ],
      "name": [ {
        "family": "Evil",
        "prefix": [ "Dr" ]
      } ]
    },
    "request": {
      "method": "PUT",
      "url": "Practitioner/ceb37817-7401-40ba-a0ab-dd6b57ce0458"
    }
  }, {
    "fullUrl": "https://madie.cms.gov/MeasureReport/d092dbfa-eb62-44c5-bea4-0a533a5dac82",
    "resource": {
      "resourceType": "MeasureReport",
      "id": "d092dbfa-eb62-44c5-bea4-0a533a5dac82",
      "meta": {
        "profile": [ "http://hl7.org/fhir/us/cqfmeasures/StructureDefinition/test-case-cqfm" ]
      },
      "contained": [ {
        "resourceType": "Parameters",
        "id": "21cc82ee-c8f2-472b-ba02-1d5ca489e75e-parameters",
        "parameter": [ {
          "name": "subject",
          "valueString": "bec38daa-8a0d-435d-95e7-05ad5af182f6"
        } ]
      } ],
      "extension": [ {
        "url": "http://hl7.org/fhir/StructureDefinition/cqf-inputParameters",
        "valueReference": {
          "reference": "#21cc82ee-c8f2-472b-ba02-1d5ca489e75e-parameters"
        }
      }, {
        "url": "http://hl7.org/fhir/us/cqfmeasures/StructureDefinition/cqfm-testCaseDescription",
        "valueMarkdown": "Calculated and Estimated GA  = 19 weeks.  Diagnosis code = 20 weeks.  Denom fails based on hierarchy.\n"
      } ],
      "modifierExtension": [ {
        "url": "http://hl7.org/fhir/us/cqfmeasures/StructureDefinition/cqfm-isTestCase",
        "valueBoolean": true
      } ],
      "status": "complete",
      "type": "individual",
      "measure": "https://madie.cms.gov/Measure/CMS1028FHIRPCSevereOBComps",
      "period": {
        "start": "2026-01-01",
        "end": "2026-12-31"
      },
      "group": [ {
        "id": "Group_1",
        "population": [ {
          "id": "InitialPopulation_1",
          "code": {
            "coding": [ {
              "system": "http://terminology.hl7.org/CodeSystem/measure-population",
              "code": "initial-population",
              "display": "Initial Population"
            } ]
          },
          "count": 1
        }, {
          "id": "Denominator_1",
          "code": {
            "coding": [ {
              "system": "http://terminology.hl7.org/CodeSystem/measure-population",
              "code": "denominator",
              "display": "Denominator"
            } ]
          },
          "count": 0
        }, {
          "id": "Numerator_1",
          "code": {
            "coding": [ {
              "system": "http://terminology.hl7.org/CodeSystem/measure-population",
              "code": "numerator",
              "display": "Numerator"
            } ]
          },
          "count": 0
        }, {
          "id": "NumeratorExclusion_1",
          "code": {
            "coding": [ {
              "system": "http://terminology.hl7.org/CodeSystem/measure-population",
              "code": "numerator-exclusion",
              "display": "Numerator Exclusion"
            } ]
          },
          "count": 0
        } ],
        "measureScore": {
          "value": 0.0
        }
      }, {
        "id": "Group_2",
        "population": [ {
          "id": "InitialPopulation_2",
          "code": {
            "coding": [ {
              "system": "http://terminology.hl7.org/CodeSystem/measure-population",
              "code": "initial-population",
              "display": "Initial Population"
            } ]
          },
          "count": 1
        }, {
          "id": "Denominator_2",
          "code": {
            "coding": [ {
              "system": "http://terminology.hl7.org/CodeSystem/measure-population",
              "code": "denominator",
              "display": "Denominator"
            } ]
          },
          "count": 0
        }, {
          "id": "Numerator_2",
          "code": {
            "coding": [ {
              "system": "http://terminology.hl7.org/CodeSystem/measure-population",
              "code": "numerator",
              "display": "Numerator"
            } ]
          },
          "count": 0
        }, {
          "id": "NumeratorExclusion_2",
          "code": {
            "coding": [ {
              "system": "http://terminology.hl7.org/CodeSystem/measure-population",
              "code": "numerator-exclusion",
              "display": "Numerator Exclusion"
            } ]
          },
          "count": 0
        } ],
        "measureScore": {
          "value": 0.0
        }
      } ],
      "evaluatedResource": [ {
        "reference": "Patient/bec38daa-8a0d-435d-95e7-05ad5af182f6"
      }, {
        "reference": "Observation/a27f1747-4cec-4d43-8f37-f554ea716d16"
      }, {
        "reference": "Observation/e7dd566b-bcda-499b-b6f6-58770b8fe49a"
      }, {
        "reference": "Encounter/ef947ad1-33df-4189-9c37-4a611278501c"
      }, {
        "reference": "Observation/e9782b3b-ef66-45ce-919b-d341394efe56"
      }, {
        "reference": "Procedure/c3dbd516-8355-493b-a739-be345c1920a3"
      }, {
        "reference": "Condition/8e3d4194-85ff-408a-823e-08d27ba7b856"
      }, {
        "reference": "Coverage/4c3ecd20-68d1-4c6d-a60e-464adc8d9d18"
      }, {
        "reference": "Organization/ca330c8a-f732-45f7-9021-4075a960dde2"
      }, {
        "reference": "Practitioner/ceb37817-7401-40ba-a0ab-dd6b57ce0458"
      } ]
    },
    "request": {
      "method": "PUT",
      "url": "MeasureReport/d092dbfa-eb62-44c5-bea4-0a533a5dac82"
    }
  } ]
}