{
  "resourceType": "Bundle",
  "id": "633c9d030968f8012250fc86",
  "type": "transaction",
  "entry": [ {
    "fullUrl": "https://madie.cms.gov/Patient/d9dc15b7-bf03-4b72-8dd5-3e4db21f052d",
    "resource": {
      "resourceType": "Patient",
      "id": "d9dc15b7-bf03-4b72-8dd5-3e4db21f052d",
      "meta": {
        "profile": [ "http://hl7.org/fhir/us/qicore/StructureDefinition/qicore-patient" ]
      },
      "text": {
        "status": "generated",
        "div": "<div xmlns=\"http://www.w3.org/1999/xhtml\"><div class=\"hapiHeaderText\">CMOdurObs_ED&lt;1hrObs=1hrBFEnc <b>DENEXPASS </b></div><table class=\"hapiPropertyTable\"><tbody><tr><td>Identifier</td><td>d7110924d65a531d7c4ff727f0066c38</td></tr><tr><td>Date of birth</td><td><span>18 September 1985</span></td></tr></tbody></table></div>"
      },
      "extension": [ {
        "url": "http://hl7.org/fhir/us/core/StructureDefinition/us-core-race",
        "extension": [ {
          "url": "ombCategory",
          "valueCoding": {
            "system": "urn:oid:2.16.840.1.113883.6.238",
            "code": "1002-5",
            "display": "American Indian or Alaska Native",
            "userSelected": true
          }
        }, {
          "url": "text",
          "valueString": "American Indian or Alaska Native"
        } ]
      }, {
        "url": "http://hl7.org/fhir/us/core/StructureDefinition/us-core-ethnicity",
        "extension": [ {
          "url": "ombCategory",
          "valueCoding": {
            "system": "urn:oid:2.16.840.1.113883.6.238",
            "code": "2135-2",
            "display": "Hispanic or Latino",
            "userSelected": true
          }
        }, {
          "url": "text",
          "valueString": "Hispanic or Latino"
        } ]
      } ],
      "identifier": [ {
        "type": {
          "coding": [ {
            "system": "http://terminology.hl7.org/CodeSystem/v2-0203",
            "code": "MR"
          } ]
        },
        "system": "https://bonnie-fhir.healthit.gov/",
        "value": "633c9d030968f8012250fc86"
      } ],
      "active": true,
      "name": [ {
        "use": "usual",
        "family": "DENEXPass",
        "given": [ "CMOdurObsED1hrObs1hrBFEnc" ]
      } ],
      "gender": "female",
      "birthDate": "1986-09-18"
    },
    "request": {
      "method": "PUT",
      "url": "Patient/d9dc15b7-bf03-4b72-8dd5-3e4db21f052d"
    }
  }, {
    "fullUrl": "https://madie.cms.gov/claim/5ca62962b8484628b8de1ec5",
    "resource": {
      "resourceType": "Claim",
      "id": "5ca62962b8484628b8de1ec5",
      "meta": {
        "profile": [ "http://hl7.org/fhir/us/qicore/StructureDefinition/qicore-claim" ]
      },
      "status": "active",
      "type": {
        "coding": [ {
          "system": "http://terminology.hl7.org/CodeSystem/claim-type",
          "code": "institutional"
        } ]
      },
      "use": "claim",
      "patient": {
        "reference": "Patient/d170a0a8-b5ad-4303-b6df-e304dd5f92ad"
      },
      "created": "2026-12-01",
      "provider": {
        "reference": "Practitioner/02f8ed43-80f4-43c4-9c9b-2a0eabeb66d5"
      },
      "priority": {
        "coding": [ {
          "system": "http://terminology.hl7.org/CodeSystem/processpriority",
          "code": "normal"
        } ]
      },
      "diagnosis": [ {
        "sequence": 1,
        "diagnosisCodeableConcept": {
          "coding": [ {
            "system": "http://hl7.org/fhir/sid/icd-10-cm",
            "code": "I63.00"
          } ]
        },
        "type": [ {
          "coding": [ {
            "system": "http://terminology.hl7.org/CodeSystem/ex-diagnosistype",
            "code": "principal"
          } ]
        } ]
      } ],
      "insurance": [ {
        "sequence": 1,
        "focal": true,
        "coverage": {
          "reference": "Coverage/5fa041661c76ba66d9959367"
        }
      } ],
      "item": [ {
        "sequence": 1,
        "diagnosisSequence": [ 1 ],
        "productOrService": {
          "coding": [ {
            "system": "http://terminology.hl7.org/CodeSystem/ex-USCLS",
            "code": "99555"
          } ]
        },
        "encounter": [ {
          "reference": "Encounter/5d4e7488-1fbc-4add-89d4-95e276c7fd90"
        } ]
      } ]
    },
    "request": {
      "method": "PUT",
      "url": "Claim/5ca62962b8484628b8de1ec5"
    }
  }, {
    "fullUrl": "https://madie.cms.gov/Condition/95a50087-1c4c-4a2e-88f7-35084ee335da",
    "resource": {
      "resourceType": "Condition",
      "id": "95a50087-1c4c-4a2e-88f7-35084ee335da",
      "meta": {
        "profile": [ "http://hl7.org/fhir/us/qicore/StructureDefinition/qicore-condition-problems-health-concerns" ]
      },
      "clinicalStatus": {
        "coding": [ {
          "system": "http://terminology.hl7.org/CodeSystem/condition-clinical",
          "code": "inactive"
        } ]
      },
      "verificationStatus": {
        "coding": [ {
          "system": "http://terminology.hl7.org/CodeSystem/condition-ver-status",
          "code": "confirmed"
        } ]
      },
      "category": [ {
        "coding": [ {
          "system": "http://terminology.hl7.org/CodeSystem/condition-category",
          "code": "encounter-diagnosis",
          "display": "Encounter Diagnosis"
        } ]
      } ],
      "code": {
        "coding": [ {
          "system": "http://hl7.org/fhir/sid/icd-10-cm",
          "code": "I48.20"
        }, {
          "system": "http://hl7.org/fhir/sid/icd-10-cm",
          "code": "I48.0"
        }, {
          "system": "http://snomed.info/sct",
          "code": "5370000"
        } ]
      },
      "subject": {
        "reference": "Patient/d9dc15b7-bf03-4b72-8dd5-3e4db21f052d"
      },
      "onsetDateTime": "2026-09-30T09:00:00.000+00:00",
      "abatementDateTime": "2026-10-12T00:15:00.000+00:00"
    },
    "request": {
      "method": "PUT",
      "url": "Condition/95a50087-1c4c-4a2e-88f7-35084ee335da"
    }
  }, {
    "fullUrl": "https://madie.cms.gov/Encounter/5ca417c3-edb8-41af-9a9f-01b7e00adbdd",
    "resource": {
      "resourceType": "Encounter",
      "id": "5ca417c3-edb8-41af-9a9f-01b7e00adbdd",
      "meta": {
        "profile": [ "http://hl7.org/fhir/us/qicore/StructureDefinition/qicore-encounter" ]
      },
      "status": "finished",
      "class": {
        "system": "http://terminology.hl7.org/CodeSystem/v3-ActCode",
        "code": "EMER",
        "display": "emergency"
      },
      "type": [ {
        "coding": [ {
          "system": "http://snomed.info/sct",
          "code": "4525004"
        } ]
      } ],
      "subject": {
        "reference": "Patient/d9dc15b7-bf03-4b72-8dd5-3e4db21f052d"
      },
      "period": {
        "start": "2026-09-30T07:59:00.000+00:00",
        "end": "2026-09-30T08:00:00.000+00:00"
      },
      "length": {
        "value": 0,
        "unit": "days"
      }
    },
    "request": {
      "method": "PUT",
      "url": "Encounter/5ca417c3-edb8-41af-9a9f-01b7e00adbdd"
    }
  }, {
    "fullUrl": "https://madie.cms.gov/Encounter/237ad6ed-82fe-4ca7-8126-010fef57fb9a",
    "resource": {
      "resourceType": "Encounter",
      "id": "237ad6ed-82fe-4ca7-8126-010fef57fb9a",
      "meta": {
        "profile": [ "http://hl7.org/fhir/us/qicore/StructureDefinition/qicore-encounter" ]
      },
      "status": "finished",
      "class": {
        "system": "http://terminology.hl7.org/CodeSystem/v3-ActCode",
        "code": "OBSENC",
        "display": "observation encounter"
      },
      "type": [ {
        "coding": [ {
          "system": "http://snomed.info/sct",
          "code": "448951000124107"
        } ]
      } ],
      "subject": {
        "reference": "Patient/d9dc15b7-bf03-4b72-8dd5-3e4db21f052d"
      },
      "period": {
        "start": "2026-09-30T08:01:00.000+00:00",
        "end": "2026-09-30T10:00:00.000+00:00"
      },
      "length": {
        "value": 0,
        "unit": "days"
      }
    },
    "request": {
      "method": "PUT",
      "url": "Encounter/237ad6ed-82fe-4ca7-8126-010fef57fb9a"
    }
  }, {
    "fullUrl": "https://madie.cms.gov/Encounter/5d4e7488-1fbc-4add-89d4-95e276c7fd90",
    "resource": {
      "resourceType": "Encounter",
      "id": "5d4e7488-1fbc-4add-89d4-95e276c7fd90",
      "meta": {
        "profile": [ "http://hl7.org/fhir/us/qicore/StructureDefinition/qicore-encounter" ]
      },
      "status": "finished",
      "class": {
        "system": "http://terminology.hl7.org/CodeSystem/v3-ActCode",
        "code": "IMP",
        "display": "inpatient encounter"
      },
      "type": [ {
        "coding": [ {
          "system": "http://snomed.info/sct",
          "code": "32485007"
        } ]
      } ],
      "subject": {
        "reference": "Patient/d9dc15b7-bf03-4b72-8dd5-3e4db21f052d"
      },
      "period": {
        "start": "2026-09-30T11:00:00.000+00:00",
        "end": "2026-10-12T00:15:00.000+00:00"
      },
      "length": {
        "value": 12,
        "unit": "days"
      },
      "reasonReference": [ {
        "reference": "Condition/95a50087-1c4c-4a2e-88f7-35084ee335da"
      } ]
    },
    "request": {
      "method": "PUT",
      "url": "Encounter/5d4e7488-1fbc-4add-89d4-95e276c7fd90"
    }
  }, {
    "fullUrl": "https://madie.cms.gov/ServiceRequest/b60b0a0f-2629-43c1-924b-8e3c3c81d841",
    "resource": {
      "resourceType": "ServiceRequest",
      "id": "b60b0a0f-2629-43c1-924b-8e3c3c81d841",
      "meta": {
        "profile": [ "http://hl7.org/fhir/us/qicore/StructureDefinition/qicore-servicerequest" ]
      },
      "status": "active",
      "intent": "order",
      "code": {
        "coding": [ {
          "system": "http://snomed.info/sct",
          "code": "133918004"
        } ]
      },
      "subject": {
        "reference": "Patient/d9dc15b7-bf03-4b72-8dd5-3e4db21f052d"
      },
      "authoredOn": "2026-09-30T08:01:00.000+00:00"
    },
    "request": {
      "method": "PUT",
      "url": "ServiceRequest/b60b0a0f-2629-43c1-924b-8e3c3c81d841"
    }
  }, {
    "fullUrl": "https://madie.cms.gov/Coverage/b8d26dc8-ac69-4102-becf-5ea1c081d969",
    "resource": {
      "resourceType": "Coverage",
      "id": "b8d26dc8-ac69-4102-becf-5ea1c081d969",
      "status": "active",
      "subscriberId": "523435",
      "beneficiary": {
        "reference": "Patient/d9dc15b7-bf03-4b72-8dd5-3e4db21f052d"
      },
      "relationship": {
        "coding": [ {
          "system": "http://terminology.hl7.org/CodeSystem/subscriber-relationship",
          "code": "self"
        } ]
      },
      "period": {
        "start": "1986-09-18T08:00:00.000+00:00"
      },
      "payor": [ {
        "reference": "Organization/50cd6abd-f206-4a88-84f2-1f0e106f8334"
      } ]
    },
    "request": {
      "method": "PUT",
      "url": "Coverage/b8d26dc8-ac69-4102-becf-5ea1c081d969"
    }
  }, {
    "fullUrl": "https://madie.cms.gov/Condition/b176a35d-2c78-4146-a9e6-6a6e4b072eaa",
    "resource": {
      "resourceType": "Condition",
      "id": "b176a35d-2c78-4146-a9e6-6a6e4b072eaa",
      "meta": {
        "profile": [ "http://hl7.org/fhir/us/qicore/StructureDefinition/qicore-condition-problems-health-concerns" ]
      },
      "clinicalStatus": {
        "coding": [ {
          "system": "http://terminology.hl7.org/CodeSystem/condition-clinical",
          "code": "active"
        } ]
      },
      "verificationStatus": {
        "coding": [ {
          "system": "http://terminology.hl7.org/CodeSystem/condition-ver-status",
          "code": "confirmed"
        } ]
      },
      "category": [ {
        "coding": [ {
          "system": "http://terminology.hl7.org/CodeSystem/condition-category",
          "code": "encounter-diagnosis",
          "display": "Encounter Diagnosis"
        } ]
      } ],
      "code": {
        "coding": [ {
          "system": "http://snomed.info/sct",
          "version": "2021-09",
          "code": "111297002",
          "display": "Nonparalytic stroke (disorder)",
          "userSelected": true
        } ]
      },
      "subject": {
        "reference": "Patient/d9dc15b7-bf03-4b72-8dd5-3e4db21f052d"
      },
      "recordedDate": "2026-10-13T08:00:00.000+00:00"
    },
    "request": {
      "method": "PUT",
      "url": "Condition/b176a35d-2c78-4146-a9e6-6a6e4b072eaa"
    }
  }, {
    "fullUrl": "https://madie.cms.gov/Organization/50cd6abd-f206-4a88-84f2-1f0e106f8334",
    "resource": {
      "resourceType": "Organization",
      "id": "50cd6abd-f206-4a88-84f2-1f0e106f8334",
      "meta": {
        "profile": [ "http://hl7.org/fhir/us/qicore/StructureDefinition/qicore-organization" ]
      },
      "identifier": [ {
        "use": "temp",
        "system": "urn:oid:2.16.840.1.113883.4.4",
        "value": "21-3259825"
      } ],
      "active": true,
      "type": [ {
        "coding": [ {
          "system": "http://terminology.hl7.org/CodeSystem/organization-type",
          "code": "pay",
          "display": "Payer"
        } ]
      } ],
      "name": "Blue Cross Blue Shield of Texas",
      "telecom": [ {
        "system": "phone",
        "value": "(+1) 972-766-6900"
      } ],
      "address": [ {
        "use": "billing",
        "type": "postal",
        "line": [ "P.O. Box 660044" ],
        "city": "Dallas",
        "state": "TX",
        "postalCode": "75266-0044",
        "country": "USA"
      } ]
    },
    "request": {
      "method": "PUT",
      "url": "Organization/50cd6abd-f206-4a88-84f2-1f0e106f8334"
    }
  }, {
    "fullUrl": "https://madie.cms.gov/Practitioner/02f8ed43-80f4-43c4-9c9b-2a0eabeb66d5",
    "resource": {
      "resourceType": "Practitioner",
      "id": "02f8ed43-80f4-43c4-9c9b-2a0eabeb66d5",
      "meta": {
        "profile": [ "http://hl7.org/fhir/us/qicore/StructureDefinition/qicore-practitioner" ]
      },
      "identifier": [ {
        "system": "http://hl7.org/fhir/sid/us-npi",
        "value": "9999999896"
      } ],
      "name": [ {
        "family": "Evil",
        "prefix": [ "Dr" ]
      } ]
    },
    "request": {
      "method": "PUT",
      "url": "Practitioner/02f8ed43-80f4-43c4-9c9b-2a0eabeb66d5"
    }
  }, {
    "fullUrl": "https://madie.cms.gov/MeasureReport/9952a975-368b-413f-92e8-ff2a71e9282d",
    "resource": {
      "resourceType": "MeasureReport",
      "id": "9952a975-368b-413f-92e8-ff2a71e9282d",
      "meta": {
        "profile": [ "http://hl7.org/fhir/us/cqfmeasures/StructureDefinition/test-case-cqfm" ]
      },
      "contained": [ {
        "resourceType": "Parameters",
        "id": "d9cbc909-6be1-4981-b3ff-bd2bc1f2645e-parameters",
        "parameter": [ {
          "name": "subject",
          "valueString": "d9dc15b7-bf03-4b72-8dd5-3e4db21f052d"
        } ]
      } ],
      "extension": [ {
        "url": "http://hl7.org/fhir/StructureDefinition/cqf-inputParameters",
        "valueReference": {
          "reference": "#d9cbc909-6be1-4981-b3ff-bd2bc1f2645e-parameters"
        }
      }, {
        "url": "http://hl7.org/fhir/us/cqfmeasures/StructureDefinition/cqfm-testCaseDescription",
        "valueMarkdown": "\"Patient receives CMO order during Observation, ED visit ends 1 minute before Obs starts, Obs ends 60 min before inpatient start. Testing HospitalizationWithObservation function.\n\n\"\n"
      } ],
      "modifierExtension": [ {
        "url": "http://hl7.org/fhir/us/cqfmeasures/StructureDefinition/cqfm-isTestCase",
        "valueBoolean": true
      } ],
      "status": "complete",
      "type": "individual",
      "measure": "https://madie.cms.gov/Measure/CMS71FHIRSTKAnticoagAFFlutter",
      "period": {
        "start": "2026-01-01",
        "end": "2026-12-31"
      },
      "group": [ {
        "id": "Group_1",
        "population": [ {
          "id": "InitialPopulation_1",
          "code": {
            "coding": [ {
              "system": "http://terminology.hl7.org/CodeSystem/measure-population",
              "code": "initial-population",
              "display": "Initial Population"
            } ]
          },
          "count": 1
        }, {
          "id": "Denominator_1",
          "code": {
            "coding": [ {
              "system": "http://terminology.hl7.org/CodeSystem/measure-population",
              "code": "denominator",
              "display": "Denominator"
            } ]
          },
          "count": 1
        }, {
          "id": "DenominatorExclusion_1",
          "code": {
            "coding": [ {
              "system": "http://terminology.hl7.org/CodeSystem/measure-population",
              "code": "denominator-exclusion",
              "display": "Denominator Exclusion"
            } ]
          },
          "count": 1
        }, {
          "id": "Numerator_1",
          "code": {
            "coding": [ {
              "system": "http://terminology.hl7.org/CodeSystem/measure-population",
              "code": "numerator",
              "display": "Numerator"
            } ]
          },
          "count": 0
        }, {
          "id": "DenominatorException_1",
          "code": {
            "coding": [ {
              "system": "http://terminology.hl7.org/CodeSystem/measure-population",
              "code": "denominator-exception",
              "display": "Denominator Exception"
            } ]
          },
          "count": 0
        } ],
        "measureScore": {
          "value": 0.0
        }
      } ],
      "evaluatedResource": [ {
        "reference": "Patient/d9dc15b7-bf03-4b72-8dd5-3e4db21f052d"
      }, {
        "reference": "Claim/5ca62962b8484628b8de1ec5"
      }, {
        "reference": "Condition/95a50087-1c4c-4a2e-88f7-35084ee335da"
      }, {
        "reference": "Encounter/5ca417c3-edb8-41af-9a9f-01b7e00adbdd"
      }, {
        "reference": "Encounter/237ad6ed-82fe-4ca7-8126-010fef57fb9a"
      }, {
        "reference": "Encounter/5d4e7488-1fbc-4add-89d4-95e276c7fd90"
      }, {
        "reference": "ServiceRequest/b60b0a0f-2629-43c1-924b-8e3c3c81d841"
      }, {
        "reference": "Coverage/b8d26dc8-ac69-4102-becf-5ea1c081d969"
      }, {
        "reference": "Condition/b176a35d-2c78-4146-a9e6-6a6e4b072eaa"
      }, {
        "reference": "Organization/50cd6abd-f206-4a88-84f2-1f0e106f8334"
      }, {
        "reference": "Practitioner/02f8ed43-80f4-43c4-9c9b-2a0eabeb66d5"
      } ]
    },
    "request": {
      "method": "PUT",
      "url": "MeasureReport/9952a975-368b-413f-92e8-ff2a71e9282d"
    }
  } ]
}