{
  "resourceType": "Bundle",
  "id": "DENEXPass-PalliativeCareDuringMP",
  "type": "transaction",
  "entry": [ {
    "fullUrl": "https://madie.cms.gov/Patient/3aef97c8-9529-433c-95d3-ea01f188e156",
    "resource": {
      "resourceType": "Patient",
      "id": "3aef97c8-9529-433c-95d3-ea01f188e156",
      "meta": {
        "profile": [ "http://hl7.org/fhir/us/qicore/StructureDefinition/qicore-patient" ]
      },
      "extension": [ {
        "url": "http://hl7.org/fhir/us/core/StructureDefinition/us-core-race",
        "extension": [ {
          "url": "ombCategory",
          "valueCoding": {
            "system": "urn:oid:2.16.840.1.113883.6.238",
            "code": "2028-9",
            "display": "Asian"
          }
        }, {
          "url": "text",
          "valueString": "Asian"
        } ]
      }, {
        "url": "http://hl7.org/fhir/us/core/StructureDefinition/us-core-sex",
        "valueCode": "248152002"
      }, {
        "url": "http://hl7.org/fhir/us/core/StructureDefinition/us-core-ethnicity",
        "extension": [ {
          "url": "ombCategory",
          "valueCoding": {
            "system": "urn:oid:2.16.840.1.113883.6.238",
            "code": "2135-2",
            "display": "Hispanic or Latino"
          }
        }, {
          "url": "text",
          "valueString": "Hispanic or Latino"
        } ]
      } ],
      "identifier": [ {
        "system": "http://hospital.smarthealthit.org",
        "value": "999999995"
      } ],
      "name": [ {
        "family": "Bertha",
        "given": [ "Betty" ]
      } ],
      "gender": "female",
      "birthDate": "2002-12-31"
    },
    "request": {
      "method": "PUT",
      "url": "Patient/3aef97c8-9529-433c-95d3-ea01f188e156"
    }
  }, {
    "fullUrl": "https://madie.cms.gov/Encounter/af2ad2e0-05b4-4ae1-8afe-05d3082b02b9",
    "resource": {
      "resourceType": "Encounter",
      "id": "af2ad2e0-05b4-4ae1-8afe-05d3082b02b9",
      "meta": {
        "profile": [ "http://hl7.org/fhir/us/qicore/StructureDefinition/qicore-encounter" ]
      },
      "status": "finished",
      "class": {
        "system": "http://terminology.hl7.org/CodeSystem/v3-ActCode",
        "code": "AMB",
        "display": "ambulatory"
      },
      "type": [ {
        "coding": [ {
          "system": "http://snomed.info/sct",
          "code": "185317003",
          "display": "Telephone encounter (procedure)"
        } ]
      } ],
      "subject": {
        "reference": "Patient/3aef97c8-9529-433c-95d3-ea01f188e156"
      },
      "period": {
        "start": "2026-01-01T01:00:00.000+00:00",
        "end": "2026-01-01T01:15:00.000+00:00"
      }
    },
    "request": {
      "method": "PUT",
      "url": "Encounter/af2ad2e0-05b4-4ae1-8afe-05d3082b02b9"
    }
  }, {
    "fullUrl": "https://madie.cms.gov/Procedure/544bb4c4-5ca8-4485-bb46-ec277f1733a8",
    "resource": {
      "resourceType": "Procedure",
      "id": "544bb4c4-5ca8-4485-bb46-ec277f1733a8",
      "meta": {
        "profile": [ "http://hl7.org/fhir/us/qicore/StructureDefinition/qicore-procedure" ]
      },
      "extension": [ {
        "url": "http://hl7.org/fhir/us/qicore/StructureDefinition/qicore-recorded",
        "valueDateTime": "2026-12-31T23:00:00.000+00:00"
      } ],
      "status": "completed",
      "code": {
        "coding": [ {
          "system": "http://snomed.info/sct",
          "code": "103735009",
          "display": "Palliative care (regime/therapy)"
        } ]
      },
      "subject": {
        "reference": "Patient/3aef97c8-9529-433c-95d3-ea01f188e156"
      },
      "performedPeriod": {
        "start": "2026-12-31T23:00:00.000+00:00",
        "end": "2026-12-31T23:59:00.000+00:00"
      }
    },
    "request": {
      "method": "PUT",
      "url": "Procedure/544bb4c4-5ca8-4485-bb46-ec277f1733a8"
    }
  }, {
    "fullUrl": "https://madie.cms.gov/MeasureReport/e1cbc9e6-5ffe-421c-9e55-10f06668eaa4",
    "resource": {
      "resourceType": "MeasureReport",
      "id": "e1cbc9e6-5ffe-421c-9e55-10f06668eaa4",
      "meta": {
        "profile": [ "http://hl7.org/fhir/us/cqfmeasures/StructureDefinition/test-case-cqfm" ]
      },
      "contained": [ {
        "resourceType": "Parameters",
        "id": "d3196c40-5349-4495-9dc9-573c955ef3ca-parameters",
        "parameter": [ {
          "name": "subject",
          "valueString": "3aef97c8-9529-433c-95d3-ea01f188e156"
        } ]
      } ],
      "extension": [ {
        "url": "http://hl7.org/fhir/StructureDefinition/cqf-inputParameters",
        "valueReference": {
          "reference": "#d3196c40-5349-4495-9dc9-573c955ef3ca-parameters"
        }
      }, {
        "url": "http://hl7.org/fhir/us/cqfmeasures/StructureDefinition/cqfm-testCaseDescription",
        "valueMarkdown": "Female 24 years old with Palliative Care performed during MP"
      } ],
      "modifierExtension": [ {
        "url": "http://hl7.org/fhir/us/cqfmeasures/StructureDefinition/cqfm-isTestCase",
        "valueBoolean": true
      } ],
      "status": "complete",
      "type": "individual",
      "measure": "https://madie.cms.gov/Measure/CMS124FHIRCervicalCancerScreen",
      "period": {
        "start": "2026-01-01",
        "end": "2026-12-31"
      },
      "group": [ {
        "id": "Group_1",
        "population": [ {
          "id": "InitialPopulation_1",
          "code": {
            "coding": [ {
              "system": "http://terminology.hl7.org/CodeSystem/measure-population",
              "code": "initial-population",
              "display": "Initial Population"
            } ]
          },
          "count": 1
        }, {
          "id": "Denominator_1",
          "code": {
            "coding": [ {
              "system": "http://terminology.hl7.org/CodeSystem/measure-population",
              "code": "denominator",
              "display": "Denominator"
            } ]
          },
          "count": 1
        }, {
          "id": "DenominatorExclusion_1",
          "code": {
            "coding": [ {
              "system": "http://terminology.hl7.org/CodeSystem/measure-population",
              "code": "denominator-exclusion",
              "display": "Denominator Exclusion"
            } ]
          },
          "count": 1
        }, {
          "id": "Numerator_1",
          "code": {
            "coding": [ {
              "system": "http://terminology.hl7.org/CodeSystem/measure-population",
              "code": "numerator",
              "display": "Numerator"
            } ]
          },
          "count": 0
        } ],
        "measureScore": {
          "value": 1.0
        }
      } ],
      "evaluatedResource": [ {
        "reference": "Patient/3aef97c8-9529-433c-95d3-ea01f188e156"
      }, {
        "reference": "Encounter/af2ad2e0-05b4-4ae1-8afe-05d3082b02b9"
      }, {
        "reference": "Procedure/544bb4c4-5ca8-4485-bb46-ec277f1733a8"
      } ]
    },
    "request": {
      "method": "PUT",
      "url": "MeasureReport/e1cbc9e6-5ffe-421c-9e55-10f06668eaa4"
    }
  } ]
}