{
  "resourceType": "Bundle",
  "id": "2Enc2FallsWithInjury",
  "type": "transaction",
  "entry": [ {
    "fullUrl": "https://madie.cms.gov/Claim/3f8ed198-d267-4077-9705-145c9935227d",
    "resource": {
      "resourceType": "Claim",
      "id": "3f8ed198-d267-4077-9705-145c9935227d",
      "meta": {
        "profile": [ "http://hl7.org/fhir/us/qicore/StructureDefinition/qicore-claim" ]
      },
      "status": "active",
      "type": {
        "coding": [ {
          "system": "http://terminology.hl7.org/CodeSystem/claim-type",
          "code": "professional",
          "display": "Professional"
        } ]
      },
      "use": "claim",
      "patient": {
        "reference": "Patient/0884b17b-baa4-47c0-a2b6-5849230dcf43"
      },
      "created": "2026-12-12",
      "provider": {
        "reference": "Practitioner/764964aa-9568-4afa-a8ff-752d15ed5c36"
      },
      "priority": {
        "coding": [ {
          "system": "http://terminology.hl7.org/CodeSystem/processpriority",
          "code": "normal"
        } ]
      },
      "diagnosis": [ {
        "sequence": 1,
        "diagnosisCodeableConcept": {
          "coding": [ {
            "system": "http://hl7.org/fhir/sid/icd-10-cm",
            "code": "W01.0XXA"
          } ]
        },
        "onAdmission": {
          "coding": [ {
            "system": "https://www.cms.gov/Medicare/Medicare-Fee-for-Service-Payment/HospitalAcqCond/Coding",
            "code": "N"
          } ]
        }
      } ],
      "insurance": [ {
        "sequence": 1,
        "focal": true,
        "coverage": {
          "reference": "Coverage/4606687f-2416-44c7-a8b7-c41f7b375ecf"
        }
      } ],
      "item": [ {
        "sequence": 1,
        "diagnosisSequence": [ 1, 2 ],
        "productOrService": {
          "coding": [ {
            "system": "http://terminology.hl7.org/CodeSystem/ex-USCLS",
            "code": "1101"
          } ]
        },
        "encounter": [ {
          "reference": "Encounter/7e0c88ff-2c2f-49e6-81b6-cf1b0907ea5e"
        } ]
      } ]
    },
    "request": {
      "method": "PUT",
      "url": "Claim/3f8ed198-d267-4077-9705-145c9935227d"
    }
  }, {
    "fullUrl": "https://madie.cms.gov/Claim/6bc3fdf7-1b17-46b6-bfb1-fece0ce05797",
    "resource": {
      "resourceType": "Claim",
      "id": "6bc3fdf7-1b17-46b6-bfb1-fece0ce05797",
      "meta": {
        "profile": [ "http://hl7.org/fhir/us/qicore/StructureDefinition/qicore-claim" ]
      },
      "status": "active",
      "type": {
        "coding": [ {
          "system": "http://terminology.hl7.org/CodeSystem/claim-type",
          "code": "professional",
          "display": "Professional"
        } ]
      },
      "use": "claim",
      "patient": {
        "reference": "Patient/0884b17b-baa4-47c0-a2b6-5849230dcf43"
      },
      "created": "2026-12-12",
      "provider": {
        "reference": "Practitioner/764964aa-9568-4afa-a8ff-752d15ed5c36"
      },
      "priority": {
        "coding": [ {
          "system": "http://terminology.hl7.org/CodeSystem/processpriority",
          "code": "normal"
        } ]
      },
      "diagnosis": [ {
        "sequence": 2,
        "diagnosisCodeableConcept": {
          "coding": [ {
            "system": "http://hl7.org/fhir/sid/icd-10-cm",
            "code": "S01.309A"
          } ]
        },
        "onAdmission": {
          "coding": [ {
            "system": "https://www.cms.gov/Medicare/Medicare-Fee-for-Service-Payment/HospitalAcqCond/Coding",
            "code": "N"
          } ]
        }
      } ],
      "insurance": [ {
        "sequence": 1,
        "focal": true,
        "coverage": {
          "reference": "Coverage/4606687f-2416-44c7-a8b7-c41f7b375ecf"
        }
      } ],
      "item": [ {
        "sequence": 1,
        "diagnosisSequence": [ 1, 2 ],
        "productOrService": {
          "coding": [ {
            "system": "http://terminology.hl7.org/CodeSystem/ex-USCLS",
            "code": "1101"
          } ]
        },
        "encounter": [ {
          "reference": "Encounter/7e0c88ff-2c2f-49e6-81b6-cf1b0907ea5e"
        } ]
      } ]
    },
    "request": {
      "method": "PUT",
      "url": "Claim/6bc3fdf7-1b17-46b6-bfb1-fece0ce05797"
    }
  }, {
    "fullUrl": "https://madie.cms.gov/Claim/c75acdec-e585-4564-82c5-57b959651944",
    "resource": {
      "resourceType": "Claim",
      "id": "c75acdec-e585-4564-82c5-57b959651944",
      "meta": {
        "profile": [ "http://hl7.org/fhir/us/qicore/StructureDefinition/qicore-claim" ]
      },
      "status": "active",
      "type": {
        "coding": [ {
          "system": "http://terminology.hl7.org/CodeSystem/claim-type",
          "code": "professional",
          "display": "Professional"
        } ]
      },
      "use": "claim",
      "patient": {
        "reference": "Patient/0884b17b-baa4-47c0-a2b6-5849230dcf43"
      },
      "created": "2026-12-12",
      "provider": {
        "reference": "Practitioner/764964aa-9568-4afa-a8ff-752d15ed5c36"
      },
      "priority": {
        "coding": [ {
          "system": "http://terminology.hl7.org/CodeSystem/processpriority",
          "code": "normal"
        } ]
      },
      "diagnosis": [ {
        "sequence": 1,
        "diagnosisCodeableConcept": {
          "coding": [ {
            "system": "http://snomed.info/sct",
            "code": "14047009"
          } ]
        },
        "onAdmission": {
          "coding": [ {
            "system": "https://www.cms.gov/Medicare/Medicare-Fee-for-Service-Payment/HospitalAcqCond/Coding",
            "code": "N"
          } ]
        }
      } ],
      "insurance": [ {
        "sequence": 1,
        "focal": true,
        "coverage": {
          "reference": "Coverage/4606687f-2416-44c7-a8b7-c41f7b375ecf"
        }
      } ],
      "item": [ {
        "sequence": 1,
        "diagnosisSequence": [ 1, 2 ],
        "productOrService": {
          "coding": [ {
            "system": "http://terminology.hl7.org/CodeSystem/ex-USCLS",
            "code": "1101"
          } ]
        },
        "encounter": [ {
          "reference": "Encounter/136e9b06-f3e5-4fee-90e9-3a1b4b50d19d"
        } ]
      } ]
    },
    "request": {
      "method": "PUT",
      "url": "Claim/c75acdec-e585-4564-82c5-57b959651944"
    }
  }, {
    "fullUrl": "https://madie.cms.gov/Claim/1ed7f9d5-8a36-4923-bb7e-61b6cd94da19",
    "resource": {
      "resourceType": "Claim",
      "id": "1ed7f9d5-8a36-4923-bb7e-61b6cd94da19",
      "meta": {
        "profile": [ "http://hl7.org/fhir/us/qicore/StructureDefinition/qicore-claim" ]
      },
      "status": "active",
      "type": {
        "coding": [ {
          "system": "http://terminology.hl7.org/CodeSystem/claim-type",
          "code": "professional",
          "display": "Professional"
        } ]
      },
      "use": "claim",
      "patient": {
        "reference": "Patient/0884b17b-baa4-47c0-a2b6-5849230dcf43"
      },
      "created": "2026-12-12",
      "provider": {
        "reference": "Practitioner/764964aa-9568-4afa-a8ff-752d15ed5c36"
      },
      "priority": {
        "coding": [ {
          "system": "http://terminology.hl7.org/CodeSystem/processpriority",
          "code": "normal"
        } ]
      },
      "diagnosis": [ {
        "sequence": 2,
        "diagnosisCodeableConcept": {
          "coding": [ {
            "system": "http://hl7.org/fhir/sid/icd-10-cm",
            "code": "M80.00XA"
          } ]
        },
        "onAdmission": {
          "coding": [ {
            "system": "https://www.cms.gov/Medicare/Medicare-Fee-for-Service-Payment/HospitalAcqCond/Coding",
            "code": "N"
          } ]
        }
      } ],
      "insurance": [ {
        "sequence": 1,
        "focal": true,
        "coverage": {
          "reference": "Coverage/4606687f-2416-44c7-a8b7-c41f7b375ecf"
        }
      } ],
      "item": [ {
        "sequence": 1,
        "diagnosisSequence": [ 1, 2 ],
        "productOrService": {
          "coding": [ {
            "system": "http://terminology.hl7.org/CodeSystem/ex-USCLS",
            "code": "1101"
          } ]
        },
        "encounter": [ {
          "reference": "Encounter/136e9b06-f3e5-4fee-90e9-3a1b4b50d19d"
        } ]
      } ]
    },
    "request": {
      "method": "PUT",
      "url": "Claim/1ed7f9d5-8a36-4923-bb7e-61b6cd94da19"
    }
  }, {
    "fullUrl": "https://madie.cms.gov/Encounter/136e9b06-f3e5-4fee-90e9-3a1b4b50d19d",
    "resource": {
      "resourceType": "Encounter",
      "id": "136e9b06-f3e5-4fee-90e9-3a1b4b50d19d",
      "meta": {
        "profile": [ "http://hl7.org/fhir/us/qicore/StructureDefinition/qicore-encounter" ]
      },
      "status": "finished",
      "class": {
        "system": "http://terminology.hl7.org/CodeSystem/v3-ActCode",
        "code": "IMP",
        "display": "inpatient encounter"
      },
      "type": [ {
        "coding": [ {
          "system": "http://snomed.info/sct",
          "code": "183452005"
        } ]
      } ],
      "subject": {
        "reference": "Patient/0884b17b-baa4-47c0-a2b6-5849230dcf43"
      },
      "period": {
        "start": "2026-12-08T08:00:00.000+00:00",
        "end": "2026-12-12T08:15:00.000+00:00"
      },
      "reasonCode": [ {
        "coding": [ {
          "system": "http://snomed.info/sct",
          "code": "14047009"
        } ]
      }, {
        "coding": [ {
          "system": "http://hl7.org/fhir/sid/icd-10-cm",
          "code": "M80.00XA"
        } ]
      } ]
    },
    "request": {
      "method": "PUT",
      "url": "Encounter/136e9b06-f3e5-4fee-90e9-3a1b4b50d19d"
    }
  }, {
    "fullUrl": "https://madie.cms.gov/Encounter/7e0c88ff-2c2f-49e6-81b6-cf1b0907ea5e",
    "resource": {
      "resourceType": "Encounter",
      "id": "7e0c88ff-2c2f-49e6-81b6-cf1b0907ea5e",
      "meta": {
        "profile": [ "http://hl7.org/fhir/us/qicore/StructureDefinition/qicore-encounter" ]
      },
      "status": "finished",
      "class": {
        "system": "http://terminology.hl7.org/CodeSystem/v3-ActCode",
        "code": "IMP",
        "display": "inpatient encounter"
      },
      "type": [ {
        "coding": [ {
          "system": "http://snomed.info/sct",
          "code": "183452005"
        } ]
      } ],
      "subject": {
        "reference": "Patient/0884b17b-baa4-47c0-a2b6-5849230dcf43"
      },
      "period": {
        "start": "2026-11-09T11:00:00.000+00:00",
        "end": "2026-11-12T08:15:00.000+00:00"
      }
    },
    "request": {
      "method": "PUT",
      "url": "Encounter/7e0c88ff-2c2f-49e6-81b6-cf1b0907ea5e"
    }
  }, {
    "fullUrl": "https://madie.cms.gov/Encounter/8a5348a4-f247-4edd-a4d3-bd978eca8035",
    "resource": {
      "resourceType": "Encounter",
      "id": "8a5348a4-f247-4edd-a4d3-bd978eca8035",
      "meta": {
        "profile": [ "http://hl7.org/fhir/us/qicore/StructureDefinition/qicore-encounter" ]
      },
      "status": "finished",
      "class": {
        "system": "http://terminology.hl7.org/CodeSystem/v3-ActCode",
        "code": "IMP",
        "display": "inpatient encounter"
      },
      "type": [ {
        "coding": [ {
          "system": "http://snomed.info/sct",
          "code": "4525004"
        } ]
      } ],
      "subject": {
        "reference": "Patient/0884b17b-baa4-47c0-a2b6-5849230dcf43"
      },
      "period": {
        "start": "2026-11-09T08:00:00.000+00:00",
        "end": "2026-11-09T10:15:00.000+00:00"
      },
      "reasonCode": [ {
        "coding": [ {
          "system": "http://hl7.org/fhir/sid/icd-10-cm",
          "code": "W01.0XXA"
        } ]
      }, {
        "coding": [ {
          "system": "http://hl7.org/fhir/sid/icd-10-cm",
          "code": "S01.309A"
        } ]
      } ]
    },
    "request": {
      "method": "PUT",
      "url": "Encounter/8a5348a4-f247-4edd-a4d3-bd978eca8035"
    }
  }, {
    "fullUrl": "https://madie.cms.gov/Patient/0884b17b-baa4-47c0-a2b6-5849230dcf43",
    "resource": {
      "resourceType": "Patient",
      "id": "0884b17b-baa4-47c0-a2b6-5849230dcf43",
      "meta": {
        "profile": [ "http://hl7.org/fhir/us/qicore/StructureDefinition/qicore-patient" ]
      },
      "extension": [ {
        "url": "http://hl7.org/fhir/us/core/StructureDefinition/us-core-race",
        "extension": [ {
          "url": "ombCategory",
          "valueCoding": {
            "system": "urn:oid:2.16.840.1.113883.6.238",
            "code": "2054-5",
            "display": "Black or African American",
            "userSelected": true
          }
        }, {
          "url": "text",
          "valueString": "Black or African American"
        } ]
      }, {
        "url": "http://hl7.org/fhir/us/core/StructureDefinition/us-core-ethnicity",
        "extension": [ {
          "url": "ombCategory",
          "valueCoding": {
            "system": "urn:oid:2.16.840.1.113883.6.238",
            "code": "2186-5",
            "display": "Not Hispanic or Latino",
            "userSelected": true
          }
        }, {
          "url": "text",
          "valueString": "Not Hispanic or Latino"
        } ]
      } ],
      "identifier": [ {
        "type": {
          "coding": [ {
            "system": "http://terminology.hl7.org/CodeSystem/v2-0203",
            "code": "MR"
          } ]
        },
        "system": "https://bonnie-fhir.healthit.gov/",
        "value": "61152a3b98086b7a79cbd7c1"
      } ],
      "active": true,
      "name": [ {
        "use": "usual",
        "family": "NUMERPass",
        "given": [ "2Enc2FallsWithInjury" ]
      } ],
      "gender": "male",
      "birthDate": "1964-12-11"
    },
    "request": {
      "method": "PUT",
      "url": "Patient/0884b17b-baa4-47c0-a2b6-5849230dcf43"
    }
  }, {
    "fullUrl": "https://madie.cms.gov/AdverseEvent/fcc9c2d4-eefb-4f47-b5ac-10ff331edb75",
    "resource": {
      "resourceType": "AdverseEvent",
      "id": "fcc9c2d4-eefb-4f47-b5ac-10ff331edb75",
      "meta": {
        "profile": [ "http://hl7.org/fhir/us/qicore/StructureDefinition/qicore-adverseevent" ]
      },
      "actuality": "actual",
      "event": {
        "coding": [ {
          "system": "http://hl7.org/fhir/sid/icd-10-cm",
          "code": "W01.0XXA"
        } ]
      },
      "subject": {
        "reference": "Patient/0884b17b-baa4-47c0-a2b6-5849230dcf43"
      },
      "date": "2026-12-09T08:00:00.000+00:00"
    },
    "request": {
      "method": "PUT",
      "url": "AdverseEvent/fcc9c2d4-eefb-4f47-b5ac-10ff331edb75"
    }
  }, {
    "fullUrl": "https://madie.cms.gov/AdverseEvent/8f77d21b-1b95-4685-9c11-556d41e538d9",
    "resource": {
      "resourceType": "AdverseEvent",
      "id": "8f77d21b-1b95-4685-9c11-556d41e538d9",
      "meta": {
        "profile": [ "http://hl7.org/fhir/us/qicore/StructureDefinition/qicore-adverseevent" ]
      },
      "actuality": "actual",
      "event": {
        "coding": [ {
          "system": "http://snomed.info/sct",
          "code": "14047009"
        } ]
      },
      "subject": {
        "reference": "Patient/0884b17b-baa4-47c0-a2b6-5849230dcf43"
      },
      "date": "2026-11-10T08:00:00.000+00:00"
    },
    "request": {
      "method": "PUT",
      "url": "AdverseEvent/8f77d21b-1b95-4685-9c11-556d41e538d9"
    }
  }, {
    "fullUrl": "https://madie.cms.gov/Practitioner/764964aa-9568-4afa-a8ff-752d15ed5c36",
    "resource": {
      "resourceType": "Practitioner",
      "id": "764964aa-9568-4afa-a8ff-752d15ed5c36",
      "identifier": [ {
        "system": "http://www.cms.gov/identifiers/pracitioners",
        "value": "P12345"
      } ],
      "name": [ {
        "use": "official",
        "family": "Smith",
        "given": [ "John" ]
      } ],
      "qualification": [ {
        "identifier": [ {
          "system": "http://hl7.org/fhir/sid/us-npi",
          "value": "1234567890"
        } ],
        "code": {
          "coding": [ {
            "system": "http://terminology.hl7.org/CodeSystem/v2-0203",
            "code": "MD",
            "display": "Medical License number"
          } ]
        }
      } ]
    },
    "request": {
      "method": "PUT",
      "url": "Practitioner/764964aa-9568-4afa-a8ff-752d15ed5c36"
    }
  }, {
    "fullUrl": "https://madie.cms.gov/Coverage/4606687f-2416-44c7-a8b7-c41f7b375ecf",
    "resource": {
      "resourceType": "Coverage",
      "id": "4606687f-2416-44c7-a8b7-c41f7b375ecf",
      "status": "active",
      "beneficiary": {
        "reference": "Patient/0884b17b-baa4-47c0-a2b6-5849230dcf43"
      },
      "payor": [ {
        "reference": "Organization/4e1205af-f8d2-4c08-83af-379e242775bc"
      } ]
    },
    "request": {
      "method": "PUT",
      "url": "Coverage/4606687f-2416-44c7-a8b7-c41f7b375ecf"
    }
  }, {
    "fullUrl": "https://madie.cms.gov/Organization/4e1205af-f8d2-4c08-83af-379e242775bc",
    "resource": {
      "resourceType": "Organization",
      "id": "4e1205af-f8d2-4c08-83af-379e242775bc",
      "identifier": [ {
        "system": "http://cms.gov/insurance-ids",
        "value": "AET12345"
      } ],
      "type": [ {
        "coding": [ {
          "system": "http://terminology.hl7.org/CodeSystem/organization-type",
          "code": "prov",
          "display": "Healthcare Provider"
        } ]
      } ],
      "name": "Aetna Insurance",
      "telecom": [ {
        "system": "phone",
        "value": "+1-800-123-4567"
      } ],
      "address": [ {
        "line": [ "123 Main Street" ],
        "city": "Cityville",
        "state": "CA",
        "postalCode": "12345",
        "country": "USA"
      } ]
    },
    "request": {
      "method": "PUT",
      "url": "Organization/4e1205af-f8d2-4c08-83af-379e242775bc"
    }
  }, {
    "fullUrl": "https://madie.cms.gov/MeasureReport/83cc8c85-b1c5-4c9c-825d-547009c2e658",
    "resource": {
      "resourceType": "MeasureReport",
      "id": "83cc8c85-b1c5-4c9c-825d-547009c2e658",
      "meta": {
        "profile": [ "http://hl7.org/fhir/us/cqfmeasures/StructureDefinition/test-case-cqfm" ]
      },
      "contained": [ {
        "resourceType": "Parameters",
        "id": "cc1b57b7-210c-4b4d-ac43-8d4a7bd9da42-parameters",
        "parameter": [ {
          "name": "subject",
          "valueString": "0884b17b-baa4-47c0-a2b6-5849230dcf43"
        } ]
      } ],
      "extension": [ {
        "url": "http://hl7.org/fhir/StructureDefinition/cqf-inputParameters",
        "valueReference": {
          "reference": "#cc1b57b7-210c-4b4d-ac43-8d4a7bd9da42-parameters"
        }
      }, {
        "url": "http://hl7.org/fhir/us/cqfmeasures/StructureDefinition/cqfm-testCaseDescription",
        "valueMarkdown": "Patient fall + injury during 2 encounters. Both had Adverse Event Fall + Major or Mod Injury NPOA."
      } ],
      "modifierExtension": [ {
        "url": "http://hl7.org/fhir/us/cqfmeasures/StructureDefinition/cqfm-isTestCase",
        "valueBoolean": true
      } ],
      "status": "complete",
      "type": "individual",
      "measure": "https://madie.cms.gov/Measure/CMS1017FHIRHHFI",
      "period": {
        "start": "2026-01-01",
        "end": "2026-12-31"
      },
      "group": [ {
        "id": "Group_1",
        "population": [ {
          "id": "InitialPopulation_1",
          "code": {
            "coding": [ {
              "system": "http://terminology.hl7.org/CodeSystem/measure-population",
              "code": "initial-population",
              "display": "Initial Population"
            } ]
          },
          "count": 2
        }, {
          "id": "Denominator_1",
          "code": {
            "coding": [ {
              "system": "http://terminology.hl7.org/CodeSystem/measure-population",
              "code": "denominator",
              "display": "Denominator"
            } ]
          },
          "count": 2
        }, {
          "id": "DenominatorExclusion_1",
          "code": {
            "coding": [ {
              "system": "http://terminology.hl7.org/CodeSystem/measure-population",
              "code": "denominator-exclusion",
              "display": "Denominator Exclusion"
            } ]
          },
          "count": 0
        }, {
          "id": "Numerator_1",
          "code": {
            "coding": [ {
              "system": "http://terminology.hl7.org/CodeSystem/measure-population",
              "code": "numerator",
              "display": "Numerator"
            } ]
          },
          "count": 2
        }, {
          "id": "NumeratorExclusion_1",
          "code": {
            "coding": [ {
              "system": "http://terminology.hl7.org/CodeSystem/measure-population",
              "code": "numerator-exclusion",
              "display": "Numerator Exclusion"
            } ]
          },
          "count": 0
        }, {
          "id": "MeasureObservation_1_1_1",
          "code": {
            "coding": [ {
              "system": "http://terminology.hl7.org/CodeSystem/measure-population",
              "code": "measure-observation",
              "display": "Measure Observation"
            } ]
          },
          "count": 4
        }, {
          "id": "MeasureObservation_1_1_2",
          "code": {
            "coding": [ {
              "system": "http://terminology.hl7.org/CodeSystem/measure-population",
              "code": "measure-observation",
              "display": "Measure Observation"
            } ]
          },
          "count": 3
        }, {
          "id": "MeasureObservation_1_2_1",
          "code": {
            "coding": [ {
              "system": "http://terminology.hl7.org/CodeSystem/measure-population",
              "code": "measure-observation",
              "display": "Measure Observation"
            } ]
          },
          "count": 1
        }, {
          "id": "MeasureObservation_1_2_2",
          "code": {
            "coding": [ {
              "system": "http://terminology.hl7.org/CodeSystem/measure-population",
              "code": "measure-observation",
              "display": "Measure Observation"
            } ]
          },
          "count": 1
        } ],
        "measureScore": {
          "value": 0.0
        }
      } ],
      "evaluatedResource": [ {
        "reference": "Claim/3f8ed198-d267-4077-9705-145c9935227d"
      }, {
        "reference": "Claim/6bc3fdf7-1b17-46b6-bfb1-fece0ce05797"
      }, {
        "reference": "Claim/c75acdec-e585-4564-82c5-57b959651944"
      }, {
        "reference": "Claim/1ed7f9d5-8a36-4923-bb7e-61b6cd94da19"
      }, {
        "reference": "Encounter/136e9b06-f3e5-4fee-90e9-3a1b4b50d19d"
      }, {
        "reference": "Encounter/7e0c88ff-2c2f-49e6-81b6-cf1b0907ea5e"
      }, {
        "reference": "Encounter/8a5348a4-f247-4edd-a4d3-bd978eca8035"
      }, {
        "reference": "Patient/0884b17b-baa4-47c0-a2b6-5849230dcf43"
      }, {
        "reference": "AdverseEvent/fcc9c2d4-eefb-4f47-b5ac-10ff331edb75"
      }, {
        "reference": "AdverseEvent/8f77d21b-1b95-4685-9c11-556d41e538d9"
      }, {
        "reference": "Practitioner/764964aa-9568-4afa-a8ff-752d15ed5c36"
      }, {
        "reference": "Coverage/4606687f-2416-44c7-a8b7-c41f7b375ecf"
      }, {
        "reference": "Organization/4e1205af-f8d2-4c08-83af-379e242775bc"
      } ]
    },
    "request": {
      "method": "PUT",
      "url": "MeasureReport/83cc8c85-b1c5-4c9c-825d-547009c2e658"
    }
  } ]
}