{
  "resourceType": "Bundle",
  "id": "633c9d040968f8012250fca3",
  "type": "transaction",
  "entry": [ {
    "fullUrl": "https://madie.cms.gov/Patient/12f5363d-fa3f-4a61-aad9-defc8583ca12",
    "resource": {
      "resourceType": "Patient",
      "id": "12f5363d-fa3f-4a61-aad9-defc8583ca12",
      "meta": {
        "profile": [ "http://hl7.org/fhir/us/qicore/StructureDefinition/qicore-patient" ]
      },
      "text": {
        "status": "generated",
        "div": "<div xmlns=\"http://www.w3.org/1999/xhtml\"><div class=\"hapiHeaderText\">CMOdurED_ED=1hrNoObsBFEnc <b>DENEXPASS </b></div><table class=\"hapiPropertyTable\"><tbody><tr><td>Identifier</td><td>670854918483ca8b7894283bd5cddbcf5037c5392991b8777bf3c4f78ed05f0b</td></tr><tr><td>Date of birth</td><td><span>18 September 1985</span></td></tr></tbody></table></div>"
      },
      "extension": [ {
        "url": "http://hl7.org/fhir/us/core/StructureDefinition/us-core-race",
        "extension": [ {
          "url": "ombCategory",
          "valueCoding": {
            "system": "urn:oid:2.16.840.1.113883.6.238",
            "code": "1002-5",
            "display": "American Indian or Alaska Native",
            "userSelected": true
          }
        }, {
          "url": "text",
          "valueString": "American Indian or Alaska Native"
        } ]
      }, {
        "url": "http://hl7.org/fhir/us/core/StructureDefinition/us-core-ethnicity",
        "extension": [ {
          "url": "ombCategory",
          "valueCoding": {
            "system": "urn:oid:2.16.840.1.113883.6.238",
            "code": "2135-2",
            "display": "Hispanic or Latino",
            "userSelected": true
          }
        }, {
          "url": "text",
          "valueString": "Hispanic or Latino"
        } ]
      } ],
      "identifier": [ {
        "type": {
          "coding": [ {
            "system": "http://terminology.hl7.org/CodeSystem/v2-0203",
            "code": "MR"
          } ]
        },
        "system": "https://bonnie-fhir.healthit.gov/",
        "value": "633c9d040968f8012250fca3"
      } ],
      "active": true,
      "name": [ {
        "use": "usual",
        "family": "DENEXPass",
        "given": [ "CMOdurEDED1hrNoObsBFEnc" ]
      } ],
      "gender": "female",
      "birthDate": "1986-09-18"
    },
    "request": {
      "method": "PUT",
      "url": "Patient/12f5363d-fa3f-4a61-aad9-defc8583ca12"
    }
  }, {
    "fullUrl": "https://madie.cms.gov/Condition/a7a0f671-6d8b-459c-8b63-f7daefd2a13c",
    "resource": {
      "resourceType": "Condition",
      "id": "a7a0f671-6d8b-459c-8b63-f7daefd2a13c",
      "meta": {
        "profile": [ "http://hl7.org/fhir/us/qicore/StructureDefinition/qicore-condition-problems-health-concerns" ]
      },
      "clinicalStatus": {
        "coding": [ {
          "system": "http://terminology.hl7.org/CodeSystem/condition-clinical",
          "code": "inactive"
        } ]
      },
      "verificationStatus": {
        "coding": [ {
          "system": "http://terminology.hl7.org/CodeSystem/condition-ver-status",
          "code": "confirmed"
        } ]
      },
      "category": [ {
        "coding": [ {
          "system": "http://terminology.hl7.org/CodeSystem/condition-category",
          "code": "encounter-diagnosis",
          "display": "Encounter Diagnosis"
        } ]
      } ],
      "code": {
        "coding": [ {
          "system": "http://hl7.org/fhir/sid/icd-10-cm",
          "code": "I48.20"
        }, {
          "system": "http://hl7.org/fhir/sid/icd-10-cm",
          "code": "I48.0"
        }, {
          "system": "http://snomed.info/sct",
          "code": "5370000"
        } ]
      },
      "subject": {
        "reference": "Patient/12f5363d-fa3f-4a61-aad9-defc8583ca12"
      },
      "onsetDateTime": "2026-10-01T09:01:00.000+00:00",
      "abatementDateTime": "2026-10-12T00:15:00.000+00:00"
    },
    "request": {
      "method": "PUT",
      "url": "Condition/a7a0f671-6d8b-459c-8b63-f7daefd2a13c"
    }
  }, {
    "fullUrl": "https://madie.cms.gov/Encounter/6da1dd74-5dd2-4b13-aa34-3a16a0a648ea",
    "resource": {
      "resourceType": "Encounter",
      "id": "6da1dd74-5dd2-4b13-aa34-3a16a0a648ea",
      "meta": {
        "profile": [ "http://hl7.org/fhir/us/qicore/StructureDefinition/qicore-encounter" ]
      },
      "status": "finished",
      "class": {
        "system": "http://terminology.hl7.org/CodeSystem/v3-ActCode",
        "code": "EMER",
        "display": "emergency"
      },
      "type": [ {
        "coding": [ {
          "system": "http://snomed.info/sct",
          "code": "4525004"
        } ]
      } ],
      "subject": {
        "reference": "Patient/12f5363d-fa3f-4a61-aad9-defc8583ca12"
      },
      "period": {
        "start": "2026-10-01T09:01:00.000+00:00",
        "end": "2026-10-01T12:15:00.000+00:00"
      },
      "length": {
        "value": 0,
        "unit": "days"
      }
    },
    "request": {
      "method": "PUT",
      "url": "Encounter/6da1dd74-5dd2-4b13-aa34-3a16a0a648ea"
    }
  }, {
    "fullUrl": "https://madie.cms.gov/Encounter/1d571dde-b2b6-4a0b-bfe9-a20a82bf9be9",
    "resource": {
      "resourceType": "Encounter",
      "id": "1d571dde-b2b6-4a0b-bfe9-a20a82bf9be9",
      "meta": {
        "profile": [ "http://hl7.org/fhir/us/qicore/StructureDefinition/qicore-encounter" ]
      },
      "status": "finished",
      "class": {
        "system": "http://terminology.hl7.org/CodeSystem/v3-ActCode",
        "code": "IMP",
        "display": "inpatient encounter"
      },
      "type": [ {
        "coding": [ {
          "system": "http://snomed.info/sct",
          "code": "32485007"
        } ]
      } ],
      "subject": {
        "reference": "Patient/12f5363d-fa3f-4a61-aad9-defc8583ca12"
      },
      "period": {
        "start": "2026-10-01T13:15:00.000+00:00",
        "end": "2026-10-12T00:15:00.000+00:00"
      },
      "length": {
        "value": 11,
        "unit": "days"
      },
      "reasonReference": [ {
        "reference": "Condition/a7a0f671-6d8b-459c-8b63-f7daefd2a13c"
      } ]
    },
    "request": {
      "method": "PUT",
      "url": "Encounter/1d571dde-b2b6-4a0b-bfe9-a20a82bf9be9"
    }
  }, {
    "fullUrl": "https://madie.cms.gov/claim/5ca62962b8484628b8de1ec5",
    "resource": {
      "resourceType": "Claim",
      "id": "5ca62962b8484628b8de1ec5",
      "meta": {
        "profile": [ "http://hl7.org/fhir/us/qicore/StructureDefinition/qicore-claim" ]
      },
      "status": "active",
      "type": {
        "coding": [ {
          "system": "http://terminology.hl7.org/CodeSystem/claim-type",
          "code": "institutional"
        } ]
      },
      "use": "claim",
      "patient": {
        "reference": "Patient/d170a0a8-b5ad-4303-b6df-e304dd5f92ad"
      },
      "created": "2026-12-01",
      "provider": {
        "reference": "Practitioner/f8f7f527-36cb-4c72-8356-8d2cb73b2297"
      },
      "priority": {
        "coding": [ {
          "system": "http://terminology.hl7.org/CodeSystem/processpriority",
          "code": "normal"
        } ]
      },
      "diagnosis": [ {
        "sequence": 1,
        "diagnosisCodeableConcept": {
          "coding": [ {
            "system": "http://hl7.org/fhir/sid/icd-10-cm",
            "code": "I63.00"
          } ]
        },
        "type": [ {
          "coding": [ {
            "system": "http://terminology.hl7.org/CodeSystem/ex-diagnosistype",
            "code": "principal"
          } ]
        } ]
      } ],
      "insurance": [ {
        "sequence": 1,
        "focal": true,
        "coverage": {
          "reference": "Coverage/5fa041661c76ba66d9959367"
        }
      } ],
      "item": [ {
        "sequence": 1,
        "diagnosisSequence": [ 1 ],
        "productOrService": {
          "coding": [ {
            "system": "http://terminology.hl7.org/CodeSystem/ex-USCLS",
            "code": "99555"
          } ]
        },
        "encounter": [ {
          "reference": "Encounter/1d571dde-b2b6-4a0b-bfe9-a20a82bf9be9"
        } ]
      } ]
    },
    "request": {
      "method": "PUT",
      "url": "Claim/5ca62962b8484628b8de1ec5"
    }
  }, {
    "fullUrl": "https://madie.cms.gov/ServiceRequest/bad88431-8bb8-40e6-aa99-726eca50724e",
    "resource": {
      "resourceType": "ServiceRequest",
      "id": "bad88431-8bb8-40e6-aa99-726eca50724e",
      "meta": {
        "profile": [ "http://hl7.org/fhir/us/qicore/StructureDefinition/qicore-servicerequest" ]
      },
      "status": "active",
      "intent": "order",
      "code": {
        "coding": [ {
          "system": "http://snomed.info/sct",
          "code": "133918004"
        } ]
      },
      "subject": {
        "reference": "Patient/12f5363d-fa3f-4a61-aad9-defc8583ca12"
      },
      "authoredOn": "2026-10-01T09:15:00.000+00:00"
    },
    "request": {
      "method": "PUT",
      "url": "ServiceRequest/bad88431-8bb8-40e6-aa99-726eca50724e"
    }
  }, {
    "fullUrl": "https://madie.cms.gov/Coverage/0f869beb-19a3-4f8d-a6e7-f63a1fd5de1a",
    "resource": {
      "resourceType": "Coverage",
      "id": "0f869beb-19a3-4f8d-a6e7-f63a1fd5de1a",
      "status": "active",
      "subscriberId": "523435",
      "beneficiary": {
        "reference": "Patient/12f5363d-fa3f-4a61-aad9-defc8583ca12"
      },
      "relationship": {
        "coding": [ {
          "system": "http://terminology.hl7.org/CodeSystem/subscriber-relationship",
          "code": "self"
        } ]
      },
      "period": {
        "start": "1986-09-18T08:00:00.000+00:00"
      },
      "payor": [ {
        "reference": "Organization/b25ed08c-a3b4-4a39-a95c-4519fd7b72ff"
      } ]
    },
    "request": {
      "method": "PUT",
      "url": "Coverage/0f869beb-19a3-4f8d-a6e7-f63a1fd5de1a"
    }
  }, {
    "fullUrl": "https://madie.cms.gov/Condition/208c3a3d-8602-46d2-b9c3-27105c4e78b9",
    "resource": {
      "resourceType": "Condition",
      "id": "208c3a3d-8602-46d2-b9c3-27105c4e78b9",
      "meta": {
        "profile": [ "http://hl7.org/fhir/us/qicore/StructureDefinition/qicore-condition-problems-health-concerns" ]
      },
      "clinicalStatus": {
        "coding": [ {
          "system": "http://terminology.hl7.org/CodeSystem/condition-clinical",
          "code": "active"
        } ]
      },
      "verificationStatus": {
        "coding": [ {
          "system": "http://terminology.hl7.org/CodeSystem/condition-ver-status",
          "code": "confirmed"
        } ]
      },
      "category": [ {
        "coding": [ {
          "system": "http://terminology.hl7.org/CodeSystem/condition-category",
          "code": "encounter-diagnosis",
          "display": "Encounter Diagnosis"
        } ]
      } ],
      "code": {
        "coding": [ {
          "system": "http://snomed.info/sct",
          "version": "2021-09",
          "code": "111297002",
          "display": "Nonparalytic stroke (disorder)",
          "userSelected": true
        } ]
      },
      "subject": {
        "reference": "Patient/12f5363d-fa3f-4a61-aad9-defc8583ca12"
      },
      "recordedDate": "2026-10-13T08:00:00.000+00:00"
    },
    "request": {
      "method": "PUT",
      "url": "Condition/208c3a3d-8602-46d2-b9c3-27105c4e78b9"
    }
  }, {
    "fullUrl": "https://madie.cms.gov/Organization/b25ed08c-a3b4-4a39-a95c-4519fd7b72ff",
    "resource": {
      "resourceType": "Organization",
      "id": "b25ed08c-a3b4-4a39-a95c-4519fd7b72ff",
      "meta": {
        "profile": [ "http://hl7.org/fhir/us/qicore/StructureDefinition/qicore-organization" ]
      },
      "identifier": [ {
        "use": "temp",
        "system": "urn:oid:2.16.840.1.113883.4.4",
        "value": "21-3259825"
      } ],
      "active": true,
      "type": [ {
        "coding": [ {
          "system": "http://terminology.hl7.org/CodeSystem/organization-type",
          "code": "pay",
          "display": "Payer"
        } ]
      } ],
      "name": "Blue Cross Blue Shield of Texas",
      "telecom": [ {
        "system": "phone",
        "value": "(+1) 972-766-6900"
      } ],
      "address": [ {
        "use": "billing",
        "type": "postal",
        "line": [ "P.O. Box 660044" ],
        "city": "Dallas",
        "state": "TX",
        "postalCode": "75266-0044",
        "country": "USA"
      } ]
    },
    "request": {
      "method": "PUT",
      "url": "Organization/b25ed08c-a3b4-4a39-a95c-4519fd7b72ff"
    }
  }, {
    "fullUrl": "https://madie.cms.gov/Practitioner/f8f7f527-36cb-4c72-8356-8d2cb73b2297",
    "resource": {
      "resourceType": "Practitioner",
      "id": "f8f7f527-36cb-4c72-8356-8d2cb73b2297",
      "meta": {
        "profile": [ "http://hl7.org/fhir/us/qicore/StructureDefinition/qicore-practitioner" ]
      },
      "identifier": [ {
        "system": "http://hl7.org/fhir/sid/us-npi",
        "value": "9999999896"
      } ],
      "name": [ {
        "family": "Evil",
        "prefix": [ "Dr" ]
      } ]
    },
    "request": {
      "method": "PUT",
      "url": "Practitioner/f8f7f527-36cb-4c72-8356-8d2cb73b2297"
    }
  }, {
    "fullUrl": "https://madie.cms.gov/MeasureReport/2fb4e0e8-3fd5-4109-a272-cfcd626bae1a",
    "resource": {
      "resourceType": "MeasureReport",
      "id": "2fb4e0e8-3fd5-4109-a272-cfcd626bae1a",
      "meta": {
        "profile": [ "http://hl7.org/fhir/us/cqfmeasures/StructureDefinition/test-case-cqfm" ]
      },
      "contained": [ {
        "resourceType": "Parameters",
        "id": "4a650560-4dc3-4944-9d6e-e90f05550625-parameters",
        "parameter": [ {
          "name": "subject",
          "valueString": "12f5363d-fa3f-4a61-aad9-defc8583ca12"
        } ]
      } ],
      "extension": [ {
        "url": "http://hl7.org/fhir/StructureDefinition/cqf-inputParameters",
        "valueReference": {
          "reference": "#4a650560-4dc3-4944-9d6e-e90f05550625-parameters"
        }
      }, {
        "url": "http://hl7.org/fhir/us/cqfmeasures/StructureDefinition/cqfm-testCaseDescription",
        "valueMarkdown": "\"Patient receives CMO during ED. ED ends 60 min before Inpatient start. No Observation. Testing day HospitalizationWithObservation function\n\"\n"
      } ],
      "modifierExtension": [ {
        "url": "http://hl7.org/fhir/us/cqfmeasures/StructureDefinition/cqfm-isTestCase",
        "valueBoolean": true
      } ],
      "status": "complete",
      "type": "individual",
      "measure": "https://madie.cms.gov/Measure/CMS71FHIRSTKAnticoagAFFlutter",
      "period": {
        "start": "2026-01-01",
        "end": "2026-12-31"
      },
      "group": [ {
        "id": "Group_1",
        "population": [ {
          "id": "InitialPopulation_1",
          "code": {
            "coding": [ {
              "system": "http://terminology.hl7.org/CodeSystem/measure-population",
              "code": "initial-population",
              "display": "Initial Population"
            } ]
          },
          "count": 1
        }, {
          "id": "Denominator_1",
          "code": {
            "coding": [ {
              "system": "http://terminology.hl7.org/CodeSystem/measure-population",
              "code": "denominator",
              "display": "Denominator"
            } ]
          },
          "count": 1
        }, {
          "id": "DenominatorExclusion_1",
          "code": {
            "coding": [ {
              "system": "http://terminology.hl7.org/CodeSystem/measure-population",
              "code": "denominator-exclusion",
              "display": "Denominator Exclusion"
            } ]
          },
          "count": 1
        }, {
          "id": "Numerator_1",
          "code": {
            "coding": [ {
              "system": "http://terminology.hl7.org/CodeSystem/measure-population",
              "code": "numerator",
              "display": "Numerator"
            } ]
          },
          "count": 0
        }, {
          "id": "DenominatorException_1",
          "code": {
            "coding": [ {
              "system": "http://terminology.hl7.org/CodeSystem/measure-population",
              "code": "denominator-exception",
              "display": "Denominator Exception"
            } ]
          },
          "count": 0
        } ],
        "measureScore": {
          "value": 0.0
        }
      } ],
      "evaluatedResource": [ {
        "reference": "Patient/12f5363d-fa3f-4a61-aad9-defc8583ca12"
      }, {
        "reference": "Condition/a7a0f671-6d8b-459c-8b63-f7daefd2a13c"
      }, {
        "reference": "Encounter/6da1dd74-5dd2-4b13-aa34-3a16a0a648ea"
      }, {
        "reference": "Encounter/1d571dde-b2b6-4a0b-bfe9-a20a82bf9be9"
      }, {
        "reference": "Claim/5ca62962b8484628b8de1ec5"
      }, {
        "reference": "ServiceRequest/bad88431-8bb8-40e6-aa99-726eca50724e"
      }, {
        "reference": "Coverage/0f869beb-19a3-4f8d-a6e7-f63a1fd5de1a"
      }, {
        "reference": "Condition/208c3a3d-8602-46d2-b9c3-27105c4e78b9"
      }, {
        "reference": "Organization/b25ed08c-a3b4-4a39-a95c-4519fd7b72ff"
      }, {
        "reference": "Practitioner/f8f7f527-36cb-4c72-8356-8d2cb73b2297"
      } ]
    },
    "request": {
      "method": "PUT",
      "url": "MeasureReport/2fb4e0e8-3fd5-4109-a272-cfcd626bae1a"
    }
  } ]
}