{
  "resourceType": "Bundle",
  "id": "63487c2d0968f8012254015f",
  "type": "transaction",
  "entry": [ {
    "fullUrl": "https://madie.cms.gov/Patient/2d4e497c-bbdd-4ed7-bcb3-6dbe62aca6a4",
    "resource": {
      "resourceType": "Patient",
      "id": "2d4e497c-bbdd-4ed7-bcb3-6dbe62aca6a4",
      "meta": {
        "profile": [ "http://hl7.org/fhir/us/qicore/StructureDefinition/qicore-patient" ]
      },
      "text": {
        "status": "generated",
        "div": "<div xmlns=\"http://www.w3.org/1999/xhtml\"><div class=\"hapiHeaderText\">AssessTerm0RelDateGT42wkB4TimeOfDeliv<b>DENOMFail</b></div><table class=\"hapiPropertyTable\"><tbody><tr><td>Identifier</td><td>89ad8d1292040330b5241fbe20c0a512329eaab9d686cfe4181f04edb3d44583</td></tr><tr><td>Date of birth</td><td><span>14 February 1985</span></td></tr></tbody></table></div>"
      },
      "extension": [ {
        "url": "http://hl7.org/fhir/us/core/StructureDefinition/us-core-race",
        "extension": [ {
          "url": "ombCategory",
          "valueCoding": {
            "system": "urn:oid:2.16.840.1.113883.6.238",
            "code": "1002-5",
            "display": "American Indian or Alaska Native",
            "userSelected": true
          }
        }, {
          "url": "text",
          "valueString": "American Indian or Alaska Native"
        } ]
      }, {
        "url": "http://hl7.org/fhir/us/core/StructureDefinition/us-core-ethnicity",
        "extension": [ {
          "url": "ombCategory",
          "valueCoding": {
            "system": "urn:oid:2.16.840.1.113883.6.238",
            "code": "2135-2",
            "display": "Hispanic or Latino",
            "userSelected": true
          }
        }, {
          "url": "text",
          "valueString": "Hispanic or Latino"
        } ]
      } ],
      "identifier": [ {
        "type": {
          "coding": [ {
            "system": "http://terminology.hl7.org/CodeSystem/v2-0203",
            "code": "MR"
          } ]
        },
        "system": "https://bonnie-fhir.healthit.gov/",
        "value": "63487c2d0968f8012254015f"
      } ],
      "active": true,
      "name": [ {
        "use": "usual",
        "family": "DENOMFail",
        "given": [ "AssessTerm0RelDateGT42wkB4TimeOfDeliv" ]
      } ],
      "gender": "female",
      "birthDate": "1998-02-14"
    },
    "request": {
      "method": "PUT",
      "url": "Patient/2d4e497c-bbdd-4ed7-bcb3-6dbe62aca6a4"
    }
  }, {
    "fullUrl": "https://madie.cms.gov/Observation/1938bc23-59a6-4e26-816c-1ec79a465340",
    "resource": {
      "resourceType": "Observation",
      "id": "1938bc23-59a6-4e26-816c-1ec79a465340",
      "meta": {
        "profile": [ "http://hl7.org/fhir/us/qicore/StructureDefinition/qicore-simple-observation" ]
      },
      "status": "final",
      "category": [ {
        "coding": [ {
          "system": "http://terminology.hl7.org/CodeSystem/observation-category",
          "code": "exam",
          "display": "exam",
          "userSelected": true
        } ]
      } ],
      "code": {
        "coding": [ {
          "system": "http://loinc.org",
          "code": "11639-2"
        } ]
      },
      "subject": {
        "reference": "Patient/2d4e497c-bbdd-4ed7-bcb3-6dbe62aca6a4"
      },
      "effectiveDateTime": "2025-07-19T09:00:00.000+00:00",
      "valueInteger": 0
    },
    "request": {
      "method": "PUT",
      "url": "Observation/1938bc23-59a6-4e26-816c-1ec79a465340"
    }
  }, {
    "fullUrl": "https://madie.cms.gov/Observation/d9cff664-38a9-44ba-a933-906a26fc1223",
    "resource": {
      "resourceType": "Observation",
      "id": "d9cff664-38a9-44ba-a933-906a26fc1223",
      "meta": {
        "profile": [ "http://hl7.org/fhir/us/qicore/StructureDefinition/qicore-simple-observation" ]
      },
      "status": "final",
      "category": [ {
        "coding": [ {
          "system": "http://terminology.hl7.org/CodeSystem/observation-category",
          "code": "exam",
          "display": "exam",
          "userSelected": true
        } ]
      } ],
      "code": {
        "coding": [ {
          "system": "http://loinc.org",
          "code": "11637-6"
        } ]
      },
      "subject": {
        "reference": "Patient/2d4e497c-bbdd-4ed7-bcb3-6dbe62aca6a4"
      },
      "effectiveDateTime": "2025-09-19T09:00:00.000+00:00",
      "valueInteger": 0
    },
    "request": {
      "method": "PUT",
      "url": "Observation/d9cff664-38a9-44ba-a933-906a26fc1223"
    }
  }, {
    "fullUrl": "https://madie.cms.gov/Observation/27e82464-f5ea-45ac-a421-776495f96038",
    "resource": {
      "resourceType": "Observation",
      "id": "27e82464-f5ea-45ac-a421-776495f96038",
      "meta": {
        "profile": [ "http://hl7.org/fhir/us/qicore/StructureDefinition/qicore-simple-observation" ]
      },
      "status": "final",
      "category": [ {
        "coding": [ {
          "system": "http://terminology.hl7.org/CodeSystem/observation-category",
          "code": "exam",
          "display": "exam",
          "userSelected": true
        } ]
      } ],
      "code": {
        "coding": [ {
          "system": "http://loinc.org",
          "code": "11884-4"
        } ]
      },
      "subject": {
        "reference": "Patient/2d4e497c-bbdd-4ed7-bcb3-6dbe62aca6a4"
      },
      "effectiveDateTime": "2026-06-08T20:00:00.000+00:00",
      "valueQuantity": {
        "value": 37,
        "system": "http://unitsofmeasure.org",
        "code": "wk"
      }
    },
    "request": {
      "method": "PUT",
      "url": "Observation/27e82464-f5ea-45ac-a421-776495f96038"
    }
  }, {
    "fullUrl": "https://madie.cms.gov/Observation/9521ff2b-19d5-4b52-af30-29ab11e9f7f1",
    "resource": {
      "resourceType": "Observation",
      "id": "9521ff2b-19d5-4b52-af30-29ab11e9f7f1",
      "meta": {
        "profile": [ "http://hl7.org/fhir/us/qicore/StructureDefinition/qicore-simple-observation" ]
      },
      "status": "final",
      "category": [ {
        "coding": [ {
          "system": "http://terminology.hl7.org/CodeSystem/observation-category",
          "code": "exam",
          "display": "exam",
          "userSelected": true
        } ]
      } ],
      "code": {
        "coding": [ {
          "system": "http://loinc.org",
          "code": "93857-1"
        } ]
      },
      "subject": {
        "reference": "Patient/2d4e497c-bbdd-4ed7-bcb3-6dbe62aca6a4"
      },
      "effectiveDateTime": "2026-06-08T20:00:00.000+00:00",
      "valueDateTime": "2026-06-08T20:00:00.000+00:00"
    },
    "request": {
      "method": "PUT",
      "url": "Observation/9521ff2b-19d5-4b52-af30-29ab11e9f7f1"
    }
  }, {
    "fullUrl": "https://madie.cms.gov/Encounter/2d2e74c1-3bd9-4d37-b682-9e7563f81b40",
    "resource": {
      "resourceType": "Encounter",
      "id": "2d2e74c1-3bd9-4d37-b682-9e7563f81b40",
      "meta": {
        "profile": [ "http://hl7.org/fhir/us/qicore/StructureDefinition/qicore-encounter" ]
      },
      "status": "finished",
      "class": {
        "system": "http://terminology.hl7.org/CodeSystem/v3-ActCode",
        "code": "IMP",
        "display": "inpatient encounter"
      },
      "type": [ {
        "coding": [ {
          "system": "http://snomed.info/sct",
          "code": "8715000"
        } ]
      } ],
      "subject": {
        "reference": "Patient/2d4e497c-bbdd-4ed7-bcb3-6dbe62aca6a4"
      },
      "period": {
        "start": "2026-06-08T08:00:00.000+00:00",
        "end": "2026-06-10T08:15:00.000+00:00"
      },
      "length": {
        "value": 2,
        "unit": "days"
      },
      "reasonReference": [ {
        "reference": "Condition/c040e106-ebe3-4311-8b20-2953df1e47b3"
      } ]
    },
    "request": {
      "method": "PUT",
      "url": "Encounter/2d2e74c1-3bd9-4d37-b682-9e7563f81b40"
    }
  }, {
    "fullUrl": "https://madie.cms.gov/Procedure/c4fe9780-5d6a-4ac3-955d-df1722f4e4ba",
    "resource": {
      "resourceType": "Procedure",
      "id": "c4fe9780-5d6a-4ac3-955d-df1722f4e4ba",
      "meta": {
        "profile": [ "http://hl7.org/fhir/us/qicore/StructureDefinition/qicore-procedure" ]
      },
      "extension": [ {
        "url": "http://hl7.org/fhir/us/qicore/StructureDefinition/qicore-recorded",
        "valueDateTime": "2014-04-05T13:35:00.000+00:00"
      } ],
      "status": "completed",
      "code": {
        "coding": [ {
          "system": "http://www.cms.gov/Medicare/Coding/ICD10",
          "code": "10D00Z0"
        }, {
          "system": "http://snomed.info/sct",
          "code": "4504004"
        } ]
      },
      "subject": {
        "reference": "Patient/2d4e497c-bbdd-4ed7-bcb3-6dbe62aca6a4"
      },
      "performedPeriod": {
        "start": "2026-06-08T20:00:00.000+00:00",
        "end": "2026-06-08T20:15:00.000+00:00"
      }
    },
    "request": {
      "method": "PUT",
      "url": "Procedure/c4fe9780-5d6a-4ac3-955d-df1722f4e4ba"
    }
  }, {
    "fullUrl": "https://madie.cms.gov/Condition/c040e106-ebe3-4311-8b20-2953df1e47b3",
    "resource": {
      "resourceType": "Condition",
      "id": "c040e106-ebe3-4311-8b20-2953df1e47b3",
      "meta": {
        "profile": [ "http://hl7.org/fhir/us/qicore/StructureDefinition/qicore-condition-encounter-diagnosis" ]
      },
      "category": [ {
        "coding": [ {
          "system": "http://terminology.hl7.org/CodeSystem/condition-category",
          "code": "encounter-diagnosis",
          "display": "Encounter Diagnosis"
        } ]
      } ],
      "code": {
        "coding": [ {
          "system": "http://snomed.info/sct",
          "version": "2022-09",
          "code": "169826009",
          "display": "Single live birth from singleton pregnancy (finding)",
          "userSelected": true
        } ]
      },
      "subject": {
        "reference": "Patient/2d4e497c-bbdd-4ed7-bcb3-6dbe62aca6a4"
      },
      "encounter": {
        "reference": "Encounter/2d2e74c1-3bd9-4d37-b682-9e7563f81b40"
      },
      "recordedDate": "2026-10-21T08:00:00.000+00:00"
    },
    "request": {
      "method": "PUT",
      "url": "Condition/c040e106-ebe3-4311-8b20-2953df1e47b3"
    }
  }, {
    "fullUrl": "https://madie.cms.gov/Coverage/dcc87433-6ed8-4ec1-b77e-d8522fa519e9",
    "resource": {
      "resourceType": "Coverage",
      "id": "dcc87433-6ed8-4ec1-b77e-d8522fa519e9",
      "meta": {
        "profile": [ "http://hl7.org/fhir/us/qicore/StructureDefinition/qicore-coverage" ]
      },
      "status": "active",
      "subscriberId": "523435",
      "beneficiary": {
        "reference": "Patient/2d4e497c-bbdd-4ed7-bcb3-6dbe62aca6a4"
      },
      "relationship": {
        "coding": [ {
          "system": "http://terminology.hl7.org/CodeSystem/subscriber-relationship",
          "code": "self"
        } ]
      },
      "payor": [ {
        "reference": "Organization/2f992d21-2f10-4ff3-8854-b0f7a82d8803"
      } ]
    },
    "request": {
      "method": "PUT",
      "url": "Coverage/dcc87433-6ed8-4ec1-b77e-d8522fa519e9"
    }
  }, {
    "fullUrl": "https://madie.cms.gov/Organization/2f992d21-2f10-4ff3-8854-b0f7a82d8803",
    "resource": {
      "resourceType": "Organization",
      "id": "2f992d21-2f10-4ff3-8854-b0f7a82d8803",
      "meta": {
        "profile": [ "http://hl7.org/fhir/us/qicore/StructureDefinition/qicore-organization" ]
      },
      "identifier": [ {
        "use": "temp",
        "system": "urn:oid:2.16.840.1.113883.4.4",
        "value": "21-3259825"
      } ],
      "active": true,
      "type": [ {
        "coding": [ {
          "system": "http://terminology.hl7.org/CodeSystem/organization-type",
          "code": "pay",
          "display": "Payer"
        } ]
      } ],
      "name": "Blue Cross Blue Shield of Texas",
      "telecom": [ {
        "system": "phone",
        "value": "(+1) 972-766-6900"
      } ],
      "address": [ {
        "use": "billing",
        "type": "postal",
        "line": [ "P.O. Box 660044" ],
        "city": "Dallas",
        "state": "TX",
        "postalCode": "75266-0044",
        "country": "USA"
      } ]
    },
    "request": {
      "method": "PUT",
      "url": "Organization/2f992d21-2f10-4ff3-8854-b0f7a82d8803"
    }
  }, {
    "fullUrl": "https://madie.cms.gov/Practitioner/eca52467-5a0f-43e0-b0f8-0c7e6fab0ab8",
    "resource": {
      "resourceType": "Practitioner",
      "id": "eca52467-5a0f-43e0-b0f8-0c7e6fab0ab8",
      "meta": {
        "profile": [ "http://hl7.org/fhir/us/qicore/StructureDefinition/qicore-practitioner" ]
      },
      "identifier": [ {
        "system": "http://hl7.org/fhir/sid/us-npi",
        "value": "1234567890"
      } ],
      "name": [ {
        "family": "Evil",
        "prefix": [ "Dr" ]
      } ]
    },
    "request": {
      "method": "PUT",
      "url": "Practitioner/eca52467-5a0f-43e0-b0f8-0c7e6fab0ab8"
    }
  }, {
    "fullUrl": "https://madie.cms.gov/MeasureReport/cdf717cd-7963-4c22-9edb-ff81468b59d9",
    "resource": {
      "resourceType": "MeasureReport",
      "id": "cdf717cd-7963-4c22-9edb-ff81468b59d9",
      "meta": {
        "profile": [ "http://hl7.org/fhir/us/cqfmeasures/StructureDefinition/test-case-cqfm" ]
      },
      "contained": [ {
        "resourceType": "Parameters",
        "id": "f5edfb60-3c50-4b57-a769-5efa2588e22c-parameters",
        "parameter": [ {
          "name": "subject",
          "valueString": "2d4e497c-bbdd-4ed7-bcb3-6dbe62aca6a4"
        } ]
      } ],
      "extension": [ {
        "url": "http://hl7.org/fhir/StructureDefinition/cqf-inputParameters",
        "valueReference": {
          "reference": "#f5edfb60-3c50-4b57-a769-5efa2588e22c-parameters"
        }
      }, {
        "url": "http://hl7.org/fhir/us/cqfmeasures/StructureDefinition/cqfm-testCaseDescription",
        "valueMarkdown": "\"Preterm Births=0, effective date/time < 42weeks prior to Asse delivery\nTerm Newborn=0, effective date/time > 42weeks prior to Asse delivery, DENOM Fail\"\n"
      } ],
      "modifierExtension": [ {
        "url": "http://hl7.org/fhir/us/cqfmeasures/StructureDefinition/cqfm-isTestCase",
        "valueBoolean": true
      } ],
      "status": "complete",
      "type": "individual",
      "measure": "https://madie.cms.gov/Measure/CMS0334FHIRPCCesareanBirth",
      "period": {
        "start": "2026-01-01",
        "end": "2026-12-31"
      },
      "group": [ {
        "id": "Group_1",
        "population": [ {
          "id": "InitialPopulation_1",
          "code": {
            "coding": [ {
              "system": "http://terminology.hl7.org/CodeSystem/measure-population",
              "code": "initial-population",
              "display": "Initial Population"
            } ]
          },
          "count": 1
        }, {
          "id": "Denominator_1",
          "code": {
            "coding": [ {
              "system": "http://terminology.hl7.org/CodeSystem/measure-population",
              "code": "denominator",
              "display": "Denominator"
            } ]
          },
          "count": 0
        }, {
          "id": "DenominatorExclusion_1",
          "code": {
            "coding": [ {
              "system": "http://terminology.hl7.org/CodeSystem/measure-population",
              "code": "denominator-exclusion",
              "display": "Denominator Exclusion"
            } ]
          },
          "count": 0
        }, {
          "id": "Numerator_1",
          "code": {
            "coding": [ {
              "system": "http://terminology.hl7.org/CodeSystem/measure-population",
              "code": "numerator",
              "display": "Numerator"
            } ]
          },
          "count": 0
        } ],
        "measureScore": {
          "value": 0.0
        }
      } ],
      "evaluatedResource": [ {
        "reference": "Patient/2d4e497c-bbdd-4ed7-bcb3-6dbe62aca6a4"
      }, {
        "reference": "Observation/1938bc23-59a6-4e26-816c-1ec79a465340"
      }, {
        "reference": "Observation/d9cff664-38a9-44ba-a933-906a26fc1223"
      }, {
        "reference": "Observation/27e82464-f5ea-45ac-a421-776495f96038"
      }, {
        "reference": "Observation/9521ff2b-19d5-4b52-af30-29ab11e9f7f1"
      }, {
        "reference": "Encounter/2d2e74c1-3bd9-4d37-b682-9e7563f81b40"
      }, {
        "reference": "Procedure/c4fe9780-5d6a-4ac3-955d-df1722f4e4ba"
      }, {
        "reference": "Condition/c040e106-ebe3-4311-8b20-2953df1e47b3"
      }, {
        "reference": "Coverage/dcc87433-6ed8-4ec1-b77e-d8522fa519e9"
      }, {
        "reference": "Organization/2f992d21-2f10-4ff3-8854-b0f7a82d8803"
      }, {
        "reference": "Practitioner/eca52467-5a0f-43e0-b0f8-0c7e6fab0ab8"
      } ]
    },
    "request": {
      "method": "PUT",
      "url": "MeasureReport/cdf717cd-7963-4c22-9edb-ff81468b59d9"
    }
  } ]
}