{
  "resourceType": "Bundle",
  "id": "NUMERPass-AllAnaphylaxisOrConditions",
  "type": "transaction",
  "entry": [ {
    "fullUrl": "https://madie.cms.gov/Patient/a5ca4525-88bc-4b67-b880-ca1cf54daa88",
    "resource": {
      "resourceType": "Patient",
      "id": "a5ca4525-88bc-4b67-b880-ca1cf54daa88",
      "meta": {
        "profile": [ "http://hl7.org/fhir/us/qicore/StructureDefinition/qicore-patient" ]
      },
      "extension": [ {
        "url": "http://hl7.org/fhir/us/core/StructureDefinition/us-core-race",
        "extension": [ {
          "url": "ombCategory",
          "valueCoding": {
            "system": "urn:oid:2.16.840.1.113883.6.238",
            "code": "2028-9",
            "display": "Asian",
            "userSelected": true
          }
        }, {
          "url": "text",
          "valueString": "Asian"
        } ]
      }, {
        "url": "http://hl7.org/fhir/us/core/StructureDefinition/us-core-ethnicity",
        "extension": [ {
          "url": "ombCategory",
          "valueCoding": {
            "system": "urn:oid:2.16.840.1.113883.6.238",
            "code": "2135-2",
            "display": "Hispanic or Latino",
            "userSelected": true
          }
        }, {
          "url": "text",
          "valueString": "Hispanic or Latino"
        } ]
      } ],
      "identifier": [ {
        "type": {
          "coding": [ {
            "system": "http://terminology.hl7.org/CodeSystem/v2-0203",
            "code": "MR"
          } ]
        },
        "system": "http://hospital.smarthealthit.org",
        "value": "999999995"
      } ],
      "name": [ {
        "family": "Bertha",
        "given": [ "Betty" ]
      } ],
      "gender": "female",
      "birthDate": "2024-01-01"
    },
    "request": {
      "method": "PUT",
      "url": "Patient/a5ca4525-88bc-4b67-b880-ca1cf54daa88"
    }
  }, {
    "fullUrl": "https://madie.cms.gov/Encounter/befaeee8-0689-424a-8c5c-2712661e48c9",
    "resource": {
      "resourceType": "Encounter",
      "id": "befaeee8-0689-424a-8c5c-2712661e48c9",
      "meta": {
        "profile": [ "http://hl7.org/fhir/us/qicore/StructureDefinition/qicore-encounter" ]
      },
      "status": "finished",
      "class": {
        "system": "http://terminology.hl7.org/CodeSystem/v3-ActCode",
        "code": "AMB",
        "display": "ambulatory"
      },
      "type": [ {
        "coding": [ {
          "system": "http://snomed.info/sct",
          "code": "185317003",
          "display": "Telephone encounter (procedure)"
        } ]
      } ],
      "subject": {
        "reference": "Patient/a5ca4525-88bc-4b67-b880-ca1cf54daa88"
      },
      "period": {
        "start": "2026-01-01T01:00:00.000+00:00",
        "end": "2026-01-01T01:15:00.000+00:00"
      }
    },
    "request": {
      "method": "PUT",
      "url": "Encounter/befaeee8-0689-424a-8c5c-2712661e48c9"
    }
  }, {
    "fullUrl": "https://madie.cms.gov/Condition/69e54a81-ec63-4102-99b3-f17ff1a1fbc3",
    "resource": {
      "resourceType": "Condition",
      "id": "69e54a81-ec63-4102-99b3-f17ff1a1fbc3",
      "meta": {
        "profile": [ "http://hl7.org/fhir/us/qicore/StructureDefinition/qicore-condition-problems-health-concerns" ]
      },
      "clinicalStatus": {
        "coding": [ {
          "system": "http://terminology.hl7.org/CodeSystem/condition-clinical",
          "code": "active"
        } ]
      },
      "category": [ {
        "coding": [ {
          "system": "http://terminology.hl7.org/CodeSystem/condition-category",
          "code": "problem-list-item",
          "display": "Problem List Item"
        } ]
      } ],
      "code": {
        "coding": [ {
          "system": "http://snomed.info/sct",
          "code": "192711008",
          "display": "Post diphtheria vaccination encephalitis (disorder)"
        } ]
      },
      "subject": {
        "reference": "Patient/a5ca4525-88bc-4b67-b880-ca1cf54daa88"
      },
      "onsetDateTime": "2025-01-02T00:00:00.000+00:00"
    },
    "request": {
      "method": "PUT",
      "url": "Condition/69e54a81-ec63-4102-99b3-f17ff1a1fbc3"
    }
  }, {
    "fullUrl": "https://madie.cms.gov/Condition/3b770220-1d95-4c65-9c89-68175429b4e9",
    "resource": {
      "resourceType": "Condition",
      "id": "3b770220-1d95-4c65-9c89-68175429b4e9",
      "meta": {
        "profile": [ "http://hl7.org/fhir/us/qicore/StructureDefinition/qicore-condition-problems-health-concerns" ]
      },
      "clinicalStatus": {
        "coding": [ {
          "system": "http://terminology.hl7.org/CodeSystem/condition-clinical",
          "code": "active"
        } ]
      },
      "category": [ {
        "coding": [ {
          "system": "http://terminology.hl7.org/CodeSystem/condition-category",
          "code": "problem-list-item",
          "display": "Problem List Item"
        } ]
      } ],
      "code": {
        "coding": [ {
          "system": "http://snomed.info/sct",
          "code": "471321000124106",
          "display": "Anaphylaxis caused by vaccine product containing human poliovirus antigen (disorder)"
        } ]
      },
      "subject": {
        "reference": "Patient/a5ca4525-88bc-4b67-b880-ca1cf54daa88"
      },
      "onsetDateTime": "2025-01-02T00:00:00.000+00:00"
    },
    "request": {
      "method": "PUT",
      "url": "Condition/3b770220-1d95-4c65-9c89-68175429b4e9"
    }
  }, {
    "fullUrl": "https://madie.cms.gov/Condition/b3f81a1b-6237-46cf-a655-7c9a1c86af96",
    "resource": {
      "resourceType": "Condition",
      "id": "b3f81a1b-6237-46cf-a655-7c9a1c86af96",
      "meta": {
        "profile": [ "http://hl7.org/fhir/us/qicore/StructureDefinition/qicore-condition-problems-health-concerns" ]
      },
      "clinicalStatus": {
        "coding": [ {
          "system": "http://terminology.hl7.org/CodeSystem/condition-clinical",
          "code": "active"
        } ]
      },
      "category": [ {
        "coding": [ {
          "system": "http://terminology.hl7.org/CodeSystem/condition-category",
          "code": "problem-list-item",
          "display": "Problem List Item"
        } ]
      } ],
      "code": {
        "coding": [ {
          "system": "http://snomed.info/sct",
          "code": "471331000124109",
          "display": "Anaphylaxis caused by vaccine product containing Measles morbillivirus and Mumps orthorubulavirus and Rubella virus antigens (disorder)"
        } ]
      },
      "subject": {
        "reference": "Patient/a5ca4525-88bc-4b67-b880-ca1cf54daa88"
      },
      "onsetDateTime": "2025-01-02T00:00:00.000+00:00"
    },
    "request": {
      "method": "PUT",
      "url": "Condition/b3f81a1b-6237-46cf-a655-7c9a1c86af96"
    }
  }, {
    "fullUrl": "https://madie.cms.gov/Condition/6e480bc0-a906-447a-920d-c753f32905fd",
    "resource": {
      "resourceType": "Condition",
      "id": "6e480bc0-a906-447a-920d-c753f32905fd",
      "meta": {
        "profile": [ "http://hl7.org/fhir/us/qicore/StructureDefinition/qicore-condition-problems-health-concerns" ]
      },
      "clinicalStatus": {
        "coding": [ {
          "system": "http://terminology.hl7.org/CodeSystem/condition-clinical",
          "code": "active"
        } ]
      },
      "category": [ {
        "coding": [ {
          "system": "http://terminology.hl7.org/CodeSystem/condition-category",
          "code": "problem-list-item",
          "display": "Problem List Item"
        } ]
      } ],
      "code": {
        "coding": [ {
          "system": "http://snomed.info/sct",
          "code": "433621000124101",
          "display": "Anaphylaxis caused by vaccine product containing only Haemophilus influenzae type b antigen (disorder)"
        } ]
      },
      "subject": {
        "reference": "Patient/a5ca4525-88bc-4b67-b880-ca1cf54daa88"
      },
      "onsetDateTime": "2025-01-02T00:00:00.000+00:00"
    },
    "request": {
      "method": "PUT",
      "url": "Condition/6e480bc0-a906-447a-920d-c753f32905fd"
    }
  }, {
    "fullUrl": "https://madie.cms.gov/Condition/72a024dd-ecaf-4834-9fc7-5c097cf5f331",
    "resource": {
      "resourceType": "Condition",
      "id": "72a024dd-ecaf-4834-9fc7-5c097cf5f331",
      "meta": {
        "profile": [ "http://hl7.org/fhir/us/qicore/StructureDefinition/qicore-condition-problems-health-concerns" ]
      },
      "clinicalStatus": {
        "coding": [ {
          "system": "http://terminology.hl7.org/CodeSystem/condition-clinical",
          "code": "active"
        } ]
      },
      "category": [ {
        "coding": [ {
          "system": "http://terminology.hl7.org/CodeSystem/condition-category",
          "code": "problem-list-item",
          "display": "Problem List Item"
        } ]
      } ],
      "code": {
        "coding": [ {
          "system": "http://snomed.info/sct",
          "code": "235864009",
          "display": "Acute hepatitis B with hepatitis D (disorder)"
        } ]
      },
      "subject": {
        "reference": "Patient/a5ca4525-88bc-4b67-b880-ca1cf54daa88"
      },
      "onsetDateTime": "2025-01-02T00:00:00.000+00:00"
    },
    "request": {
      "method": "PUT",
      "url": "Condition/72a024dd-ecaf-4834-9fc7-5c097cf5f331"
    }
  }, {
    "fullUrl": "https://madie.cms.gov/Condition/5f43748c-cb7e-4eeb-b508-b90aa2a65881",
    "resource": {
      "resourceType": "Condition",
      "id": "5f43748c-cb7e-4eeb-b508-b90aa2a65881",
      "meta": {
        "profile": [ "http://hl7.org/fhir/us/qicore/StructureDefinition/qicore-condition-problems-health-concerns" ]
      },
      "clinicalStatus": {
        "coding": [ {
          "system": "http://terminology.hl7.org/CodeSystem/condition-clinical",
          "code": "active"
        } ]
      },
      "category": [ {
        "coding": [ {
          "system": "http://terminology.hl7.org/CodeSystem/condition-category",
          "code": "problem-list-item",
          "display": "Problem List Item"
        } ]
      } ],
      "code": {
        "coding": [ {
          "system": "http://snomed.info/sct",
          "code": "426570007",
          "display": "Herpes zoster interstitial keratitis (disorder)"
        } ]
      },
      "subject": {
        "reference": "Patient/a5ca4525-88bc-4b67-b880-ca1cf54daa88"
      },
      "onsetDateTime": "2025-01-02T00:00:00.000+00:00"
    },
    "request": {
      "method": "PUT",
      "url": "Condition/5f43748c-cb7e-4eeb-b508-b90aa2a65881"
    }
  }, {
    "fullUrl": "https://madie.cms.gov/Condition/5f21fa66-77d7-45e3-90a8-766d50a55515",
    "resource": {
      "resourceType": "Condition",
      "id": "5f21fa66-77d7-45e3-90a8-766d50a55515",
      "meta": {
        "profile": [ "http://hl7.org/fhir/us/qicore/StructureDefinition/qicore-condition-problems-health-concerns" ]
      },
      "clinicalStatus": {
        "coding": [ {
          "system": "http://terminology.hl7.org/CodeSystem/condition-clinical",
          "code": "active"
        } ]
      },
      "category": [ {
        "coding": [ {
          "system": "http://terminology.hl7.org/CodeSystem/condition-category",
          "code": "problem-list-item",
          "display": "Problem List Item"
        } ]
      } ],
      "code": {
        "coding": [ {
          "system": "http://snomed.info/sct",
          "code": "471141000124102",
          "display": "Anaphylaxis caused by vaccine product containing Streptococcus pneumoniae antigen (disorder)"
        } ]
      },
      "subject": {
        "reference": "Patient/a5ca4525-88bc-4b67-b880-ca1cf54daa88"
      },
      "onsetDateTime": "2025-01-12T00:00:00.000+00:00"
    },
    "request": {
      "method": "PUT",
      "url": "Condition/5f21fa66-77d7-45e3-90a8-766d50a55515"
    }
  }, {
    "fullUrl": "https://madie.cms.gov/Condition/279851dd-b445-4984-977c-620b2a99d2b6",
    "resource": {
      "resourceType": "Condition",
      "id": "279851dd-b445-4984-977c-620b2a99d2b6",
      "meta": {
        "profile": [ "http://hl7.org/fhir/us/qicore/StructureDefinition/qicore-condition-problems-health-concerns" ]
      },
      "clinicalStatus": {
        "coding": [ {
          "system": "http://terminology.hl7.org/CodeSystem/condition-clinical",
          "code": "active"
        } ]
      },
      "category": [ {
        "coding": [ {
          "system": "http://terminology.hl7.org/CodeSystem/condition-category",
          "code": "problem-list-item",
          "display": "Problem List Item"
        } ]
      } ],
      "code": {
        "coding": [ {
          "system": "http://snomed.info/sct",
          "code": "40468003",
          "display": "Viral hepatitis, type A (disorder)"
        } ]
      },
      "subject": {
        "reference": "Patient/a5ca4525-88bc-4b67-b880-ca1cf54daa88"
      },
      "onsetDateTime": "2025-01-02T00:00:00.000+00:00"
    },
    "request": {
      "method": "PUT",
      "url": "Condition/279851dd-b445-4984-977c-620b2a99d2b6"
    }
  }, {
    "fullUrl": "https://madie.cms.gov/Condition/a4d9193a-0f5e-467d-9392-a7e87ca57fdc",
    "resource": {
      "resourceType": "Condition",
      "id": "a4d9193a-0f5e-467d-9392-a7e87ca57fdc",
      "meta": {
        "profile": [ "http://hl7.org/fhir/us/qicore/StructureDefinition/qicore-condition-problems-health-concerns" ]
      },
      "clinicalStatus": {
        "coding": [ {
          "system": "http://terminology.hl7.org/CodeSystem/condition-clinical",
          "code": "active"
        } ]
      },
      "category": [ {
        "coding": [ {
          "system": "http://terminology.hl7.org/CodeSystem/condition-category",
          "code": "problem-list-item",
          "display": "Problem List Item"
        } ]
      } ],
      "code": {
        "coding": [ {
          "system": "http://snomed.info/sct",
          "code": "428331000124103",
          "display": "Anaphylaxis caused by rotavirus vaccine (disorder)"
        } ]
      },
      "subject": {
        "reference": "Patient/a5ca4525-88bc-4b67-b880-ca1cf54daa88"
      },
      "onsetDateTime": "2025-01-02T00:00:00.000+00:00"
    },
    "request": {
      "method": "PUT",
      "url": "Condition/a4d9193a-0f5e-467d-9392-a7e87ca57fdc"
    }
  }, {
    "fullUrl": "https://madie.cms.gov/Condition/69e54a81-ec63-4102-99b3-f17ff1a1fbc30",
    "resource": {
      "resourceType": "Condition",
      "id": "69e54a81-ec63-4102-99b3-f17ff1a1fbc30",
      "meta": {
        "profile": [ "http://hl7.org/fhir/us/qicore/StructureDefinition/qicore-condition-problems-health-concerns" ]
      },
      "clinicalStatus": {
        "coding": [ {
          "system": "http://terminology.hl7.org/CodeSystem/condition-clinical",
          "code": "active"
        } ]
      },
      "category": [ {
        "coding": [ {
          "system": "http://terminology.hl7.org/CodeSystem/condition-category",
          "code": "problem-list-item",
          "display": "Problem List Item"
        } ]
      } ],
      "code": {
        "coding": [ {
          "system": "http://snomed.info/sct",
          "code": "471361000124100",
          "display": "Anaphylaxis caused by vaccine product containing Influenza virus antigen (disorder)"
        } ]
      },
      "subject": {
        "reference": "Patient/a5ca4525-88bc-4b67-b880-ca1cf54daa88"
      },
      "onsetDateTime": "2025-01-02T00:00:00.000+00:00"
    },
    "request": {
      "method": "PUT",
      "url": "Condition/69e54a81-ec63-4102-99b3-f17ff1a1fbc30"
    }
  }, {
    "fullUrl": "https://madie.cms.gov/MeasureReport/d0fc899b-790b-40c5-8e13-1a319874f795",
    "resource": {
      "resourceType": "MeasureReport",
      "id": "d0fc899b-790b-40c5-8e13-1a319874f795",
      "meta": {
        "profile": [ "http://hl7.org/fhir/us/cqfmeasures/StructureDefinition/test-case-cqfm" ]
      },
      "contained": [ {
        "resourceType": "Parameters",
        "id": "de19b786-1196-479d-bd7c-7978e8e6b156-parameters",
        "parameter": [ {
          "name": "subject",
          "valueString": "a5ca4525-88bc-4b67-b880-ca1cf54daa88"
        } ]
      } ],
      "extension": [ {
        "url": "http://hl7.org/fhir/StructureDefinition/cqf-inputParameters",
        "valueReference": {
          "reference": "#de19b786-1196-479d-bd7c-7978e8e6b156-parameters"
        }
      }, {
        "url": "http://hl7.org/fhir/us/cqfmeasures/StructureDefinition/cqfm-testCaseDescription",
        "valueMarkdown": "All anaphylaxis or conditions in lieu"
      } ],
      "modifierExtension": [ {
        "url": "http://hl7.org/fhir/us/cqfmeasures/StructureDefinition/cqfm-isTestCase",
        "valueBoolean": true
      } ],
      "status": "complete",
      "type": "individual",
      "measure": "https://madie.cms.gov/Measure/CMS117FHIRChildImmunStatus",
      "period": {
        "start": "2026-01-01",
        "end": "2026-12-31"
      },
      "group": [ {
        "id": "Group_1",
        "population": [ {
          "id": "InitialPopulation_1",
          "code": {
            "coding": [ {
              "system": "http://terminology.hl7.org/CodeSystem/measure-population",
              "code": "initial-population",
              "display": "Initial Population"
            } ]
          },
          "count": 1
        }, {
          "id": "Denominator_1",
          "code": {
            "coding": [ {
              "system": "http://terminology.hl7.org/CodeSystem/measure-population",
              "code": "denominator",
              "display": "Denominator"
            } ]
          },
          "count": 1
        }, {
          "id": "DenominatorExclusion_1",
          "code": {
            "coding": [ {
              "system": "http://terminology.hl7.org/CodeSystem/measure-population",
              "code": "denominator-exclusion",
              "display": "Denominator Exclusion"
            } ]
          },
          "count": 0
        }, {
          "id": "Numerator_1",
          "code": {
            "coding": [ {
              "system": "http://terminology.hl7.org/CodeSystem/measure-population",
              "code": "numerator",
              "display": "Numerator"
            } ]
          },
          "count": 1
        } ],
        "measureScore": {
          "value": 1.0
        }
      } ],
      "evaluatedResource": [ {
        "reference": "Patient/a5ca4525-88bc-4b67-b880-ca1cf54daa88"
      }, {
        "reference": "Encounter/befaeee8-0689-424a-8c5c-2712661e48c9"
      }, {
        "reference": "Condition/69e54a81-ec63-4102-99b3-f17ff1a1fbc3"
      }, {
        "reference": "Condition/3b770220-1d95-4c65-9c89-68175429b4e9"
      }, {
        "reference": "Condition/b3f81a1b-6237-46cf-a655-7c9a1c86af96"
      }, {
        "reference": "Condition/6e480bc0-a906-447a-920d-c753f32905fd"
      }, {
        "reference": "Condition/72a024dd-ecaf-4834-9fc7-5c097cf5f331"
      }, {
        "reference": "Condition/5f43748c-cb7e-4eeb-b508-b90aa2a65881"
      }, {
        "reference": "Condition/5f21fa66-77d7-45e3-90a8-766d50a55515"
      }, {
        "reference": "Condition/279851dd-b445-4984-977c-620b2a99d2b6"
      }, {
        "reference": "Condition/a4d9193a-0f5e-467d-9392-a7e87ca57fdc"
      }, {
        "reference": "Condition/69e54a81-ec63-4102-99b3-f17ff1a1fbc30"
      } ]
    },
    "request": {
      "method": "PUT",
      "url": "MeasureReport/d0fc899b-790b-40c5-8e13-1a319874f795"
    }
  } ]
}