{
  "resourceType": "Bundle",
  "id": "tests-RiskVarPassFirstSodium-bundle",
  "type": "transaction",
  "entry": [ {
    "fullUrl": "https://madie.cms.gov/Encounter/b1b579f8-1362-4424-95bf-6051475a4238",
    "resource": {
      "resourceType": "Encounter",
      "id": "b1b579f8-1362-4424-95bf-6051475a4238",
      "meta": {
        "profile": [ "http://hl7.org/fhir/us/qicore/StructureDefinition/qicore-encounter" ]
      },
      "status": "finished",
      "class": {
        "system": "http://terminology.hl7.org/CodeSystem/v3-ActCode",
        "code": "IMP",
        "display": "inpatient encounter"
      },
      "type": [ {
        "coding": [ {
          "system": "http://snomed.info/sct",
          "code": "112689000",
          "display": "Hospital admission, elective, with complete pre-admission work-up"
        } ],
        "text": "Hospital admission, elective, with complete pre-admission work-up"
      } ],
      "priority": {
        "coding": [ {
          "system": "http://snomed.info/sct",
          "code": "103390000"
        } ]
      },
      "subject": {
        "reference": "Patient/741f622c-ef09-42ad-a58c-faead9aa2121"
      },
      "period": {
        "start": "2026-04-10T08:00:00.000+00:00",
        "end": "2026-04-14T08:15:00.000+00:00"
      }
    },
    "request": {
      "method": "PUT",
      "url": "Encounter/b1b579f8-1362-4424-95bf-6051475a4238"
    }
  }, {
    "fullUrl": "https://madie.cms.gov/Patient/741f622c-ef09-42ad-a58c-faead9aa2121",
    "resource": {
      "resourceType": "Patient",
      "id": "741f622c-ef09-42ad-a58c-faead9aa2121",
      "meta": {
        "profile": [ "http://hl7.org/fhir/us/qicore/StructureDefinition/qicore-patient" ]
      },
      "extension": [ {
        "url": "http://hl7.org/fhir/us/core/StructureDefinition/us-core-race",
        "extension": [ {
          "url": "ombCategory",
          "valueCoding": {
            "system": "urn:oid:2.16.840.1.113883.6.238",
            "code": "2054-5",
            "display": "Black or African American",
            "userSelected": true
          }
        }, {
          "url": "text",
          "valueString": "Black or African American"
        } ]
      }, {
        "url": "http://hl7.org/fhir/us/core/StructureDefinition/us-core-ethnicity",
        "extension": [ {
          "url": "ombCategory",
          "valueCoding": {
            "system": "urn:oid:2.16.840.1.113883.6.238",
            "code": "2186-5",
            "display": "Not Hispanic or Latino",
            "userSelected": true
          }
        }, {
          "url": "text",
          "valueString": "Not Hispanic or Latino"
        } ]
      } ],
      "identifier": [ {
        "type": {
          "coding": [ {
            "system": "http://terminology.hl7.org/CodeSystem/v2-0203",
            "code": "MR"
          } ]
        },
        "system": "https://bonnie-fhir.healthit.gov/",
        "value": "61152a3b98086b7a79cbd7c1"
      } ],
      "active": true,
      "name": [ {
        "use": "usual",
        "family": "DENOMPass",
        "given": [ "RiskVariableASAClass" ]
      } ],
      "gender": "female",
      "birthDate": "1966-07-12"
    },
    "request": {
      "method": "PUT",
      "url": "Patient/741f622c-ef09-42ad-a58c-faead9aa2121"
    }
  }, {
    "fullUrl": "https://madie.cms.gov/Observation/15be97e4-fcfb-45b4-a239-580473307ce0",
    "resource": {
      "resourceType": "Observation",
      "id": "15be97e4-fcfb-45b4-a239-580473307ce0",
      "meta": {
        "profile": [ "http://hl7.org/fhir/us/qicore/StructureDefinition/qicore-observation-lab" ]
      },
      "status": "final",
      "category": [ {
        "coding": [ {
          "system": "http://terminology.hl7.org/CodeSystem/observation-category",
          "code": "laboratory",
          "display": "Laboratory"
        } ],
        "text": "Laboratory"
      } ],
      "code": {
        "coding": [ {
          "system": "http://loinc.org",
          "code": "32717-1",
          "display": "Sodium [Moles/volume] in Arterial blood"
        } ],
        "text": "Sodium [Moles/volume] in Arterial blood"
      },
      "subject": {
        "reference": "Patient/741f622c-ef09-42ad-a58c-faead9aa2121"
      },
      "encounter": {
        "reference": "Encounter/b1b579f8-1362-4424-95bf-6051475a4238"
      },
      "effectiveDateTime": "2026-04-11T08:00:00.000+00:00",
      "valueQuantity": {
        "value": 143,
        "unit": "meq/l",
        "system": "http://unitsofmeasure.org",
        "code": "meq/l"
      }
    },
    "request": {
      "method": "PUT",
      "url": "Observation/15be97e4-fcfb-45b4-a239-580473307ce0"
    }
  }, {
    "fullUrl": "https://madie.cms.gov/Observation/3c080d2d-1828-442a-b321-3f296596cb94",
    "resource": {
      "resourceType": "Observation",
      "id": "3c080d2d-1828-442a-b321-3f296596cb94",
      "meta": {
        "profile": [ "http://hl7.org/fhir/us/qicore/StructureDefinition/qicore-observation-lab" ]
      },
      "status": "final",
      "category": [ {
        "coding": [ {
          "system": "http://terminology.hl7.org/CodeSystem/observation-category",
          "code": "laboratory",
          "display": "Laboratory"
        } ],
        "text": "Laboratory"
      } ],
      "code": {
        "coding": [ {
          "system": "http://loinc.org",
          "code": "32717-1",
          "display": "Sodium [Moles/volume] in Arterial blood"
        } ],
        "text": "Sodium [Moles/volume] in Arterial blood"
      },
      "subject": {
        "reference": "Patient/741f622c-ef09-42ad-a58c-faead9aa2121"
      },
      "encounter": {
        "reference": "Encounter/b1b579f8-1362-4424-95bf-6051475a4238"
      },
      "effectiveDateTime": "2026-04-11T09:00:00.000+00:00",
      "valueQuantity": {
        "value": 139,
        "unit": "meq/l",
        "system": "http://unitsofmeasure.org",
        "code": "meq/l"
      }
    },
    "request": {
      "method": "PUT",
      "url": "Observation/3c080d2d-1828-442a-b321-3f296596cb94"
    }
  }, {
    "fullUrl": "https://madie.cms.gov/Procedure/b64d6bc5-e80d-4e7a-a83f-04ba7dfe003f",
    "resource": {
      "resourceType": "Procedure",
      "id": "b64d6bc5-e80d-4e7a-a83f-04ba7dfe003f",
      "meta": {
        "profile": [ "http://hl7.org/fhir/us/qicore/StructureDefinition/qicore-procedure" ]
      },
      "extension": [ {
        "url": "http://hl7.org/fhir/us/qicore/StructureDefinition/qicore-recorded",
        "valueDateTime": "2026-04-11T10:30:00.000+00:00"
      } ],
      "status": "completed",
      "category": {
        "coding": [ {
          "system": "http://snomed.info/sct",
          "code": "18286008",
          "display": "General or neuraxial anesthesia"
        } ]
      },
      "code": {
        "coding": [ {
          "system": "http://snomed.info/sct",
          "code": "112943005",
          "display": "Epidural injection of anesthetic substance, diagnostic, caudal, continuous"
        } ]
      },
      "subject": {
        "reference": "Patient/741f622c-ef09-42ad-a58c-faead9aa2121"
      },
      "performedPeriod": {
        "start": "2026-04-11T08:00:00.000+00:00",
        "end": "2026-04-11T10:15:00.000+00:00"
      }
    },
    "request": {
      "method": "PUT",
      "url": "Procedure/b64d6bc5-e80d-4e7a-a83f-04ba7dfe003f"
    }
  }, {
    "fullUrl": "https://madie.cms.gov/MeasureReport/2feb2009-3bd8-4a1a-9497-60b33bcd1dfd",
    "resource": {
      "resourceType": "MeasureReport",
      "id": "2feb2009-3bd8-4a1a-9497-60b33bcd1dfd",
      "meta": {
        "profile": [ "http://hl7.org/fhir/us/cqfmeasures/StructureDefinition/test-case-cqfm" ]
      },
      "contained": [ {
        "resourceType": "Parameters",
        "id": "4d3e51eb-195d-4219-af7a-d72afde1dcca-parameters",
        "parameter": [ {
          "name": "subject",
          "valueString": "741f622c-ef09-42ad-a58c-faead9aa2121"
        } ]
      } ],
      "extension": [ {
        "url": "http://hl7.org/fhir/StructureDefinition/cqf-inputParameters",
        "valueReference": {
          "reference": "#4d3e51eb-195d-4219-af7a-d72afde1dcca-parameters"
        }
      }, {
        "url": "http://hl7.org/fhir/us/cqfmeasures/StructureDefinition/cqfm-testCaseDescription",
        "valueMarkdown": "DENOMPass satisfies First Sodium risk variable"
      } ],
      "modifierExtension": [ {
        "url": "http://hl7.org/fhir/us/cqfmeasures/StructureDefinition/cqfm-isTestCase",
        "valueBoolean": true
      } ],
      "status": "complete",
      "type": "individual",
      "measure": "https://madie.cms.gov/Measure/CMS1218FHIRHHRF",
      "period": {
        "start": "2026-01-01",
        "end": "2026-12-31"
      },
      "group": [ {
        "id": "Group_1",
        "population": [ {
          "id": "InitialPopulation_1",
          "code": {
            "coding": [ {
              "system": "http://terminology.hl7.org/CodeSystem/measure-population",
              "code": "initial-population",
              "display": "Initial Population"
            } ]
          },
          "count": 1
        }, {
          "id": "Denominator_1",
          "code": {
            "coding": [ {
              "system": "http://terminology.hl7.org/CodeSystem/measure-population",
              "code": "denominator",
              "display": "Denominator"
            } ]
          },
          "count": 1
        }, {
          "id": "DenominatorExclusion_1",
          "code": {
            "coding": [ {
              "system": "http://terminology.hl7.org/CodeSystem/measure-population",
              "code": "denominator-exclusion",
              "display": "Denominator Exclusion"
            } ]
          },
          "count": 0
        }, {
          "id": "Numerator_1",
          "code": {
            "coding": [ {
              "system": "http://terminology.hl7.org/CodeSystem/measure-population",
              "code": "numerator",
              "display": "Numerator"
            } ]
          },
          "count": 0
        } ],
        "measureScore": {
          "value": 0.0
        }
      } ],
      "evaluatedResource": [ {
        "reference": "Encounter/b1b579f8-1362-4424-95bf-6051475a4238"
      }, {
        "reference": "Patient/741f622c-ef09-42ad-a58c-faead9aa2121"
      }, {
        "reference": "Observation/15be97e4-fcfb-45b4-a239-580473307ce0"
      }, {
        "reference": "Observation/3c080d2d-1828-442a-b321-3f296596cb94"
      }, {
        "reference": "Procedure/b64d6bc5-e80d-4e7a-a83f-04ba7dfe003f"
      } ]
    },
    "request": {
      "method": "PUT",
      "url": "MeasureReport/2feb2009-3bd8-4a1a-9497-60b33bcd1dfd"
    }
  } ]
}