{
  "resourceType": "Bundle",
  "id": "DENEXPass-DementiaNoDoNotPerform",
  "type": "transaction",
  "entry": [ {
    "fullUrl": "https://madie.cms.gov/Patient/59d7f239-7614-4e6e-a973-fe107aee5749",
    "resource": {
      "resourceType": "Patient",
      "id": "59d7f239-7614-4e6e-a973-fe107aee5749",
      "meta": {
        "profile": [ "http://hl7.org/fhir/us/qicore/StructureDefinition/qicore-patient" ]
      },
      "extension": [ {
        "url": "http://hl7.org/fhir/us/core/StructureDefinition/us-core-race",
        "extension": [ {
          "url": "ombCategory",
          "valueCoding": {
            "system": "urn:oid:2.16.840.1.113883.6.238",
            "code": "2028-9",
            "display": "Asian"
          }
        }, {
          "url": "text",
          "valueString": "Asian"
        } ]
      }, {
        "url": "http://hl7.org/fhir/us/core/StructureDefinition/us-core-ethnicity",
        "extension": [ {
          "url": "ombCategory",
          "valueCoding": {
            "system": "urn:oid:2.16.840.1.113883.6.238",
            "code": "2135-2",
            "display": "Hispanic or Latino"
          }
        }, {
          "url": "text",
          "valueString": "Hispanic or Latino"
        } ]
      } ],
      "identifier": [ {
        "system": "http://hospital.smarthealthit.org",
        "value": "999999995"
      } ],
      "name": [ {
        "family": "DENEXPass",
        "given": [ "DementiaNoDoNotPerform" ]
      } ],
      "gender": "female",
      "birthDate": "1959-12-31"
    },
    "request": {
      "method": "PUT",
      "url": "Patient/59d7f239-7614-4e6e-a973-fe107aee5749"
    }
  }, {
    "fullUrl": "https://madie.cms.gov/Encounter/a93b2e11-cbcf-40e4-94c5-1551ea344544",
    "resource": {
      "resourceType": "Encounter",
      "id": "a93b2e11-cbcf-40e4-94c5-1551ea344544",
      "meta": {
        "profile": [ "http://hl7.org/fhir/us/qicore/StructureDefinition/qicore-encounter" ]
      },
      "status": "finished",
      "class": {
        "system": "http://terminology.hl7.org/CodeSystem/v3-ActCode",
        "code": "AMB",
        "display": "ambulatory"
      },
      "type": [ {
        "coding": [ {
          "system": "http://snomed.info/sct",
          "code": "3391000175108",
          "display": "Office visit for pediatric care and assessment (procedure)"
        } ]
      } ],
      "subject": {
        "reference": "Patient/59d7f239-7614-4e6e-a973-fe107aee5749"
      },
      "period": {
        "start": "2026-01-01T00:00:00.000+00:00",
        "end": "2026-01-01T01:00:00.000+00:00"
      }
    },
    "request": {
      "method": "PUT",
      "url": "Encounter/a93b2e11-cbcf-40e4-94c5-1551ea344544"
    }
  }, {
    "fullUrl": "https://madie.cms.gov/Condition/228f90c3-b398-4f80-bf5d-bc43bc8ec65b",
    "resource": {
      "resourceType": "Condition",
      "id": "228f90c3-b398-4f80-bf5d-bc43bc8ec65b",
      "meta": {
        "profile": [ "http://hl7.org/fhir/us/qicore/StructureDefinition/qicore-condition-problems-health-concerns" ]
      },
      "clinicalStatus": {
        "coding": [ {
          "system": "http://terminology.hl7.org/CodeSystem/condition-clinical",
          "code": "active"
        } ]
      },
      "category": [ {
        "coding": [ {
          "system": "http://terminology.hl7.org/CodeSystem/condition-category",
          "code": "problem-list-item",
          "display": "Problem List Item"
        } ]
      } ],
      "code": {
        "coding": [ {
          "system": "http://snomed.info/sct",
          "code": "371125006",
          "display": "Labile essential hypertension (disorder)"
        } ]
      },
      "subject": {
        "reference": "Patient/59d7f239-7614-4e6e-a973-fe107aee5749"
      },
      "onsetDateTime": "2026-06-30T23:59:59.000+00:00"
    },
    "request": {
      "method": "PUT",
      "url": "Condition/228f90c3-b398-4f80-bf5d-bc43bc8ec65b"
    }
  }, {
    "fullUrl": "https://madie.cms.gov/MedicationRequest/d67586b4-c712-42ec-8b22-295c78f02893",
    "resource": {
      "resourceType": "MedicationRequest",
      "id": "d67586b4-c712-42ec-8b22-295c78f02893",
      "meta": {
        "profile": [ "http://hl7.org/fhir/us/qicore/StructureDefinition/qicore-medicationrequest" ]
      },
      "status": "active",
      "intent": "order",
      "medicationCodeableConcept": {
        "coding": [ {
          "system": "http://www.nlm.nih.gov/research/umls/rxnorm",
          "code": "312836",
          "display": "rivastigmine 6 MG Oral Capsule"
        } ]
      },
      "subject": {
        "reference": "Patient/59d7f239-7614-4e6e-a973-fe107aee5749"
      },
      "authoredOn": "2026-12-30T00:00:00.000+00:00",
      "requester": {
        "reference": "Practitioner/example"
      },
      "dispenseRequest": {
        "expectedSupplyDuration": {
          "value": 90,
          "system": "http://unitsofmeasure.org",
          "code": "days"
        }
      }
    },
    "request": {
      "method": "PUT",
      "url": "MedicationRequest/d67586b4-c712-42ec-8b22-295c78f02893"
    }
  }, {
    "fullUrl": "https://madie.cms.gov/DeviceRequest/5d8fd503-8bdf-4272-9cc5-a8e35cfde926",
    "resource": {
      "resourceType": "DeviceRequest",
      "id": "5d8fd503-8bdf-4272-9cc5-a8e35cfde926",
      "meta": {
        "profile": [ "http://hl7.org/fhir/us/qicore/StructureDefinition/qicore-devicerequest" ]
      },
      "modifierExtension": [ {
        "url": "http://hl7.org/fhir/5.0/StructureDefinition/extension-DeviceRequest.doNotPerform",
        "valueBoolean": false
      } ],
      "status": "completed",
      "intent": "order",
      "codeCodeableConcept": {
        "coding": [ {
          "system": "http://snomed.info/sct",
          "code": "183240000",
          "display": "Self-propelled wheelchair (physical object)"
        } ]
      },
      "subject": {
        "reference": "Patient/59d7f239-7614-4e6e-a973-fe107aee5749"
      },
      "authoredOn": "2026-11-01T23:59:00.000+00:00"
    },
    "request": {
      "method": "PUT",
      "url": "DeviceRequest/5d8fd503-8bdf-4272-9cc5-a8e35cfde926"
    }
  }, {
    "fullUrl": "https://madie.cms.gov/MeasureReport/85177012-7ab0-4a49-9def-647f931e1ab9",
    "resource": {
      "resourceType": "MeasureReport",
      "id": "85177012-7ab0-4a49-9def-647f931e1ab9",
      "meta": {
        "profile": [ "http://hl7.org/fhir/us/cqfmeasures/StructureDefinition/test-case-cqfm" ]
      },
      "contained": [ {
        "resourceType": "Parameters",
        "id": "c982fa01-d04e-4aa0-bf26-feaad5ca32ec-parameters",
        "parameter": [ {
          "name": "subject",
          "valueString": "59d7f239-7614-4e6e-a973-fe107aee5749"
        } ]
      } ],
      "extension": [ {
        "url": "http://hl7.org/fhir/StructureDefinition/cqf-inputParameters",
        "valueReference": {
          "reference": "#c982fa01-d04e-4aa0-bf26-feaad5ca32ec-parameters"
        }
      }, {
        "url": "http://hl7.org/fhir/us/cqfmeasures/StructureDefinition/cqfm-testCaseDescription",
        "valueMarkdown": "Dementia medication request does not have doNotPerformed value. Value is fixed to false in the profile so passing."
      } ],
      "modifierExtension": [ {
        "url": "http://hl7.org/fhir/us/cqfmeasures/StructureDefinition/cqfm-isTestCase",
        "valueBoolean": true
      } ],
      "status": "complete",
      "type": "individual",
      "measure": "https://madie.cms.gov/Measure/CMS165FHIRControllingHighBP",
      "period": {
        "start": "2026-01-01",
        "end": "2026-12-31"
      },
      "group": [ {
        "id": "Group_1",
        "population": [ {
          "id": "InitialPopulation_1",
          "code": {
            "coding": [ {
              "system": "http://terminology.hl7.org/CodeSystem/measure-population",
              "code": "initial-population",
              "display": "Initial Population"
            } ]
          },
          "count": 1
        }, {
          "id": "Denominator_1",
          "code": {
            "coding": [ {
              "system": "http://terminology.hl7.org/CodeSystem/measure-population",
              "code": "denominator",
              "display": "Denominator"
            } ]
          },
          "count": 1
        }, {
          "id": "DenominatorExclusion_1",
          "code": {
            "coding": [ {
              "system": "http://terminology.hl7.org/CodeSystem/measure-population",
              "code": "denominator-exclusion",
              "display": "Denominator Exclusion"
            } ]
          },
          "count": 1
        }, {
          "id": "Numerator_1",
          "code": {
            "coding": [ {
              "system": "http://terminology.hl7.org/CodeSystem/measure-population",
              "code": "numerator",
              "display": "Numerator"
            } ]
          },
          "count": 0
        } ],
        "measureScore": {
          "value": 1.0
        }
      } ],
      "evaluatedResource": [ {
        "reference": "Patient/59d7f239-7614-4e6e-a973-fe107aee5749"
      }, {
        "reference": "Encounter/a93b2e11-cbcf-40e4-94c5-1551ea344544"
      }, {
        "reference": "Condition/228f90c3-b398-4f80-bf5d-bc43bc8ec65b"
      }, {
        "reference": "MedicationRequest/d67586b4-c712-42ec-8b22-295c78f02893"
      }, {
        "reference": "DeviceRequest/5d8fd503-8bdf-4272-9cc5-a8e35cfde926"
      } ]
    },
    "request": {
      "method": "PUT",
      "url": "MeasureReport/85177012-7ab0-4a49-9def-647f931e1ab9"
    }
  } ]
}