{
  "resourceType": "Bundle",
  "id": "6109650598086b538055a0e3",
  "type": "transaction",
  "entry": [ {
    "fullUrl": "https://madie.cms.gov/Patient/cc10683e-5bc0-4fe9-96c2-bebba37a6cd3",
    "resource": {
      "resourceType": "Patient",
      "id": "cc10683e-5bc0-4fe9-96c2-bebba37a6cd3",
      "meta": {
        "profile": [ "http://hl7.org/fhir/us/qicore/StructureDefinition/qicore-patient" ]
      },
      "text": {
        "status": "generated",
        "div": "<div xmlns=\"http://www.w3.org/1999/xhtml\"><div class=\"hapiHeaderText\">RiskAssessOVEnc <b>NUMERPASS </b></div><table class=\"hapiPropertyTable\"><tbody><tr><td>Identifier</td><td>b0539aaa5eb9f04ab4673fe552b86099</td></tr><tr><td>Date of birth</td><td><span>13 December 1995</span></td></tr></tbody></table></div>"
      },
      "extension": [ {
        "url": "http://hl7.org/fhir/us/core/StructureDefinition/us-core-race",
        "extension": [ {
          "url": "ombCategory",
          "valueCoding": {
            "system": "urn:oid:2.16.840.1.113883.6.238",
            "code": "1002-5",
            "display": "American Indian or Alaska Native",
            "userSelected": true
          }
        }, {
          "url": "text",
          "valueString": "American Indian or Alaska Native"
        } ]
      }, {
        "url": "http://hl7.org/fhir/us/core/StructureDefinition/us-core-ethnicity",
        "extension": [ {
          "url": "ombCategory",
          "valueCoding": {
            "system": "urn:oid:2.16.840.1.113883.6.238",
            "code": "2186-5",
            "display": "Not Hispanic or Latino",
            "userSelected": true
          }
        }, {
          "url": "text",
          "valueString": "Not Hispanic or Latino"
        } ]
      } ],
      "identifier": [ {
        "type": {
          "coding": [ {
            "system": "http://terminology.hl7.org/CodeSystem/v2-0203",
            "code": "MR"
          } ]
        },
        "system": "https://bonnie-fhir.healthit.gov/",
        "value": "6109650598086b538055a0e3"
      } ],
      "active": true,
      "name": [ {
        "use": "usual",
        "family": "NUMPass",
        "given": [ "ObsClinResultRiskAssessOVEnc" ]
      } ],
      "gender": "female",
      "birthDate": "2013-12-13"
    },
    "request": {
      "method": "PUT",
      "url": "Patient/cc10683e-5bc0-4fe9-96c2-bebba37a6cd3"
    }
  }, {
    "fullUrl": "https://madie.cms.gov/Encounter/82159cc7-6cbf-4aed-9973-8d0a256e9cf7",
    "resource": {
      "resourceType": "Encounter",
      "id": "82159cc7-6cbf-4aed-9973-8d0a256e9cf7",
      "meta": {
        "profile": [ "http://hl7.org/fhir/us/qicore/StructureDefinition/qicore-encounter" ]
      },
      "status": "finished",
      "class": {
        "system": "http://terminology.hl7.org/CodeSystem/v3-ActCode",
        "code": "AMB",
        "display": "ambulatory",
        "userSelected": true
      },
      "type": [ {
        "coding": [ {
          "system": "http://snomed.info/sct",
          "code": "185463005"
        } ]
      } ],
      "subject": {
        "reference": "Patient/cc10683e-5bc0-4fe9-96c2-bebba37a6cd3"
      },
      "period": {
        "start": "2026-02-11T08:00:00.000+00:00",
        "end": "2026-02-11T08:15:00.000+00:00"
      },
      "reasonCode": [ {
        "coding": [ {
          "system": "http://snomed.info/sct",
          "code": "832007",
          "display": "Moderate major depression",
          "userSelected": true
        } ]
      } ],
      "diagnosis": [ {
        "condition": {
          "reference": "Condition/6d842233-f854-4585-a776-2dbebb4fa1a4"
        },
        "use": {
          "coding": [ {
            "system": "http://snomed.info/sct",
            "code": "10811161000119107",
            "display": "Major Depressive Disorder-Active"
          } ]
        }
      } ]
    },
    "request": {
      "method": "PUT",
      "url": "Encounter/82159cc7-6cbf-4aed-9973-8d0a256e9cf7"
    }
  }, {
    "fullUrl": "https://madie.cms.gov/Observation/ae0cc165-c9ea-4094-8a8f-fc5564691e9f",
    "resource": {
      "resourceType": "Observation",
      "id": "ae0cc165-c9ea-4094-8a8f-fc5564691e9f",
      "meta": {
        "profile": [ "http://hl7.org/fhir/us/qicore/StructureDefinition/qicore-observation-clinical-result" ]
      },
      "extension": [ {
        "url": "http://hl7.org/fhir/us/qicore/StructureDefinition/qicore-recorded",
        "valueDateTime": "2026-02-11T08:05:00.000+00:00"
      } ],
      "status": "final",
      "code": {
        "coding": [ {
          "system": "http://snomed.info/sct",
          "code": "225337009",
          "display": "Suicide risk assessment (procedure)",
          "userSelected": true
        } ]
      },
      "subject": {
        "reference": "Patient/cc10683e-5bc0-4fe9-96c2-bebba37a6cd3"
      },
      "effectiveDateTime": "2026-02-11T08:05:00.000+00:00"
    },
    "request": {
      "method": "PUT",
      "url": "Observation/ae0cc165-c9ea-4094-8a8f-fc5564691e9f"
    }
  }, {
    "fullUrl": "https://madie.cms.gov/Condition/6d842233-f854-4585-a776-2dbebb4fa1a4",
    "resource": {
      "resourceType": "Condition",
      "id": "6d842233-f854-4585-a776-2dbebb4fa1a4",
      "meta": {
        "profile": [ "http://hl7.org/fhir/us/qicore/StructureDefinition/qicore-condition" ]
      },
      "category": [ {
        "coding": [ {
          "system": "http://terminology.hl7.org/CodeSystem/condition-category",
          "code": "encounter-diagnosis",
          "display": "encounter-diagnosis",
          "userSelected": true
        } ]
      } ],
      "code": {
        "coding": [ {
          "system": "http://snomed.info/sct",
          "code": "79298009",
          "userSelected": true
        } ]
      },
      "subject": {
        "reference": "Patient/cc10683e-5bc0-4fe9-96c2-bebba37a6cd3"
      },
      "recordedDate": "2026-08-17T08:00:00.000+00:00"
    },
    "request": {
      "method": "PUT",
      "url": "Condition/6d842233-f854-4585-a776-2dbebb4fa1a4"
    }
  }, {
    "fullUrl": "https://madie.cms.gov/Coverage/437944c6-2caf-4e47-a4cf-cbe3e8c50d6f",
    "resource": {
      "resourceType": "Coverage",
      "id": "437944c6-2caf-4e47-a4cf-cbe3e8c50d6f",
      "meta": {
        "profile": [ "http://hl7.org/fhir/us/qicore/StructureDefinition/qicore-coverage" ]
      },
      "identifier": [ {
        "system": "http://benefitsinc.com/certificate",
        "value": "12345"
      } ],
      "status": "active",
      "type": {
        "coding": [ {
          "system": "https://nahdo.org/sopt",
          "version": "9.2",
          "code": "1",
          "display": "MEDICARE",
          "userSelected": true
        } ]
      },
      "beneficiary": {
        "reference": "Patient/cc10683e-5bc0-4fe9-96c2-bebba37a6cd3"
      },
      "period": {
        "start": "2026-01-01T08:00:00.000+00:00",
        "end": "2026-12-01T08:15:00.000+00:00"
      },
      "payor": [ {
        "reference": "Organization/b57f482a-c027-4b4e-b46b-eb179b83c56f"
      } ]
    },
    "request": {
      "method": "PUT",
      "url": "Coverage/437944c6-2caf-4e47-a4cf-cbe3e8c50d6f"
    }
  }, {
    "fullUrl": "https://madie.cms.gov/Organization/b57f482a-c027-4b4e-b46b-eb179b83c56f",
    "resource": {
      "resourceType": "Organization",
      "id": "b57f482a-c027-4b4e-b46b-eb179b83c56f",
      "meta": {
        "profile": [ "http://hl7.org/fhir/us/qicore/StructureDefinition/qicore-organization" ]
      },
      "identifier": [ {
        "use": "temp",
        "system": "urn:oid:2.16.840.1.113883.4.4",
        "value": "21-3259825"
      } ],
      "active": true,
      "type": [ {
        "coding": [ {
          "system": "http://terminology.hl7.org/CodeSystem/organization-type",
          "code": "pay",
          "display": "Payer"
        } ]
      } ],
      "name": "Blue Cross Blue Shield of Texas",
      "telecom": [ {
        "system": "phone",
        "value": "(+1) 972-766-6900"
      } ],
      "address": [ {
        "use": "billing",
        "type": "postal",
        "line": [ "P.O. Box 660044" ],
        "city": "Dallas",
        "state": "TX",
        "postalCode": "75266-0044",
        "country": "USA"
      } ]
    },
    "request": {
      "method": "PUT",
      "url": "Organization/b57f482a-c027-4b4e-b46b-eb179b83c56f"
    }
  }, {
    "fullUrl": "https://madie.cms.gov/Practitioner/3660cc1d-8ad1-4c35-9986-9d7367adcefd",
    "resource": {
      "resourceType": "Practitioner",
      "id": "3660cc1d-8ad1-4c35-9986-9d7367adcefd",
      "meta": {
        "profile": [ "http://hl7.org/fhir/us/qicore/StructureDefinition/qicore-practitioner" ]
      },
      "identifier": [ {
        "system": "http://hl7.org/fhir/sid/us-npi",
        "value": "123456"
      } ],
      "name": [ {
        "family": "Evil",
        "prefix": [ "Dr" ]
      } ]
    },
    "request": {
      "method": "PUT",
      "url": "Practitioner/3660cc1d-8ad1-4c35-9986-9d7367adcefd"
    }
  }, {
    "fullUrl": "https://madie.cms.gov/MeasureReport/7652b023-d550-4c7b-9a04-364b0a85523b",
    "resource": {
      "resourceType": "MeasureReport",
      "id": "7652b023-d550-4c7b-9a04-364b0a85523b",
      "meta": {
        "profile": [ "http://hl7.org/fhir/us/cqfmeasures/StructureDefinition/test-case-cqfm" ]
      },
      "contained": [ {
        "resourceType": "Parameters",
        "id": "47601d2f-bce2-4536-8e89-c107d3024532-parameters",
        "parameter": [ {
          "name": "subject",
          "valueString": "cc10683e-5bc0-4fe9-96c2-bebba37a6cd3"
        } ]
      } ],
      "extension": [ {
        "url": "http://hl7.org/fhir/StructureDefinition/cqf-inputParameters",
        "valueReference": {
          "reference": "#47601d2f-bce2-4536-8e89-c107d3024532-parameters"
        }
      }, {
        "url": "http://hl7.org/fhir/us/cqfmeasures/StructureDefinition/cqfm-testCaseDescription",
        "valueMarkdown": "Patient with depression and suicide risk assessment done during Office Visit (using profile Observation Clinical Result)"
      } ],
      "modifierExtension": [ {
        "url": "http://hl7.org/fhir/us/cqfmeasures/StructureDefinition/cqfm-isTestCase",
        "valueBoolean": true
      } ],
      "status": "complete",
      "type": "individual",
      "measure": "https://madie.cms.gov/Measure/CMS177FHIRChildMDDSuicideAssmt",
      "period": {
        "start": "2026-01-01",
        "end": "2026-12-31"
      },
      "group": [ {
        "id": "Group_1",
        "population": [ {
          "id": "InitialPopulation_1",
          "code": {
            "coding": [ {
              "system": "http://terminology.hl7.org/CodeSystem/measure-population",
              "code": "initial-population",
              "display": "Initial Population"
            } ]
          },
          "count": 1
        }, {
          "id": "Denominator_1",
          "code": {
            "coding": [ {
              "system": "http://terminology.hl7.org/CodeSystem/measure-population",
              "code": "denominator",
              "display": "Denominator"
            } ]
          },
          "count": 1
        }, {
          "id": "Numerator_1",
          "code": {
            "coding": [ {
              "system": "http://terminology.hl7.org/CodeSystem/measure-population",
              "code": "numerator",
              "display": "Numerator"
            } ]
          },
          "count": 1
        } ],
        "measureScore": {
          "value": 0.0
        }
      } ],
      "evaluatedResource": [ {
        "reference": "Patient/cc10683e-5bc0-4fe9-96c2-bebba37a6cd3"
      }, {
        "reference": "Encounter/82159cc7-6cbf-4aed-9973-8d0a256e9cf7"
      }, {
        "reference": "Observation/ae0cc165-c9ea-4094-8a8f-fc5564691e9f"
      }, {
        "reference": "Condition/6d842233-f854-4585-a776-2dbebb4fa1a4"
      }, {
        "reference": "Coverage/437944c6-2caf-4e47-a4cf-cbe3e8c50d6f"
      }, {
        "reference": "Organization/b57f482a-c027-4b4e-b46b-eb179b83c56f"
      }, {
        "reference": "Practitioner/3660cc1d-8ad1-4c35-9986-9d7367adcefd"
      } ]
    },
    "request": {
      "method": "PUT",
      "url": "MeasureReport/7652b023-d550-4c7b-9a04-364b0a85523b"
    }
  } ]
}