{
  "resourceType": "Bundle",
  "id": "612e6e9302c62a011f2eee8b",
  "type": "transaction",
  "entry": [ {
    "fullUrl": "https://madie.cms.gov/Patient/a6f83dff-1b0c-4584-babd-8c369c0c7d51",
    "resource": {
      "resourceType": "Patient",
      "id": "a6f83dff-1b0c-4584-babd-8c369c0c7d51",
      "meta": {
        "profile": [ "http://hl7.org/fhir/us/qicore/StructureDefinition/qicore-patient" ]
      },
      "text": {
        "status": "generated",
        "div": "<div xmlns=\"http://www.w3.org/1999/xhtml\"><div class=\"hapiHeaderText\">HipFxNotPrin <b>DENEXFAIL </b></div><table class=\"hapiPropertyTable\"><tbody><tr><td>Identifier</td><td>31862da5e01d3c5e5400146c9a207dfa</td></tr><tr><td>Date of birth</td><td><span>03 March 1974</span></td></tr></tbody></table></div>"
      },
      "extension": [ {
        "url": "http://hl7.org/fhir/us/core/StructureDefinition/us-core-race",
        "extension": [ {
          "url": "ombCategory",
          "valueCoding": {
            "system": "urn:oid:2.16.840.1.113883.6.238",
            "code": "1002-5",
            "display": "American Indian or Alaska Native",
            "userSelected": true
          }
        }, {
          "url": "text",
          "valueString": "American Indian or Alaska Native"
        } ]
      }, {
        "url": "http://hl7.org/fhir/us/core/StructureDefinition/us-core-ethnicity",
        "extension": [ {
          "url": "ombCategory",
          "valueCoding": {
            "system": "urn:oid:2.16.840.1.113883.6.238",
            "code": "2135-2",
            "display": "Hispanic or Latino",
            "userSelected": true
          }
        }, {
          "url": "text",
          "valueString": "Hispanic or Latino"
        } ]
      } ],
      "identifier": [ {
        "type": {
          "coding": [ {
            "system": "http://terminology.hl7.org/CodeSystem/v2-0203",
            "code": "MR"
          } ]
        },
        "system": "https://bonnie-fhir.healthit.gov/",
        "value": "612e6e9302c62a011f2eee8b"
      } ],
      "active": true,
      "name": [ {
        "use": "usual",
        "family": "DENEXFail",
        "given": [ "HipFxNotPrin" ]
      } ],
      "gender": "female",
      "birthDate": "1975-03-03"
    },
    "request": {
      "method": "PUT",
      "url": "Patient/a6f83dff-1b0c-4584-babd-8c369c0c7d51"
    }
  }, {
    "fullUrl": "https://madie.cms.gov/Encounter/aefc4188-84d9-49f4-b61d-f02bf76b4c3a",
    "resource": {
      "resourceType": "Encounter",
      "id": "aefc4188-84d9-49f4-b61d-f02bf76b4c3a",
      "meta": {
        "profile": [ "http://hl7.org/fhir/us/qicore/StructureDefinition/qicore-encounter" ]
      },
      "status": "finished",
      "class": {
        "system": "http://terminology.hl7.org/CodeSystem/v3-ActCode",
        "code": "IMP",
        "display": "inpatient encounter"
      },
      "type": [ {
        "coding": [ {
          "system": "http://snomed.info/sct",
          "code": "8715000"
        } ]
      } ],
      "subject": {
        "reference": "Patient/a6f83dff-1b0c-4584-babd-8c369c0c7d51"
      },
      "period": {
        "start": "2026-12-04T08:00:00.000+00:00",
        "end": "2026-12-30T08:15:00.000+00:00"
      },
      "length": {
        "value": 26.0,
        "unit": "days"
      },
      "location": [ {
        "location": {
          "reference": "Location/a28dd547-a0a3-4c1c-a039-6db2c3ded6c1"
        },
        "period": {
          "start": "2026-12-06T08:00:00.000+00:00",
          "end": "2026-12-08T08:15:00.000+00:00"
        }
      } ]
    },
    "request": {
      "method": "PUT",
      "url": "Encounter/aefc4188-84d9-49f4-b61d-f02bf76b4c3a"
    }
  }, {
    "fullUrl": "https://madie.cms.gov/Coverage/94db56ff-9dfa-40f1-8369-7e061278327b",
    "resource": {
      "resourceType": "Coverage",
      "id": "94db56ff-9dfa-40f1-8369-7e061278327b",
      "status": "active",
      "beneficiary": {
        "reference": "Patient/a6f83dff-1b0c-4584-babd-8c369c0c7d51"
      },
      "period": {
        "start": "1975-03-03T08:00:00.000+00:00"
      },
      "payor": [ {
        "reference": "Organization/e7c29706-7215-44da-af1c-2c0a2072a06f"
      } ]
    },
    "request": {
      "method": "PUT",
      "url": "Coverage/94db56ff-9dfa-40f1-8369-7e061278327b"
    }
  }, {
    "fullUrl": "https://madie.cms.gov/Procedure/830a639f-e34d-48c1-a2ec-d76763611c9a",
    "resource": {
      "resourceType": "Procedure",
      "id": "830a639f-e34d-48c1-a2ec-d76763611c9a",
      "meta": {
        "profile": [ "http://hl7.org/fhir/us/qicore/StructureDefinition/qicore-procedure" ]
      },
      "extension": [ {
        "url": "http://hl7.org/fhir/us/qicore/StructureDefinition/qicore-recorded",
        "valueDateTime": "2013-12-06T13:35:00.000+00:00"
      } ],
      "status": "completed",
      "code": {
        "coding": [ {
          "system": "http://www.cms.gov/Medicare/Coding/ICD10",
          "code": "0F150D3",
          "display": "Bypass Right Hepatic Duct to Duodenum with Intraluminal Device, Open Approach"
        } ]
      },
      "subject": {
        "reference": "Patient/a6f83dff-1b0c-4584-babd-8c369c0c7d51"
      },
      "performedPeriod": {
        "start": "2026-12-06T08:15:00.000+00:00",
        "end": "2026-12-06T11:15:00.000+00:00"
      }
    },
    "request": {
      "method": "PUT",
      "url": "Procedure/830a639f-e34d-48c1-a2ec-d76763611c9a"
    }
  }, {
    "fullUrl": "https://madie.cms.gov/Location/a28dd547-a0a3-4c1c-a039-6db2c3ded6c1",
    "resource": {
      "resourceType": "Location",
      "id": "a28dd547-a0a3-4c1c-a039-6db2c3ded6c1",
      "meta": {
        "profile": [ "http://hl7.org/fhir/us/qicore/StructureDefinition/qicore-location" ]
      },
      "identifier": [ {
        "use": "usual",
        "system": "http://exampleoflocation.com",
        "value": "B1-S.F2"
      } ],
      "name": "Medical Surgical East, first floor",
      "type": [ {
        "coding": [ {
          "system": "https://www.cdc.gov/nhsn/cdaportal/terminology/codesystem/hsloc.html",
          "code": "1025-6",
          "display": "Trauma Critical Care",
          "userSelected": true
        } ]
      } ]
    },
    "request": {
      "method": "PUT",
      "url": "Location/a28dd547-a0a3-4c1c-a039-6db2c3ded6c1"
    }
  }, {
    "fullUrl": "https://madie.cms.gov/Organization/e7c29706-7215-44da-af1c-2c0a2072a06f",
    "resource": {
      "resourceType": "Organization",
      "id": "e7c29706-7215-44da-af1c-2c0a2072a06f",
      "meta": {
        "profile": [ "http://hl7.org/fhir/us/qicore/StructureDefinition/qicore-organization" ]
      },
      "identifier": [ {
        "use": "temp",
        "system": "urn:oid:2.16.840.1.113883.4.4",
        "value": "21-3259825"
      } ],
      "active": true,
      "type": [ {
        "coding": [ {
          "system": "http://terminology.hl7.org/CodeSystem/organization-type",
          "code": "pay",
          "display": "Payer"
        } ]
      } ],
      "name": "Blue Cross Blue Shield of Texas",
      "telecom": [ {
        "system": "phone",
        "value": "(+1) 972-766-6900"
      } ],
      "address": [ {
        "use": "billing",
        "type": "postal",
        "line": [ "P.O. Box 660044" ],
        "city": "Dallas",
        "state": "TX",
        "postalCode": "75266-0044",
        "country": "USA"
      } ]
    },
    "request": {
      "method": "PUT",
      "url": "Organization/e7c29706-7215-44da-af1c-2c0a2072a06f"
    }
  }, {
    "fullUrl": "https://madie.cms.gov/Practitioner/3e7f750e-66ac-4686-b1c7-83efea110d58",
    "resource": {
      "resourceType": "Practitioner",
      "id": "3e7f750e-66ac-4686-b1c7-83efea110d58",
      "identifier": [ {
        "system": "http://hl7.org/fhir/sid/us-npi",
        "value": "123456"
      } ],
      "name": [ {
        "family": "Evil",
        "prefix": [ "Dr" ]
      } ]
    },
    "request": {
      "method": "PUT",
      "url": "Practitioner/3e7f750e-66ac-4686-b1c7-83efea110d58"
    }
  }, {
    "fullUrl": "https://madie.cms.gov/MeasureReport/f30bc29d-07b4-42fc-9e5d-c00c7ec1b82f",
    "resource": {
      "resourceType": "MeasureReport",
      "id": "f30bc29d-07b4-42fc-9e5d-c00c7ec1b82f",
      "meta": {
        "profile": [ "http://hl7.org/fhir/us/cqfmeasures/StructureDefinition/test-case-cqfm" ]
      },
      "contained": [ {
        "resourceType": "Parameters",
        "id": "3dccfd5e-6337-4a4d-9dfb-ecf10554feed-parameters",
        "parameter": [ {
          "name": "subject",
          "valueString": "a6f83dff-1b0c-4584-babd-8c369c0c7d51"
        } ]
      } ],
      "extension": [ {
        "url": "http://hl7.org/fhir/StructureDefinition/cqf-inputParameters",
        "valueReference": {
          "reference": "#3dccfd5e-6337-4a4d-9dfb-ecf10554feed-parameters"
        }
      }, {
        "url": "http://hl7.org/fhir/us/cqfmeasures/StructureDefinition/cqfm-testCaseDescription",
        "valueMarkdown": "general surgery starts not principal\n"
      } ],
      "modifierExtension": [ {
        "url": "http://hl7.org/fhir/us/cqfmeasures/StructureDefinition/cqfm-isTestCase",
        "valueBoolean": true
      } ],
      "status": "complete",
      "type": "individual",
      "measure": "https://madie.cms.gov/Measure/CMS190FHIRVTEProphylaxisICU",
      "period": {
        "start": "2026-01-01",
        "end": "2026-12-31"
      },
      "group": [ {
        "id": "Group_1",
        "population": [ {
          "id": "InitialPopulation_1",
          "code": {
            "coding": [ {
              "system": "http://terminology.hl7.org/CodeSystem/measure-population",
              "code": "initial-population",
              "display": "Initial Population"
            } ]
          },
          "count": 1
        }, {
          "id": "Denominator_1",
          "code": {
            "coding": [ {
              "system": "http://terminology.hl7.org/CodeSystem/measure-population",
              "code": "denominator",
              "display": "Denominator"
            } ]
          },
          "count": 1
        }, {
          "id": "DenominatorExclusion_1",
          "code": {
            "coding": [ {
              "system": "http://terminology.hl7.org/CodeSystem/measure-population",
              "code": "denominator-exclusion",
              "display": "Denominator Exclusion"
            } ]
          },
          "count": 0
        }, {
          "id": "Numerator_1",
          "code": {
            "coding": [ {
              "system": "http://terminology.hl7.org/CodeSystem/measure-population",
              "code": "numerator",
              "display": "Numerator"
            } ]
          },
          "count": 0
        }, {
          "id": "DenominatorException_1",
          "code": {
            "coding": [ {
              "system": "http://terminology.hl7.org/CodeSystem/measure-population",
              "code": "denominator-exception",
              "display": "Denominator Exception"
            } ]
          },
          "count": 0
        } ],
        "measureScore": {
          "value": 0.0
        }
      } ],
      "evaluatedResource": [ {
        "reference": "Patient/a6f83dff-1b0c-4584-babd-8c369c0c7d51"
      }, {
        "reference": "Encounter/aefc4188-84d9-49f4-b61d-f02bf76b4c3a"
      }, {
        "reference": "Coverage/94db56ff-9dfa-40f1-8369-7e061278327b"
      }, {
        "reference": "Procedure/830a639f-e34d-48c1-a2ec-d76763611c9a"
      }, {
        "reference": "Location/a28dd547-a0a3-4c1c-a039-6db2c3ded6c1"
      }, {
        "reference": "Organization/e7c29706-7215-44da-af1c-2c0a2072a06f"
      }, {
        "reference": "Practitioner/3e7f750e-66ac-4686-b1c7-83efea110d58"
      } ]
    },
    "request": {
      "method": "PUT",
      "url": "MeasureReport/f30bc29d-07b4-42fc-9e5d-c00c7ec1b82f"
    }
  } ]
}