{
  "resourceType": "Bundle",
  "id": "63487c2f0968f80122540192",
  "type": "transaction",
  "entry": [ {
    "fullUrl": "https://madie.cms.gov/Patient/6a8804e3-d7cc-494e-8cb8-0befa0566c14",
    "resource": {
      "resourceType": "Patient",
      "id": "6a8804e3-d7cc-494e-8cb8-0befa0566c14",
      "meta": {
        "profile": [ "http://hl7.org/fhir/us/qicore/StructureDefinition/qicore-patient" ]
      },
      "text": {
        "status": "generated",
        "div": "<div xmlns=\"http://www.w3.org/1999/xhtml\"><div class=\"hapiHeaderText\">AssessP0RelDateTime42wkB4TimeOfDeliv <b>DENPASS </b></div><table class=\"hapiPropertyTable\"><tbody><tr><td>Identifier</td><td>49e75344440120387e89419ee36282f99bbbbc9526c96f4d2baf4981f8757fa2</td></tr><tr><td>Date of birth</td><td><span>14 February 1985</span></td></tr></tbody></table></div>"
      },
      "extension": [ {
        "url": "http://hl7.org/fhir/us/core/StructureDefinition/us-core-race",
        "extension": [ {
          "url": "ombCategory",
          "valueCoding": {
            "system": "urn:oid:2.16.840.1.113883.6.238",
            "code": "1002-5",
            "display": "American Indian or Alaska Native",
            "userSelected": true
          }
        }, {
          "url": "text",
          "valueString": "American Indian or Alaska Native"
        } ]
      }, {
        "url": "http://hl7.org/fhir/us/core/StructureDefinition/us-core-ethnicity",
        "extension": [ {
          "url": "ombCategory",
          "valueCoding": {
            "system": "urn:oid:2.16.840.1.113883.6.238",
            "code": "2135-2",
            "display": "Hispanic or Latino",
            "userSelected": true
          }
        }, {
          "url": "text",
          "valueString": "Hispanic or Latino"
        } ]
      } ],
      "identifier": [ {
        "type": {
          "coding": [ {
            "system": "http://terminology.hl7.org/CodeSystem/v2-0203",
            "code": "MR"
          } ]
        },
        "system": "https://bonnie-fhir.healthit.gov/",
        "value": "63487c2f0968f80122540192"
      } ],
      "active": true,
      "name": [ {
        "use": "usual",
        "family": "DENPass",
        "given": [ "AssessP0RelDateTime42wkB4TimeOfDeliv" ]
      } ],
      "gender": "female",
      "birthDate": "1998-02-14"
    },
    "request": {
      "method": "PUT",
      "url": "Patient/6a8804e3-d7cc-494e-8cb8-0befa0566c14"
    }
  }, {
    "fullUrl": "https://madie.cms.gov/Observation/d0832292-1a6d-4970-9248-ab6e745c7282",
    "resource": {
      "resourceType": "Observation",
      "id": "d0832292-1a6d-4970-9248-ab6e745c7282",
      "meta": {
        "profile": [ "http://hl7.org/fhir/us/qicore/StructureDefinition/qicore-simple-observation" ]
      },
      "status": "final",
      "category": [ {
        "coding": [ {
          "system": "http://terminology.hl7.org/CodeSystem/observation-category",
          "code": "exam",
          "display": "exam",
          "userSelected": true
        } ]
      } ],
      "code": {
        "coding": [ {
          "system": "http://loinc.org",
          "code": "11977-6"
        } ]
      },
      "subject": {
        "reference": "Patient/6a8804e3-d7cc-494e-8cb8-0befa0566c14"
      },
      "effectiveDateTime": "2025-08-19T20:00:00.000+00:00",
      "valueInteger": 0
    },
    "request": {
      "method": "PUT",
      "url": "Observation/d0832292-1a6d-4970-9248-ab6e745c7282"
    }
  }, {
    "fullUrl": "https://madie.cms.gov/Observation/5ad84830-61de-4bc5-9388-de1e5cfc97a5",
    "resource": {
      "resourceType": "Observation",
      "id": "5ad84830-61de-4bc5-9388-de1e5cfc97a5",
      "meta": {
        "profile": [ "http://hl7.org/fhir/us/qicore/StructureDefinition/qicore-simple-observation" ]
      },
      "status": "final",
      "category": [ {
        "coding": [ {
          "system": "http://terminology.hl7.org/CodeSystem/observation-category",
          "code": "exam",
          "display": "exam",
          "userSelected": true
        } ]
      } ],
      "code": {
        "coding": [ {
          "system": "http://loinc.org",
          "code": "11884-4"
        } ]
      },
      "subject": {
        "reference": "Patient/6a8804e3-d7cc-494e-8cb8-0befa0566c14"
      },
      "effectiveDateTime": "2026-06-08T20:00:00.000+00:00",
      "valueQuantity": {
        "value": 37,
        "system": "http://unitsofmeasure.org",
        "code": "wk"
      }
    },
    "request": {
      "method": "PUT",
      "url": "Observation/5ad84830-61de-4bc5-9388-de1e5cfc97a5"
    }
  }, {
    "fullUrl": "https://madie.cms.gov/Observation/7b665c35-a149-4b22-bce5-c784f8c9b14f",
    "resource": {
      "resourceType": "Observation",
      "id": "7b665c35-a149-4b22-bce5-c784f8c9b14f",
      "meta": {
        "profile": [ "http://hl7.org/fhir/us/qicore/StructureDefinition/qicore-simple-observation" ]
      },
      "status": "final",
      "category": [ {
        "coding": [ {
          "system": "http://terminology.hl7.org/CodeSystem/observation-category",
          "code": "exam",
          "display": "exam",
          "userSelected": true
        } ]
      } ],
      "code": {
        "coding": [ {
          "system": "http://loinc.org",
          "code": "93857-1"
        } ]
      },
      "subject": {
        "reference": "Patient/6a8804e3-d7cc-494e-8cb8-0befa0566c14"
      },
      "effectiveDateTime": "2026-06-08T20:00:00.000+00:00",
      "valueDateTime": "2026-06-08T20:00:00.000+00:00"
    },
    "request": {
      "method": "PUT",
      "url": "Observation/7b665c35-a149-4b22-bce5-c784f8c9b14f"
    }
  }, {
    "fullUrl": "https://madie.cms.gov/Encounter/eb259067-d9c5-4b74-b8ee-6b5d87fa51f8",
    "resource": {
      "resourceType": "Encounter",
      "id": "eb259067-d9c5-4b74-b8ee-6b5d87fa51f8",
      "meta": {
        "profile": [ "http://hl7.org/fhir/us/qicore/StructureDefinition/qicore-encounter" ]
      },
      "status": "finished",
      "class": {
        "system": "http://terminology.hl7.org/CodeSystem/v3-ActCode",
        "code": "IMP",
        "display": "inpatient encounter"
      },
      "type": [ {
        "coding": [ {
          "system": "http://snomed.info/sct",
          "code": "8715000"
        } ]
      } ],
      "subject": {
        "reference": "Patient/6a8804e3-d7cc-494e-8cb8-0befa0566c14"
      },
      "period": {
        "start": "2026-06-08T08:00:00.000+00:00",
        "end": "2026-06-10T08:15:00.000+00:00"
      },
      "length": {
        "value": 2,
        "unit": "days"
      },
      "reasonReference": [ {
        "reference": "Condition/f7724a77-8d9c-4075-ab6a-1fd031133cae"
      } ]
    },
    "request": {
      "method": "PUT",
      "url": "Encounter/eb259067-d9c5-4b74-b8ee-6b5d87fa51f8"
    }
  }, {
    "fullUrl": "https://madie.cms.gov/Procedure/54b6e6d3-de45-4f42-8978-649c1bb6ea4c",
    "resource": {
      "resourceType": "Procedure",
      "id": "54b6e6d3-de45-4f42-8978-649c1bb6ea4c",
      "meta": {
        "profile": [ "http://hl7.org/fhir/us/qicore/StructureDefinition/qicore-procedure" ]
      },
      "extension": [ {
        "url": "http://hl7.org/fhir/us/qicore/StructureDefinition/qicore-recorded",
        "valueDateTime": "2014-04-05T13:35:00.000+00:00"
      } ],
      "status": "completed",
      "code": {
        "coding": [ {
          "system": "http://www.cms.gov/Medicare/Coding/ICD10",
          "code": "10D00Z0"
        } ]
      },
      "subject": {
        "reference": "Patient/6a8804e3-d7cc-494e-8cb8-0befa0566c14"
      },
      "performedPeriod": {
        "start": "2026-06-08T20:00:00.000+00:00",
        "end": "2026-06-08T20:15:00.000+00:00"
      }
    },
    "request": {
      "method": "PUT",
      "url": "Procedure/54b6e6d3-de45-4f42-8978-649c1bb6ea4c"
    }
  }, {
    "fullUrl": "https://madie.cms.gov/Condition/f7724a77-8d9c-4075-ab6a-1fd031133cae",
    "resource": {
      "resourceType": "Condition",
      "id": "f7724a77-8d9c-4075-ab6a-1fd031133cae",
      "meta": {
        "profile": [ "http://hl7.org/fhir/us/qicore/StructureDefinition/qicore-condition-encounter-diagnosis" ]
      },
      "category": [ {
        "coding": [ {
          "system": "http://terminology.hl7.org/CodeSystem/condition-category",
          "code": "encounter-diagnosis",
          "display": "Encounter Diagnosis"
        } ]
      } ],
      "code": {
        "coding": [ {
          "system": "http://snomed.info/sct",
          "version": "2022-09",
          "code": "169826009",
          "display": "Single live birth from singleton pregnancy (finding)",
          "userSelected": true
        } ]
      },
      "subject": {
        "reference": "Patient/6a8804e3-d7cc-494e-8cb8-0befa0566c14"
      },
      "encounter": {
        "reference": "Encounter/eb259067-d9c5-4b74-b8ee-6b5d87fa51f8"
      },
      "recordedDate": "2026-10-18T08:00:00.000+00:00"
    },
    "request": {
      "method": "PUT",
      "url": "Condition/f7724a77-8d9c-4075-ab6a-1fd031133cae"
    }
  }, {
    "fullUrl": "https://madie.cms.gov/Coverage/9f1dad4a-25e8-4114-92ca-ddd5eb0517ef",
    "resource": {
      "resourceType": "Coverage",
      "id": "9f1dad4a-25e8-4114-92ca-ddd5eb0517ef",
      "meta": {
        "profile": [ "http://hl7.org/fhir/us/qicore/StructureDefinition/qicore-coverage" ]
      },
      "status": "active",
      "subscriberId": "523435",
      "beneficiary": {
        "reference": "Patient/6a8804e3-d7cc-494e-8cb8-0befa0566c14"
      },
      "relationship": {
        "coding": [ {
          "system": "http://terminology.hl7.org/CodeSystem/subscriber-relationship",
          "code": "self"
        } ]
      },
      "payor": [ {
        "reference": "Organization/9e736849-0e96-494c-a2e3-39c1da2c5d93"
      } ]
    },
    "request": {
      "method": "PUT",
      "url": "Coverage/9f1dad4a-25e8-4114-92ca-ddd5eb0517ef"
    }
  }, {
    "fullUrl": "https://madie.cms.gov/Organization/9e736849-0e96-494c-a2e3-39c1da2c5d93",
    "resource": {
      "resourceType": "Organization",
      "id": "9e736849-0e96-494c-a2e3-39c1da2c5d93",
      "meta": {
        "profile": [ "http://hl7.org/fhir/us/qicore/StructureDefinition/qicore-organization" ]
      },
      "identifier": [ {
        "use": "temp",
        "system": "urn:oid:2.16.840.1.113883.4.4",
        "value": "21-3259825"
      } ],
      "active": true,
      "type": [ {
        "coding": [ {
          "system": "http://terminology.hl7.org/CodeSystem/organization-type",
          "code": "pay",
          "display": "Payer"
        } ]
      } ],
      "name": "Blue Cross Blue Shield of Texas",
      "telecom": [ {
        "system": "phone",
        "value": "(+1) 972-766-6900"
      } ],
      "address": [ {
        "use": "billing",
        "type": "postal",
        "line": [ "P.O. Box 660044" ],
        "city": "Dallas",
        "state": "TX",
        "postalCode": "75266-0044",
        "country": "USA"
      } ]
    },
    "request": {
      "method": "PUT",
      "url": "Organization/9e736849-0e96-494c-a2e3-39c1da2c5d93"
    }
  }, {
    "fullUrl": "https://madie.cms.gov/Practitioner/34ea0586-0602-4597-b07c-f1f512eeeb66",
    "resource": {
      "resourceType": "Practitioner",
      "id": "34ea0586-0602-4597-b07c-f1f512eeeb66",
      "meta": {
        "profile": [ "http://hl7.org/fhir/us/qicore/StructureDefinition/qicore-practitioner" ]
      },
      "identifier": [ {
        "system": "http://hl7.org/fhir/sid/us-npi",
        "value": "1234567890"
      } ],
      "name": [ {
        "family": "Evil",
        "prefix": [ "Dr" ]
      } ]
    },
    "request": {
      "method": "PUT",
      "url": "Practitioner/34ea0586-0602-4597-b07c-f1f512eeeb66"
    }
  }, {
    "fullUrl": "https://madie.cms.gov/MeasureReport/fba1c058-7fae-4d9e-9d69-b33d40665a89",
    "resource": {
      "resourceType": "MeasureReport",
      "id": "fba1c058-7fae-4d9e-9d69-b33d40665a89",
      "meta": {
        "profile": [ "http://hl7.org/fhir/us/cqfmeasures/StructureDefinition/test-case-cqfm" ]
      },
      "contained": [ {
        "resourceType": "Parameters",
        "id": "cd056fec-de4b-4de0-a509-809d6ecaf017-parameters",
        "parameter": [ {
          "name": "subject",
          "valueString": "6a8804e3-d7cc-494e-8cb8-0befa0566c14"
        } ]
      } ],
      "extension": [ {
        "url": "http://hl7.org/fhir/StructureDefinition/cqf-inputParameters",
        "valueReference": {
          "reference": "#cd056fec-de4b-4de0-a509-809d6ecaf017-parameters"
        }
      }, {
        "url": "http://hl7.org/fhir/us/cqfmeasures/StructureDefinition/cqfm-testCaseDescription",
        "valueMarkdown": "Parity=0, relevant date/time exactly 42 weeks prior to delivery date/time.  \n"
      } ],
      "modifierExtension": [ {
        "url": "http://hl7.org/fhir/us/cqfmeasures/StructureDefinition/cqfm-isTestCase",
        "valueBoolean": true
      } ],
      "status": "complete",
      "type": "individual",
      "measure": "https://madie.cms.gov/Measure/CMS0334FHIRPCCesareanBirth",
      "period": {
        "start": "2026-01-01",
        "end": "2026-12-31"
      },
      "group": [ {
        "id": "Group_1",
        "population": [ {
          "id": "InitialPopulation_1",
          "code": {
            "coding": [ {
              "system": "http://terminology.hl7.org/CodeSystem/measure-population",
              "code": "initial-population",
              "display": "Initial Population"
            } ]
          },
          "count": 1
        }, {
          "id": "Denominator_1",
          "code": {
            "coding": [ {
              "system": "http://terminology.hl7.org/CodeSystem/measure-population",
              "code": "denominator",
              "display": "Denominator"
            } ]
          },
          "count": 1
        }, {
          "id": "DenominatorExclusion_1",
          "code": {
            "coding": [ {
              "system": "http://terminology.hl7.org/CodeSystem/measure-population",
              "code": "denominator-exclusion",
              "display": "Denominator Exclusion"
            } ]
          },
          "count": 0
        }, {
          "id": "Numerator_1",
          "code": {
            "coding": [ {
              "system": "http://terminology.hl7.org/CodeSystem/measure-population",
              "code": "numerator",
              "display": "Numerator"
            } ]
          },
          "count": 1
        } ],
        "measureScore": {
          "value": 0.0
        }
      } ],
      "evaluatedResource": [ {
        "reference": "Patient/6a8804e3-d7cc-494e-8cb8-0befa0566c14"
      }, {
        "reference": "Observation/d0832292-1a6d-4970-9248-ab6e745c7282"
      }, {
        "reference": "Observation/5ad84830-61de-4bc5-9388-de1e5cfc97a5"
      }, {
        "reference": "Observation/7b665c35-a149-4b22-bce5-c784f8c9b14f"
      }, {
        "reference": "Encounter/eb259067-d9c5-4b74-b8ee-6b5d87fa51f8"
      }, {
        "reference": "Procedure/54b6e6d3-de45-4f42-8978-649c1bb6ea4c"
      }, {
        "reference": "Condition/f7724a77-8d9c-4075-ab6a-1fd031133cae"
      }, {
        "reference": "Coverage/9f1dad4a-25e8-4114-92ca-ddd5eb0517ef"
      }, {
        "reference": "Organization/9e736849-0e96-494c-a2e3-39c1da2c5d93"
      }, {
        "reference": "Practitioner/34ea0586-0602-4597-b07c-f1f512eeeb66"
      } ]
    },
    "request": {
      "method": "PUT",
      "url": "MeasureReport/fba1c058-7fae-4d9e-9d69-b33d40665a89"
    }
  } ]
}