{
  "resourceType": "Bundle",
  "id": "633b3f9e0968f80122503cd9",
  "type": "transaction",
  "entry": [ {
    "fullUrl": "https://madie.cms.gov/Patient/3d4b6868-31ce-42f8-87c1-ab06d851d53f",
    "resource": {
      "resourceType": "Patient",
      "id": "3d4b6868-31ce-42f8-87c1-ab06d851d53f",
      "meta": {
        "profile": [ "http://hl7.org/fhir/us/qicore/StructureDefinition/qicore-patient" ]
      },
      "text": {
        "status": "generated",
        "div": "<div xmlns=\"http://www.w3.org/1999/xhtml\"><div class=\"hapiHeaderText\">DELEncCalEGAEQ19Wks6Days<b>DENOMFAIL</b></div><table class=\"hapiPropertyTable\"><tbody><tr><td>Date of birth</td><td><span>01 February 1958</span></td></tr></tbody></table></div>"
      },
      "extension": [ {
        "url": "http://hl7.org/fhir/us/core/StructureDefinition/us-core-race",
        "extension": [ {
          "url": "ombCategory",
          "valueCoding": {
            "system": "urn:oid:2.16.840.1.113883.6.238",
            "code": "1002-5",
            "display": "American Indian or Alaska Native",
            "userSelected": true
          }
        }, {
          "url": "text",
          "valueString": "American Indian or Alaska Native"
        } ]
      }, {
        "url": "http://hl7.org/fhir/us/core/StructureDefinition/us-core-ethnicity",
        "extension": [ {
          "url": "ombCategory",
          "valueCoding": {
            "system": "urn:oid:2.16.840.1.113883.6.238",
            "code": "2135-2",
            "display": "Hispanic or Latino",
            "userSelected": true
          }
        }, {
          "url": "text",
          "valueString": "Hispanic or Latino"
        } ]
      } ],
      "identifier": [ {
        "type": {
          "coding": [ {
            "system": "http://terminology.hl7.org/CodeSystem/v2-0203",
            "code": "MR"
          } ]
        },
        "system": "https://bonnie-fhir.healthit.gov/",
        "value": "633b3f9e0968f80122503cd9"
      } ],
      "active": true,
      "name": [ {
        "use": "usual",
        "family": "DENOMFail",
        "given": [ "DELEncCalEGAEQ19Wks6Days" ]
      } ],
      "gender": "female",
      "birthDate": "1971-02-01"
    },
    "request": {
      "method": "PUT",
      "url": "Patient/3d4b6868-31ce-42f8-87c1-ab06d851d53f"
    }
  }, {
    "fullUrl": "https://madie.cms.gov/Observation/95d2f0cf-744e-456c-b503-857ab726ab4c",
    "resource": {
      "resourceType": "Observation",
      "id": "95d2f0cf-744e-456c-b503-857ab726ab4c",
      "meta": {
        "profile": [ "http://hl7.org/fhir/us/qicore/StructureDefinition/qicore-simple-observation" ]
      },
      "status": "final",
      "category": [ {
        "coding": [ {
          "system": "http://terminology.hl7.org/CodeSystem/observation-category",
          "code": "exam",
          "display": "exam",
          "userSelected": true
        } ]
      } ],
      "code": {
        "coding": [ {
          "system": "http://loinc.org",
          "code": "93857-1"
        } ]
      },
      "subject": {
        "reference": "Patient/3d4b6868-31ce-42f8-87c1-ab06d851d53f"
      },
      "effectiveDateTime": "2026-01-15T08:00:00.000+00:00",
      "performer": [ {
        "reference": "Organization/example1",
        "display": "Hendricks Country Hospital"
      } ],
      "valueDateTime": "2026-01-15T08:00:00.000+00:00"
    },
    "request": {
      "method": "PUT",
      "url": "Observation/95d2f0cf-744e-456c-b503-857ab726ab4c"
    }
  }, {
    "fullUrl": "https://madie.cms.gov/Observation/7ddd1c10-be21-480e-aa28-08bdb2bdf9fc",
    "resource": {
      "resourceType": "Observation",
      "id": "7ddd1c10-be21-480e-aa28-08bdb2bdf9fc",
      "meta": {
        "profile": [ "http://hl7.org/fhir/us/qicore/StructureDefinition/qicore-simple-observation" ]
      },
      "status": "final",
      "category": [ {
        "coding": [ {
          "system": "http://terminology.hl7.org/CodeSystem/observation-category",
          "code": "exam",
          "display": "exam",
          "userSelected": true
        } ]
      } ],
      "code": {
        "coding": [ {
          "system": "http://loinc.org",
          "code": "11778-8"
        } ]
      },
      "subject": {
        "reference": "Patient/3d4b6868-31ce-42f8-87c1-ab06d851d53f"
      },
      "effectiveDateTime": "2026-01-15T08:00:00.000+00:00",
      "performer": [ {
        "reference": "Organization/example1",
        "display": "Hendricks Country Hospital"
      } ],
      "valueDateTime": "2026-06-05T08:00:00.000+00:00"
    },
    "request": {
      "method": "PUT",
      "url": "Observation/7ddd1c10-be21-480e-aa28-08bdb2bdf9fc"
    }
  }, {
    "fullUrl": "https://madie.cms.gov/Encounter/004a123b-0682-4063-b128-fd501712d72c",
    "resource": {
      "resourceType": "Encounter",
      "id": "004a123b-0682-4063-b128-fd501712d72c",
      "meta": {
        "profile": [ "http://hl7.org/fhir/us/qicore/StructureDefinition/qicore-encounter" ]
      },
      "status": "finished",
      "class": {
        "system": "http://terminology.hl7.org/CodeSystem/v3-ActCode",
        "code": "IMP",
        "display": "inpatient encounter"
      },
      "type": [ {
        "coding": [ {
          "system": "http://snomed.info/sct",
          "code": "183452005"
        } ]
      } ],
      "subject": {
        "reference": "Patient/3d4b6868-31ce-42f8-87c1-ab06d851d53f"
      },
      "period": {
        "start": "2026-01-01T08:00:00.000+00:00",
        "end": "2026-02-05T08:15:00.000+00:00"
      }
    },
    "request": {
      "method": "PUT",
      "url": "Encounter/004a123b-0682-4063-b128-fd501712d72c"
    }
  }, {
    "fullUrl": "https://madie.cms.gov/Coverage/c1ad81da-f22c-4946-a6c7-e9ab3222f933",
    "resource": {
      "resourceType": "Coverage",
      "id": "c1ad81da-f22c-4946-a6c7-e9ab3222f933",
      "status": "active",
      "subscriberId": "523435",
      "beneficiary": {
        "reference": "Patient/3d4b6868-31ce-42f8-87c1-ab06d851d53f"
      },
      "relationship": {
        "coding": [ {
          "system": "http://terminology.hl7.org/CodeSystem/subscriber-relationship",
          "code": "self"
        } ]
      },
      "period": {
        "start": "1959-02-01T08:00:00.000+00:00"
      },
      "payor": [ {
        "reference": "Organization/c456261a-4083-446d-ae98-6c07281d016a"
      } ]
    },
    "request": {
      "method": "PUT",
      "url": "Coverage/c1ad81da-f22c-4946-a6c7-e9ab3222f933"
    }
  }, {
    "fullUrl": "https://madie.cms.gov/Procedure/ae26f864-f78e-431a-b35b-2a5aebd91f3e",
    "resource": {
      "resourceType": "Procedure",
      "id": "ae26f864-f78e-431a-b35b-2a5aebd91f3e",
      "meta": {
        "profile": [ "http://hl7.org/fhir/us/qicore/StructureDefinition/qicore-procedure" ]
      },
      "extension": [ {
        "url": "http://hl7.org/fhir/us/qicore/StructureDefinition/qicore-recorded",
        "valueDateTime": "2014-04-05T13:35:00.000+00:00"
      } ],
      "status": "completed",
      "code": {
        "coding": [ {
          "system": "http://snomed.info/sct",
          "code": "10745001"
        } ]
      },
      "subject": {
        "reference": "Patient/3d4b6868-31ce-42f8-87c1-ab06d851d53f"
      },
      "performedPeriod": {
        "start": "2026-01-01T08:00:00.000+00:00"
      }
    },
    "request": {
      "method": "PUT",
      "url": "Procedure/ae26f864-f78e-431a-b35b-2a5aebd91f3e"
    }
  }, {
    "fullUrl": "https://madie.cms.gov/Organization/c456261a-4083-446d-ae98-6c07281d016a",
    "resource": {
      "resourceType": "Organization",
      "id": "c456261a-4083-446d-ae98-6c07281d016a",
      "meta": {
        "profile": [ "http://hl7.org/fhir/us/qicore/StructureDefinition/qicore-organization" ]
      },
      "identifier": [ {
        "use": "temp",
        "system": "urn:oid:2.16.840.1.113883.4.4",
        "value": "21-3259825"
      } ],
      "active": true,
      "type": [ {
        "coding": [ {
          "system": "http://terminology.hl7.org/CodeSystem/organization-type",
          "code": "pay",
          "display": "Payer"
        } ]
      } ],
      "name": "Blue Cross Blue Shield of Texas",
      "telecom": [ {
        "system": "phone",
        "value": "(+1) 972-766-6900"
      } ],
      "address": [ {
        "use": "billing",
        "type": "postal",
        "line": [ "P.O. Box 660044" ],
        "city": "Dallas",
        "state": "TX",
        "postalCode": "75266-0044",
        "country": "USA"
      } ]
    },
    "request": {
      "method": "PUT",
      "url": "Organization/c456261a-4083-446d-ae98-6c07281d016a"
    }
  }, {
    "fullUrl": "https://madie.cms.gov/Practitioner/22483ec2-2301-4e9c-a38b-97b58dc4ebf5",
    "resource": {
      "resourceType": "Practitioner",
      "id": "22483ec2-2301-4e9c-a38b-97b58dc4ebf5",
      "meta": {
        "profile": [ "http://hl7.org/fhir/us/qicore/StructureDefinition/qicore-practitioner" ]
      },
      "identifier": [ {
        "system": "http://hl7.org/fhir/sid/us-npi",
        "value": "1234567890"
      } ],
      "name": [ {
        "family": "Evil",
        "prefix": [ "Dr" ]
      } ]
    },
    "request": {
      "method": "PUT",
      "url": "Practitioner/22483ec2-2301-4e9c-a38b-97b58dc4ebf5"
    }
  }, {
    "fullUrl": "https://madie.cms.gov/MeasureReport/609227f2-c0cc-4063-aab1-4f7e6be9bf44",
    "resource": {
      "resourceType": "MeasureReport",
      "id": "609227f2-c0cc-4063-aab1-4f7e6be9bf44",
      "meta": {
        "profile": [ "http://hl7.org/fhir/us/cqfmeasures/StructureDefinition/test-case-cqfm" ]
      },
      "contained": [ {
        "resourceType": "Parameters",
        "id": "f9441b12-ff0f-46a1-9c2d-ddd3b2fc6dcc-parameters",
        "parameter": [ {
          "name": "subject",
          "valueString": "3d4b6868-31ce-42f8-87c1-ab06d851d53f"
        } ]
      } ],
      "extension": [ {
        "url": "http://hl7.org/fhir/StructureDefinition/cqf-inputParameters",
        "valueReference": {
          "reference": "#f9441b12-ff0f-46a1-9c2d-ddd3b2fc6dcc-parameters"
        }
      }, {
        "url": "http://hl7.org/fhir/us/cqfmeasures/StructureDefinition/cqfm-testCaseDescription",
        "valueMarkdown": "Calculated EGA = 19 weeks and 6 days\n"
      } ],
      "modifierExtension": [ {
        "url": "http://hl7.org/fhir/us/cqfmeasures/StructureDefinition/cqfm-isTestCase",
        "valueBoolean": true
      } ],
      "status": "complete",
      "type": "individual",
      "measure": "https://madie.cms.gov/Measure/CMS1028FHIRPCSevereOBComps",
      "period": {
        "start": "2026-01-01",
        "end": "2026-12-31"
      },
      "group": [ {
        "id": "Group_1",
        "population": [ {
          "id": "InitialPopulation_1",
          "code": {
            "coding": [ {
              "system": "http://terminology.hl7.org/CodeSystem/measure-population",
              "code": "initial-population",
              "display": "Initial Population"
            } ]
          },
          "count": 1
        }, {
          "id": "Denominator_1",
          "code": {
            "coding": [ {
              "system": "http://terminology.hl7.org/CodeSystem/measure-population",
              "code": "denominator",
              "display": "Denominator"
            } ]
          },
          "count": 0
        }, {
          "id": "Numerator_1",
          "code": {
            "coding": [ {
              "system": "http://terminology.hl7.org/CodeSystem/measure-population",
              "code": "numerator",
              "display": "Numerator"
            } ]
          },
          "count": 0
        }, {
          "id": "NumeratorExclusion_1",
          "code": {
            "coding": [ {
              "system": "http://terminology.hl7.org/CodeSystem/measure-population",
              "code": "numerator-exclusion",
              "display": "Numerator Exclusion"
            } ]
          },
          "count": 0
        } ],
        "measureScore": {
          "value": 0.0
        }
      }, {
        "id": "Group_2",
        "population": [ {
          "id": "InitialPopulation_2",
          "code": {
            "coding": [ {
              "system": "http://terminology.hl7.org/CodeSystem/measure-population",
              "code": "initial-population",
              "display": "Initial Population"
            } ]
          },
          "count": 1
        }, {
          "id": "Denominator_2",
          "code": {
            "coding": [ {
              "system": "http://terminology.hl7.org/CodeSystem/measure-population",
              "code": "denominator",
              "display": "Denominator"
            } ]
          },
          "count": 0
        }, {
          "id": "Numerator_2",
          "code": {
            "coding": [ {
              "system": "http://terminology.hl7.org/CodeSystem/measure-population",
              "code": "numerator",
              "display": "Numerator"
            } ]
          },
          "count": 0
        }, {
          "id": "NumeratorExclusion_2",
          "code": {
            "coding": [ {
              "system": "http://terminology.hl7.org/CodeSystem/measure-population",
              "code": "numerator-exclusion",
              "display": "Numerator Exclusion"
            } ]
          },
          "count": 0
        } ],
        "measureScore": {
          "value": 0.0
        }
      } ],
      "evaluatedResource": [ {
        "reference": "Patient/3d4b6868-31ce-42f8-87c1-ab06d851d53f"
      }, {
        "reference": "Observation/95d2f0cf-744e-456c-b503-857ab726ab4c"
      }, {
        "reference": "Observation/7ddd1c10-be21-480e-aa28-08bdb2bdf9fc"
      }, {
        "reference": "Encounter/004a123b-0682-4063-b128-fd501712d72c"
      }, {
        "reference": "Coverage/c1ad81da-f22c-4946-a6c7-e9ab3222f933"
      }, {
        "reference": "Procedure/ae26f864-f78e-431a-b35b-2a5aebd91f3e"
      }, {
        "reference": "Organization/c456261a-4083-446d-ae98-6c07281d016a"
      }, {
        "reference": "Practitioner/22483ec2-2301-4e9c-a38b-97b58dc4ebf5"
      } ]
    },
    "request": {
      "method": "PUT",
      "url": "MeasureReport/609227f2-c0cc-4063-aab1-4f7e6be9bf44"
    }
  } ]
}