{
  "resourceType": "Bundle",
  "id": "60f82c2e98086b570510e273",
  "type": "transaction",
  "entry": [ {
    "fullUrl": "https://madie.cms.gov/Patient/3ae29ae5-1ae5-4eaf-ba7b-1e7b7780982a",
    "resource": {
      "resourceType": "Patient",
      "id": "3ae29ae5-1ae5-4eaf-ba7b-1e7b7780982a",
      "meta": {
        "profile": [ "http://hl7.org/fhir/us/qicore/StructureDefinition/qicore-patient" ]
      },
      "text": {
        "status": "generated",
        "div": "<div xmlns=\"http://www.w3.org/1999/xhtml\"><div class=\"hapiHeaderText\">PrincDxIschemicSTK <b>IPPPASS </b></div><table class=\"hapiPropertyTable\"><tbody><tr><td>Identifier</td><td>dc15ccbf61b2765eaaf76765161aee46</td></tr><tr><td>Date of birth</td><td><span>20 August 1994</span></td></tr></tbody></table></div>"
      },
      "extension": [ {
        "url": "http://hl7.org/fhir/us/core/StructureDefinition/us-core-race",
        "extension": [ {
          "url": "ombCategory",
          "valueCoding": {
            "system": "urn:oid:2.16.840.1.113883.6.238",
            "code": "1002-5",
            "display": "American Indian or Alaska Native",
            "userSelected": true
          }
        }, {
          "url": "text",
          "valueString": "American Indian or Alaska Native"
        } ]
      }, {
        "url": "http://hl7.org/fhir/us/core/StructureDefinition/us-core-ethnicity",
        "extension": [ {
          "url": "ombCategory",
          "valueCoding": {
            "system": "urn:oid:2.16.840.1.113883.6.238",
            "code": "2186-5",
            "display": "Not Hispanic or Latino",
            "userSelected": true
          }
        }, {
          "url": "text",
          "valueString": "Not Hispanic or Latino"
        } ]
      } ],
      "identifier": [ {
        "type": {
          "coding": [ {
            "system": "http://terminology.hl7.org/CodeSystem/v2-0203",
            "code": "MR"
          } ]
        },
        "system": "https://bonnie-fhir.healthit.gov/",
        "value": "60f82c2e98086b570510e273"
      } ],
      "active": true,
      "name": [ {
        "use": "usual",
        "family": "IPPPass",
        "given": [ "PrincDxIschemicSTK" ]
      } ],
      "gender": "male",
      "birthDate": "1995-08-20"
    },
    "request": {
      "method": "PUT",
      "url": "Patient/3ae29ae5-1ae5-4eaf-ba7b-1e7b7780982a"
    }
  }, {
    "fullUrl": "https://madie.cms.gov/Encounter/be641c84-c699-452b-b3e0-1eaf1e6ac7c8",
    "resource": {
      "resourceType": "Encounter",
      "id": "be641c84-c699-452b-b3e0-1eaf1e6ac7c8",
      "meta": {
        "profile": [ "http://hl7.org/fhir/us/qicore/StructureDefinition/qicore-encounter" ]
      },
      "status": "finished",
      "class": {
        "system": "http://terminology.hl7.org/CodeSystem/v3-ActCode",
        "code": "IMP",
        "display": "inpatient encounter"
      },
      "type": [ {
        "coding": [ {
          "system": "http://snomed.info/sct",
          "code": "32485007"
        } ]
      } ],
      "subject": {
        "reference": "Patient/3ae29ae5-1ae5-4eaf-ba7b-1e7b7780982a"
      },
      "period": {
        "start": "2026-08-21T00:00:00.000+00:00",
        "end": "2026-12-18T23:59:00.000+00:00"
      },
      "length": {
        "value": 119,
        "unit": "days"
      },
      "reasonReference": [ {
        "reference": "Condition/29a948a4-6231-4f53-bc36-4f068a95fa52"
      } ]
    },
    "request": {
      "method": "PUT",
      "url": "Encounter/be641c84-c699-452b-b3e0-1eaf1e6ac7c8"
    }
  }, {
    "fullUrl": "https://madie.cms.gov/Coverage/33d00a5d-f108-423a-ad6a-e64b4a9bcb72",
    "resource": {
      "resourceType": "Coverage",
      "id": "33d00a5d-f108-423a-ad6a-e64b4a9bcb72",
      "status": "active",
      "beneficiary": {
        "reference": "Patient/3ae29ae5-1ae5-4eaf-ba7b-1e7b7780982a"
      },
      "period": {
        "start": "1995-08-20T07:00:00.000+00:00"
      },
      "payor": [ {
        "reference": "Organization/8c7e5f21-ba6c-4196-994d-3c1c3ef078d2"
      } ]
    },
    "request": {
      "method": "PUT",
      "url": "Coverage/33d00a5d-f108-423a-ad6a-e64b4a9bcb72"
    }
  }, {
    "fullUrl": "https://madie.cms.gov/Condition/29a948a4-6231-4f53-bc36-4f068a95fa52",
    "resource": {
      "resourceType": "Condition",
      "id": "29a948a4-6231-4f53-bc36-4f068a95fa52",
      "meta": {
        "profile": [ "http://hl7.org/fhir/us/qicore/StructureDefinition/qicore-condition-encounter-diagnosis" ]
      },
      "clinicalStatus": {
        "coding": [ {
          "system": "http://terminology.hl7.org/CodeSystem/condition-clinical",
          "code": "active"
        } ]
      },
      "verificationStatus": {
        "coding": [ {
          "system": "http://terminology.hl7.org/CodeSystem/condition-ver-status",
          "code": "confirmed"
        } ]
      },
      "category": [ {
        "coding": [ {
          "system": "http://terminology.hl7.org/CodeSystem/condition-category",
          "code": "encounter-diagnosis",
          "display": "Encounter Diagnosis"
        } ]
      } ],
      "code": {
        "coding": [ {
          "system": "http://snomed.info/sct",
          "version": "2020-09",
          "code": "111297002",
          "display": "Nonparalytic stroke (disorder)",
          "userSelected": true
        } ]
      },
      "subject": {
        "reference": "Patient/3ae29ae5-1ae5-4eaf-ba7b-1e7b7780982a"
      },
      "encounter": {
        "reference": "Encounter/be641c84-c699-452b-b3e0-1eaf1e6ac7c8"
      },
      "recordedDate": "2026-08-16T08:00:00.000+00:00"
    },
    "request": {
      "method": "PUT",
      "url": "Condition/29a948a4-6231-4f53-bc36-4f068a95fa52"
    }
  }, {
    "fullUrl": "https://madie.cms.gov/claim/5ca62962b8484628b8de1ec5",
    "resource": {
      "resourceType": "Claim",
      "id": "5ca62962b8484628b8de1ec5",
      "meta": {
        "profile": [ "http://hl7.org/fhir/us/qicore/StructureDefinition/qicore-claim" ]
      },
      "status": "active",
      "type": {
        "coding": [ {
          "system": "http://terminology.hl7.org/CodeSystem/claim-type",
          "code": "institutional"
        } ]
      },
      "use": "claim",
      "patient": {
        "reference": "Patient/3ae29ae5-1ae5-4eaf-ba7b-1e7b7780982a"
      },
      "created": "2026-12-01",
      "provider": {
        "reference": "Practitioner/0b404733-716e-40af-8987-6488a5809859"
      },
      "priority": {
        "coding": [ {
          "system": "http://terminology.hl7.org/CodeSystem/processpriority",
          "code": "normal"
        } ]
      },
      "diagnosis": [ {
        "sequence": 1,
        "diagnosisCodeableConcept": {
          "coding": [ {
            "system": "http://hl7.org/fhir/sid/icd-10-cm",
            "code": "I63.00"
          } ]
        },
        "type": [ {
          "coding": [ {
            "system": "http://terminology.hl7.org/CodeSystem/ex-diagnosistype",
            "code": "principal"
          } ]
        } ]
      } ],
      "insurance": [ {
        "sequence": 1,
        "focal": true,
        "coverage": {
          "reference": "Coverage/5fa041661c76ba66d9959367"
        }
      } ],
      "item": [ {
        "sequence": 1,
        "diagnosisSequence": [ 1 ],
        "productOrService": {
          "coding": [ {
            "system": "http://terminology.hl7.org/CodeSystem/ex-USCLS",
            "code": "99555"
          } ]
        },
        "encounter": [ {
          "reference": "Encounter/be641c84-c699-452b-b3e0-1eaf1e6ac7c8"
        } ]
      } ]
    },
    "request": {
      "method": "PUT",
      "url": "Claim/5ca62962b8484628b8de1ec5"
    }
  }, {
    "fullUrl": "https://madie.cms.gov/Organization/8c7e5f21-ba6c-4196-994d-3c1c3ef078d2",
    "resource": {
      "resourceType": "Organization",
      "id": "8c7e5f21-ba6c-4196-994d-3c1c3ef078d2",
      "meta": {
        "profile": [ "http://hl7.org/fhir/us/qicore/StructureDefinition/qicore-organization" ]
      },
      "identifier": [ {
        "use": "temp",
        "system": "urn:oid:2.16.840.1.113883.4.4",
        "value": "21-3259825"
      } ],
      "active": true,
      "type": [ {
        "coding": [ {
          "system": "http://terminology.hl7.org/CodeSystem/organization-type",
          "code": "pay",
          "display": "Payer"
        } ]
      } ],
      "name": "Blue Cross Blue Shield of Texas",
      "telecom": [ {
        "system": "phone",
        "value": "(+1) 972-766-6900"
      } ],
      "address": [ {
        "use": "billing",
        "type": "postal",
        "line": [ "P.O. Box 660044" ],
        "city": "Dallas",
        "state": "TX",
        "postalCode": "75266-0044",
        "country": "USA"
      } ]
    },
    "request": {
      "method": "PUT",
      "url": "Organization/8c7e5f21-ba6c-4196-994d-3c1c3ef078d2"
    }
  }, {
    "fullUrl": "https://madie.cms.gov/Practitioner/0b404733-716e-40af-8987-6488a5809859",
    "resource": {
      "resourceType": "Practitioner",
      "id": "0b404733-716e-40af-8987-6488a5809859",
      "identifier": [ {
        "system": "http://hl7.org/fhir/sid/us-npi",
        "value": "123456"
      } ],
      "name": [ {
        "family": "Evil",
        "prefix": [ "Dr" ]
      } ]
    },
    "request": {
      "method": "PUT",
      "url": "Practitioner/0b404733-716e-40af-8987-6488a5809859"
    }
  }, {
    "fullUrl": "https://madie.cms.gov/MeasureReport/a9e26902-18e0-4033-b98b-a32245b48bb3",
    "resource": {
      "resourceType": "MeasureReport",
      "id": "a9e26902-18e0-4033-b98b-a32245b48bb3",
      "meta": {
        "profile": [ "http://hl7.org/fhir/us/cqfmeasures/StructureDefinition/test-case-cqfm" ]
      },
      "contained": [ {
        "resourceType": "Parameters",
        "id": "48f95233-3c27-4ee8-af0c-4dec1682ce19-parameters",
        "parameter": [ {
          "name": "subject",
          "valueString": "3ae29ae5-1ae5-4eaf-ba7b-1e7b7780982a"
        } ]
      } ],
      "extension": [ {
        "url": "http://hl7.org/fhir/StructureDefinition/cqf-inputParameters",
        "valueReference": {
          "reference": "#48f95233-3c27-4ee8-af0c-4dec1682ce19-parameters"
        }
      }, {
        "url": "http://hl7.org/fhir/us/cqfmeasures/StructureDefinition/cqfm-testCaseDescription",
        "valueMarkdown": "EncPrinDx=IschemicStroke LOS<120\n"
      } ],
      "modifierExtension": [ {
        "url": "http://hl7.org/fhir/us/cqfmeasures/StructureDefinition/cqfm-isTestCase",
        "valueBoolean": true
      } ],
      "status": "complete",
      "type": "individual",
      "measure": "https://madie.cms.gov/Measure/CMS72FHIRSTKAntithromboticDay2",
      "period": {
        "start": "2026-01-01",
        "end": "2026-12-31"
      },
      "group": [ {
        "id": "Group_1",
        "population": [ {
          "id": "InitialPopulation_1",
          "code": {
            "coding": [ {
              "system": "http://terminology.hl7.org/CodeSystem/measure-population",
              "code": "initial-population",
              "display": "Initial Population"
            } ]
          },
          "count": 1
        }, {
          "id": "Denominator_1",
          "code": {
            "coding": [ {
              "system": "http://terminology.hl7.org/CodeSystem/measure-population",
              "code": "denominator",
              "display": "Denominator"
            } ]
          },
          "count": 1
        }, {
          "id": "DenominatorExclusion_1",
          "code": {
            "coding": [ {
              "system": "http://terminology.hl7.org/CodeSystem/measure-population",
              "code": "denominator-exclusion",
              "display": "Denominator Exclusion"
            } ]
          },
          "count": 0
        }, {
          "id": "Numerator_1",
          "code": {
            "coding": [ {
              "system": "http://terminology.hl7.org/CodeSystem/measure-population",
              "code": "numerator",
              "display": "Numerator"
            } ]
          },
          "count": 0
        }, {
          "id": "DenominatorException_1",
          "code": {
            "coding": [ {
              "system": "http://terminology.hl7.org/CodeSystem/measure-population",
              "code": "denominator-exception",
              "display": "Denominator Exception"
            } ]
          },
          "count": 0
        } ],
        "measureScore": {
          "value": 0.0
        }
      } ],
      "evaluatedResource": [ {
        "reference": "Patient/3ae29ae5-1ae5-4eaf-ba7b-1e7b7780982a"
      }, {
        "reference": "Encounter/be641c84-c699-452b-b3e0-1eaf1e6ac7c8"
      }, {
        "reference": "Coverage/33d00a5d-f108-423a-ad6a-e64b4a9bcb72"
      }, {
        "reference": "Condition/29a948a4-6231-4f53-bc36-4f068a95fa52"
      }, {
        "reference": "Claim/5ca62962b8484628b8de1ec5"
      }, {
        "reference": "Organization/8c7e5f21-ba6c-4196-994d-3c1c3ef078d2"
      }, {
        "reference": "Practitioner/0b404733-716e-40af-8987-6488a5809859"
      } ]
    },
    "request": {
      "method": "PUT",
      "url": "MeasureReport/a9e26902-18e0-4033-b98b-a32245b48bb3"
    }
  } ]
}