{
  "resourceType": "Bundle",
  "id": "64946e59d09ece2c2e9bf94b",
  "type": "collection",
  "entry": [ {
    "fullUrl": "https://madie.cms.gov/Patient/5689101e-6489-4ad5-86ba-4c3261a36a58",
    "resource": {
      "resourceType": "Patient",
      "id": "5689101e-6489-4ad5-86ba-4c3261a36a58",
      "meta": {
        "profile": [ "http://hl7.org/fhir/us/qicore/StructureDefinition/qicore-patient" ]
      },
      "extension": [ {
        "url": "http://hl7.org/fhir/us/core/StructureDefinition/us-core-race",
        "extension": [ {
          "url": "ombCategory",
          "valueCoding": {
            "system": "urn:oid:2.16.840.1.113883.6.238",
            "code": "2076-8",
            "display": "Native Hawaiian or Other Pacific Islander",
            "userSelected": true
          }
        }, {
          "url": "text",
          "valueString": "Native Hawaiian or Other Pacific Islander"
        } ]
      }, {
        "url": "http://hl7.org/fhir/us/core/StructureDefinition/us-core-ethnicity",
        "extension": [ {
          "url": "ombCategory",
          "valueCoding": {
            "system": "urn:oid:2.16.840.1.113883.6.238",
            "code": "2186-5",
            "display": "Not Hispanic or Latino",
            "userSelected": true
          }
        }, {
          "url": "text",
          "valueString": "Not Hispanic or Latino"
        } ]
      } ],
      "identifier": [ {
        "type": {
          "coding": [ {
            "system": "http://terminology.hl7.org/CodeSystem/v2-0203",
            "code": "MR"
          } ]
        },
        "system": "https://bonnie-fhir.healthit.gov/",
        "value": "64946e59d09ece2c2e9bf94b"
      } ],
      "name": [ {
        "family": "18IPFail",
        "given": [ "NoHIVDiagnosis" ]
      } ],
      "gender": "female",
      "birthDate": "1975-08-07"
    }
  }, {
    "fullUrl": "https://madie.cms.gov/Coverage/b9ec2b34-ef3b-49d7-bf9d-aff0313ddce5",
    "resource": {
      "resourceType": "Coverage",
      "id": "b9ec2b34-ef3b-49d7-bf9d-aff0313ddce5",
      "meta": {
        "profile": [ "http://hl7.org/fhir/us/qicore/StructureDefinition/qicore-coverage" ]
      },
      "status": "active",
      "subscriberId": "123456",
      "beneficiary": {
        "reference": "Patient/5689101e-6489-4ad5-86ba-4c3261a36a58"
      },
      "relationship": {
        "coding": [ {
          "system": "http://terminology.hl7.org/CodeSystem/subscriber-relationship",
          "code": "self",
          "display": "Self"
        } ]
      },
      "payor": [ {
        "reference": "Organization/7cfc8a44-2145-4d62-a9d5-980714df4456"
      } ]
    }
  }, {
    "fullUrl": "https://madie.cms.gov/Organization/7cfc8a44-2145-4d62-a9d5-980714df4456",
    "resource": {
      "resourceType": "Organization",
      "id": "7cfc8a44-2145-4d62-a9d5-980714df4456",
      "meta": {
        "profile": [ "http://hl7.org/fhir/us/qicore/StructureDefinition/qicore-organization" ]
      },
      "identifier": [ {
        "use": "temp",
        "system": "urn:oid:2.16.840.1.113883.4.4",
        "value": "21-3259825"
      } ],
      "active": true,
      "type": [ {
        "coding": [ {
          "system": "http://terminology.hl7.org/CodeSystem/organization-type",
          "code": "pay",
          "display": "Payer"
        } ]
      } ],
      "name": "Blue Cross Blue Shield of Texas",
      "telecom": [ {
        "system": "phone",
        "value": "(+1) 972-766-6900"
      } ],
      "address": [ {
        "use": "billing",
        "type": "postal",
        "line": [ "P.O. Box 660044" ],
        "city": "Dallas",
        "state": "TX",
        "postalCode": "75266-0044",
        "country": "USA"
      } ]
    }
  }, {
    "fullUrl": "https://madie.cms.gov/Practitioner/ab688be0-a117-448e-bc70-c0da9c0999aa",
    "resource": {
      "resourceType": "Practitioner",
      "id": "ab688be0-a117-448e-bc70-c0da9c0999aa",
      "meta": {
        "profile": [ "http://hl7.org/fhir/us/qicore/StructureDefinition/qicore-practitioner" ]
      },
      "identifier": [ {
        "system": "http://hl7.org/fhir/sid/us-npi",
        "value": "1689411712"
      } ],
      "name": [ {
        "family": "Evil",
        "prefix": [ "Dr" ]
      } ]
    }
  }, {
    "fullUrl": "https://madie.cms.gov/MeasureReport/b6d061aa-9f15-497b-b4f7-ef6331029d79",
    "resource": {
      "resourceType": "MeasureReport",
      "id": "b6d061aa-9f15-497b-b4f7-ef6331029d79",
      "meta": {
        "profile": [ "http://hl7.org/fhir/us/cqfmeasures/StructureDefinition/test-case-cqfm" ]
      },
      "contained": [ {
        "resourceType": "Parameters",
        "id": "98f9bd25-baf4-4cf5-a315-d03760170dbe-parameters",
        "parameter": [ {
          "name": "subject",
          "valueString": "5689101e-6489-4ad5-86ba-4c3261a36a58"
        } ]
      } ],
      "extension": [ {
        "url": "http://hl7.org/fhir/StructureDefinition/cqf-inputParameters",
        "valueReference": {
          "reference": "#98f9bd25-baf4-4cf5-a315-d03760170dbe-parameters"
        }
      }, {
        "url": "http://hl7.org/fhir/us/cqfmeasures/StructureDefinition/cqfm-testCaseDescription",
        "valueMarkdown": "Patient does not have an HIV diagnosis."
      } ],
      "modifierExtension": [ {
        "url": "http://hl7.org/fhir/us/cqfmeasures/StructureDefinition/cqfm-isTestCase",
        "valueBoolean": true
      } ],
      "status": "complete",
      "type": "individual",
      "measure": "https://madie.cms.gov/Measure/CMS1157FHIRHIVRetention",
      "period": {
        "start": "2026-01-01",
        "end": "2026-12-31"
      },
      "group": [ {
        "id": "Group_1",
        "population": [ {
          "id": "InitialPopulation_1",
          "code": {
            "coding": [ {
              "system": "http://terminology.hl7.org/CodeSystem/measure-population",
              "code": "initial-population",
              "display": "Initial Population"
            } ]
          },
          "count": 0
        }, {
          "id": "Denominator_1",
          "code": {
            "coding": [ {
              "system": "http://terminology.hl7.org/CodeSystem/measure-population",
              "code": "denominator",
              "display": "Denominator"
            } ]
          },
          "count": 0
        }, {
          "id": "Numerator_1",
          "code": {
            "coding": [ {
              "system": "http://terminology.hl7.org/CodeSystem/measure-population",
              "code": "numerator",
              "display": "Numerator"
            } ]
          },
          "count": 0
        } ],
        "measureScore": {
          "value": 1.0
        }
      } ],
      "evaluatedResource": [ {
        "reference": "Patient/5689101e-6489-4ad5-86ba-4c3261a36a58"
      }, {
        "reference": "Coverage/b9ec2b34-ef3b-49d7-bf9d-aff0313ddce5"
      }, {
        "reference": "Organization/7cfc8a44-2145-4d62-a9d5-980714df4456"
      }, {
        "reference": "Practitioner/ab688be0-a117-448e-bc70-c0da9c0999aa"
      } ]
    }
  } ]
}