{
  "resourceType": "Bundle",
  "id": "Patient-20-DENEXPass-HospiceObsIsYes",
  "type": "transaction",
  "entry": [ {
    "fullUrl": "https://madie.cms.gov/Patient/96cfe7f0-b4e1-4e2e-a48d-ef64fb64343d",
    "resource": {
      "resourceType": "Patient",
      "id": "96cfe7f0-b4e1-4e2e-a48d-ef64fb64343d",
      "meta": {
        "profile": [ "http://hl7.org/fhir/us/qicore/StructureDefinition/qicore-patient" ]
      },
      "extension": [ {
        "url": "http://hl7.org/fhir/us/core/StructureDefinition/us-core-race",
        "extension": [ {
          "url": "ombCategory",
          "valueCoding": {
            "system": "urn:oid:2.16.840.1.113883.6.238",
            "code": "2028-9",
            "display": "Asian"
          }
        }, {
          "url": "text",
          "valueString": "Asian"
        } ]
      }, {
        "url": "http://hl7.org/fhir/us/core/StructureDefinition/us-core-ethnicity",
        "extension": [ {
          "url": "ombCategory",
          "valueCoding": {
            "system": "urn:oid:2.16.840.1.113883.6.238",
            "code": "2135-2",
            "display": "Hispanic or Latino"
          }
        }, {
          "url": "text",
          "valueString": "Hispanic or Latino"
        } ]
      } ],
      "identifier": [ {
        "system": "http://hospital.smarthealthit.org",
        "value": "999999995"
      } ],
      "name": [ {
        "family": "Bertha",
        "given": [ "Betty" ]
      } ],
      "gender": "female",
      "birthDate": "2007-01-01"
    },
    "request": {
      "method": "PUT",
      "url": "Patient/96cfe7f0-b4e1-4e2e-a48d-ef64fb64343d"
    }
  }, {
    "fullUrl": "https://madie.cms.gov/Encounter/d8a9a7f1-0e26-4269-99b6-7c89f0ba713e",
    "resource": {
      "resourceType": "Encounter",
      "id": "d8a9a7f1-0e26-4269-99b6-7c89f0ba713e",
      "meta": {
        "profile": [ "http://hl7.org/fhir/us/qicore/StructureDefinition/qicore-encounter" ]
      },
      "status": "finished",
      "class": {
        "system": "http://terminology.hl7.org/CodeSystem/v3-ActCode",
        "code": "AMB",
        "display": "ambulatory"
      },
      "type": [ {
        "coding": [ {
          "system": "http://snomed.info/sct",
          "code": "185460008",
          "display": "Home visit request by patient (procedure)"
        } ]
      } ],
      "subject": {
        "reference": "Patient/96cfe7f0-b4e1-4e2e-a48d-ef64fb64343d"
      },
      "period": {
        "start": "2026-01-01T00:00:00.000+00:00",
        "end": "2026-01-01T00:15:00.000+00:00"
      }
    },
    "request": {
      "method": "PUT",
      "url": "Encounter/d8a9a7f1-0e26-4269-99b6-7c89f0ba713e"
    }
  }, {
    "fullUrl": "https://madie.cms.gov/Condition/6d2c591b-0511-4839-8362-942c8cbd73cf",
    "resource": {
      "resourceType": "Condition",
      "id": "6d2c591b-0511-4839-8362-942c8cbd73cf",
      "meta": {
        "profile": [ "http://hl7.org/fhir/us/qicore/StructureDefinition/qicore-condition-encounter-diagnosis" ]
      },
      "clinicalStatus": {
        "coding": [ {
          "system": "http://terminology.hl7.org/CodeSystem/condition-clinical",
          "code": "active"
        } ]
      },
      "category": [ {
        "coding": [ {
          "system": "http://terminology.hl7.org/CodeSystem/condition-category",
          "code": "encounter-diagnosis",
          "display": "Encounter Diagnosis"
        } ]
      } ],
      "code": {
        "coding": [ {
          "system": "http://snomed.info/sct",
          "code": "102781000119107",
          "display": "Sensory neuropathy due to type 1 diabetes mellitus (disorder)"
        } ]
      },
      "subject": {
        "reference": "Patient/96cfe7f0-b4e1-4e2e-a48d-ef64fb64343d"
      },
      "onsetDateTime": "2026-01-01T23:59:00.000+00:00"
    },
    "request": {
      "method": "PUT",
      "url": "Condition/6d2c591b-0511-4839-8362-942c8cbd73cf"
    }
  }, {
    "fullUrl": "https://madie.cms.gov/Observation/207dce27-ade8-4174-b655-7b45add15886",
    "resource": {
      "resourceType": "Observation",
      "id": "207dce27-ade8-4174-b655-7b45add15886",
      "meta": {
        "profile": [ "http://hl7.org/fhir/us/qicore/StructureDefinition/qicore-observation-screening-assessment" ]
      },
      "status": "final",
      "category": [ {
        "coding": [ {
          "system": "http://terminology.hl7.org/CodeSystem/observation-category",
          "code": "survey"
        } ]
      } ],
      "code": {
        "coding": [ {
          "system": "http://loinc.org",
          "code": "45755-6",
          "display": "Hospice care [Minimum Data Set]"
        } ]
      },
      "subject": {
        "reference": "Patient/96cfe7f0-b4e1-4e2e-a48d-ef64fb64343d"
      },
      "effectivePeriod": {
        "start": "2024-12-31T00:00:00.000+00:00",
        "end": "2026-01-01T00:00:00.000+00:00"
      },
      "valueCodeableConcept": {
        "coding": [ {
          "system": "http://snomed.info/sct",
          "code": "373066001",
          "display": "Yes (qualifier value)"
        } ]
      }
    },
    "request": {
      "method": "PUT",
      "url": "Observation/207dce27-ade8-4174-b655-7b45add15886"
    }
  }, {
    "fullUrl": "https://madie.cms.gov/MeasureReport/7cb09dcc-72e5-4c62-8637-92c1002e717f",
    "resource": {
      "resourceType": "MeasureReport",
      "id": "7cb09dcc-72e5-4c62-8637-92c1002e717f",
      "meta": {
        "profile": [ "http://hl7.org/fhir/us/cqfmeasures/StructureDefinition/test-case-cqfm" ]
      },
      "contained": [ {
        "resourceType": "Parameters",
        "id": "2c15b7f6-9693-48de-a06c-13249987ac46-parameters",
        "parameter": [ {
          "name": "subject",
          "valueString": "96cfe7f0-b4e1-4e2e-a48d-ef64fb64343d"
        } ]
      } ],
      "extension": [ {
        "url": "http://hl7.org/fhir/StructureDefinition/cqf-inputParameters",
        "valueReference": {
          "reference": "#2c15b7f6-9693-48de-a06c-13249987ac46-parameters"
        }
      }, {
        "url": "http://hl7.org/fhir/us/cqfmeasures/StructureDefinition/cqfm-testCaseDescription",
        "valueMarkdown": "Hospice observation is yes"
      } ],
      "modifierExtension": [ {
        "url": "http://hl7.org/fhir/us/cqfmeasures/StructureDefinition/cqfm-isTestCase",
        "valueBoolean": true
      } ],
      "status": "complete",
      "type": "individual",
      "measure": "https://madie.cms.gov/Measure/CMS122FHIRDiabetesAssessGT9Pct",
      "period": {
        "start": "2026-01-01",
        "end": "2026-12-31"
      },
      "group": [ {
        "id": "Group_1",
        "population": [ {
          "id": "InitialPopulation_1",
          "code": {
            "coding": [ {
              "system": "http://terminology.hl7.org/CodeSystem/measure-population",
              "code": "initial-population",
              "display": "Initial Population"
            } ]
          },
          "count": 1
        }, {
          "id": "Denominator_1",
          "code": {
            "coding": [ {
              "system": "http://terminology.hl7.org/CodeSystem/measure-population",
              "code": "denominator",
              "display": "Denominator"
            } ]
          },
          "count": 1
        }, {
          "id": "DenominatorExclusion_1",
          "code": {
            "coding": [ {
              "system": "http://terminology.hl7.org/CodeSystem/measure-population",
              "code": "denominator-exclusion",
              "display": "Denominator Exclusion"
            } ]
          },
          "count": 1
        }, {
          "id": "Numerator_1",
          "code": {
            "coding": [ {
              "system": "http://terminology.hl7.org/CodeSystem/measure-population",
              "code": "numerator",
              "display": "Numerator"
            } ]
          },
          "count": 0
        } ],
        "measureScore": {
          "value": 1.0
        }
      } ],
      "evaluatedResource": [ {
        "reference": "Patient/96cfe7f0-b4e1-4e2e-a48d-ef64fb64343d"
      }, {
        "reference": "Encounter/d8a9a7f1-0e26-4269-99b6-7c89f0ba713e"
      }, {
        "reference": "Condition/6d2c591b-0511-4839-8362-942c8cbd73cf"
      }, {
        "reference": "Observation/207dce27-ade8-4174-b655-7b45add15886"
      } ]
    },
    "request": {
      "method": "PUT",
      "url": "MeasureReport/7cb09dcc-72e5-4c62-8637-92c1002e717f"
    }
  } ]
}