{
  "resourceType": "Bundle",
  "id": "661476b015ed5841a5547ebf",
  "type": "transaction",
  "entry": [ {
    "fullUrl": "https://madie.cms.gov/Patient/dfd5dc6b-3299-4e4f-ae02-45f251e1f75b",
    "resource": {
      "resourceType": "Patient",
      "id": "dfd5dc6b-3299-4e4f-ae02-45f251e1f75b",
      "meta": {
        "profile": [ "http://hl7.org/fhir/us/qicore/StructureDefinition/qicore-patient" ]
      },
      "extension": [ {
        "url": "http://hl7.org/fhir/us/core/StructureDefinition/us-core-race",
        "extension": [ {
          "url": "ombCategory",
          "valueCoding": {
            "system": "urn:oid:2.16.840.1.113883.6.238",
            "code": "1002-5",
            "display": "American Indian or Alaska Native",
            "userSelected": true
          }
        }, {
          "url": "text",
          "valueString": "American Indian or Alaska Native"
        } ]
      }, {
        "url": "http://hl7.org/fhir/us/core/StructureDefinition/us-core-ethnicity",
        "extension": [ {
          "url": "ombCategory",
          "valueCoding": {
            "system": "urn:oid:2.16.840.1.113883.6.238",
            "code": "2135-2",
            "display": "Hispanic or Latino",
            "userSelected": true
          }
        }, {
          "url": "text",
          "valueString": "Hispanic or Latino"
        } ]
      }, {
        "url": "http://hl7.org/fhir/us/core/StructureDefinition/us-core-sex",
        "valueCode": "248153007"
      } ],
      "identifier": [ {
        "type": {
          "coding": [ {
            "system": "http://terminology.hl7.org/CodeSystem/v2-0203",
            "code": "MR"
          } ]
        },
        "system": "https://bonnie-fhir.healthit.gov/",
        "value": "661476b015ed5841a5547ebf"
      } ],
      "name": [ {
        "family": "NUMEXStrat4Pass",
        "given": [ "EDOBSOrderBoarded" ]
      } ],
      "gender": "male",
      "birthDate": "2009-01-01"
    },
    "request": {
      "method": "PUT",
      "url": "Patient/dfd5dc6b-3299-4e4f-ae02-45f251e1f75b"
    }
  }, {
    "fullUrl": "https://madie.cms.gov/Encounter/600e9913-9ea2-4753-bf46-ef950d5e58a4",
    "resource": {
      "resourceType": "Encounter",
      "id": "600e9913-9ea2-4753-bf46-ef950d5e58a4",
      "meta": {
        "profile": [ "http://hl7.org/fhir/us/qicore/StructureDefinition/qicore-encounter" ]
      },
      "status": "finished",
      "class": {
        "system": "http://terminology.hl7.org/CodeSystem/v3-ActCode",
        "code": "EMER",
        "display": "emergency department"
      },
      "type": [ {
        "coding": [ {
          "system": "http://snomed.info/sct",
          "version": "2023-09",
          "code": "4525004",
          "display": "Emergency department patient visit (procedure)",
          "userSelected": true
        } ]
      } ],
      "subject": {
        "reference": "Patient/dfd5dc6b-3299-4e4f-ae02-45f251e1f75b"
      },
      "period": {
        "start": "2027-05-01T00:00:00.000+00:00",
        "end": "2027-05-01T06:00:00.000+00:00"
      },
      "diagnosis": [ {
        "condition": {
          "reference": "Condition/16ecd5b1-d2ef-4aa7-95fd-4569d7a945a2"
        },
        "use": {
          "coding": [ {
            "system": "http://terminology.hl7.org/CodeSystem/diagnosis-role",
            "code": "billing"
          } ]
        },
        "rank": 1
      } ],
      "location": [ {
        "location": {
          "reference": "Location/6768e6ec-5440-4d01-bc8a-a456945315d4"
        },
        "period": {
          "start": "2027-05-01T00:00:00.000+00:00",
          "end": "2027-05-01T06:01:00.000+00:00"
        }
      } ]
    },
    "request": {
      "method": "PUT",
      "url": "Encounter/600e9913-9ea2-4753-bf46-ef950d5e58a4"
    }
  }, {
    "fullUrl": "https://madie.cms.gov/ServiceRequest/22fa4c64-489d-40d8-b2a2-dc22a0bb37fc",
    "resource": {
      "resourceType": "ServiceRequest",
      "id": "22fa4c64-489d-40d8-b2a2-dc22a0bb37fc",
      "meta": {
        "profile": [ "http://hl7.org/fhir/us/qicore/StructureDefinition/qicore-servicerequest" ]
      },
      "status": "completed",
      "intent": "order",
      "code": {
        "coding": [ {
          "system": "http://snomed.info/sct",
          "code": "19712007",
          "display": "Patient transfer, to another health care facility (procedure)",
          "userSelected": true
        } ]
      },
      "subject": {
        "reference": "Patient/dfd5dc6b-3299-4e4f-ae02-45f251e1f75b"
      },
      "authoredOn": "2027-05-01T02:00:00.000+00:00"
    },
    "request": {
      "method": "PUT",
      "url": "ServiceRequest/22fa4c64-489d-40d8-b2a2-dc22a0bb37fc"
    }
  }, {
    "fullUrl": "https://madie.cms.gov/Location/6768e6ec-5440-4d01-bc8a-a456945315d4",
    "resource": {
      "resourceType": "Location",
      "id": "6768e6ec-5440-4d01-bc8a-a456945315d4",
      "meta": {
        "profile": [ "http://hl7.org/fhir/us/qicore/StructureDefinition/qicore-location" ]
      },
      "identifier": [ {
        "use": "usual",
        "system": "http://exampleoflocation.com",
        "value": "B1-S.F2"
      } ],
      "name": "Emergency Department",
      "type": [ {
        "coding": [ {
          "system": "https://www.cdc.gov/nhsn/cdaportal/terminology/codesystem/hsloc.html",
          "version": "2022",
          "code": "1108-0",
          "display": "Emergency Department",
          "userSelected": true
        } ]
      } ]
    },
    "request": {
      "method": "PUT",
      "url": "Location/6768e6ec-5440-4d01-bc8a-a456945315d4"
    }
  }, {
    "fullUrl": "https://madie.cms.gov/claim/ClaimBehavior-NotSubsAbuse",
    "resource": {
      "resourceType": "Claim",
      "id": "ClaimBehavior-NotSubsAbuse",
      "meta": {
        "profile": [ "http://hl7.org/fhir/us/qicore/StructureDefinition/qicore-claim" ]
      },
      "status": "active",
      "type": {
        "coding": [ {
          "system": "http://terminology.hl7.org/CodeSystem/claim-type",
          "code": "institutional"
        } ]
      },
      "use": "claim",
      "patient": {
        "reference": "Patient/dfd5dc6b-3299-4e4f-ae02-45f251e1f75b"
      },
      "created": "2027-05-01",
      "provider": {
        "reference": "Practitioner/practitioner-123456"
      },
      "priority": {
        "coding": [ {
          "system": "http://terminology.hl7.org/CodeSystem/processpriority",
          "code": "normal"
        } ]
      },
      "diagnosis": [ {
        "sequence": 1,
        "diagnosisReference": {
          "reference": "Condition/16ecd5b1-d2ef-4aa7-95fd-4569d7a945a2"
        },
        "type": [ {
          "coding": [ {
            "system": "http://terminology.hl7.org/CodeSystem/ex-diagnosistype",
            "code": "principal"
          } ]
        } ]
      } ],
      "insurance": [ {
        "sequence": 1,
        "focal": true,
        "coverage": {
          "reference": "Coverage/2f5552ee-6fea-4e3c-8d21-43b03d474dcb"
        }
      } ],
      "item": [ {
        "sequence": 1,
        "diagnosisSequence": [ 1 ],
        "productOrService": {
          "coding": [ {
            "system": "http://terminology.hl7.org/CodeSystem/ex-USCLS",
            "code": "99555"
          } ]
        },
        "encounter": [ {
          "reference": "Encounter/600e9913-9ea2-4753-bf46-ef950d5e58a4"
        } ]
      } ]
    },
    "request": {
      "method": "PUT",
      "url": "Claim/ClaimBehavior-NotSubsAbuse"
    }
  }, {
    "fullUrl": "https://madie.cms.gov/Condition/16ecd5b1-d2ef-4aa7-95fd-4569d7a945a2",
    "resource": {
      "resourceType": "Condition",
      "id": "16ecd5b1-d2ef-4aa7-95fd-4569d7a945a2",
      "meta": {
        "profile": [ "http://hl7.org/fhir/us/qicore/StructureDefinition/qicore-condition-encounter-diagnosis" ]
      },
      "category": [ {
        "coding": [ {
          "system": "http://terminology.hl7.org/CodeSystem/condition-category",
          "code": "encounter-diagnosis",
          "display": "Encounter Diagnosis"
        } ]
      } ],
      "code": {
        "coding": [ {
          "system": "http://snomed.info/sct",
          "version": "2023-09",
          "code": "66344007",
          "display": "Recurrent major depression (disorder)",
          "userSelected": true
        } ]
      },
      "subject": {
        "reference": "Patient/dfd5dc6b-3299-4e4f-ae02-45f251e1f75b"
      },
      "recordedDate": "2026-04-18T08:00:00.000+00:00"
    },
    "request": {
      "method": "PUT",
      "url": "Condition/16ecd5b1-d2ef-4aa7-95fd-4569d7a945a2"
    }
  }, {
    "fullUrl": "https://madie.cms.gov/Coverage/2f5552ee-6fea-4e3c-8d21-43b03d474dcb",
    "resource": {
      "resourceType": "Coverage",
      "id": "2f5552ee-6fea-4e3c-8d21-43b03d474dcb",
      "meta": {
        "profile": [ "http://hl7.org/fhir/us/qicore/StructureDefinition/qicore-coverage" ]
      },
      "identifier": [ {
        "type": {
          "coding": [ {
            "system": "http://terminology.hl7.org/CodeSystem/v2-0203",
            "code": "MB"
          } ]
        }
      } ],
      "status": "active",
      "beneficiary": {
        "reference": "Patient/dfd5dc6b-3299-4e4f-ae02-45f251e1f75b"
      },
      "relationship": {
        "coding": [ {
          "system": "http://terminology.hl7.org/CodeSystem/subscriber-relationship",
          "code": "self"
        } ]
      },
      "payor": [ {
        "reference": "Organization/8efe658a-bc43-4877-a42b-97bee0402304"
      } ]
    },
    "request": {
      "method": "PUT",
      "url": "Coverage/2f5552ee-6fea-4e3c-8d21-43b03d474dcb"
    }
  }, {
    "fullUrl": "https://madie.cms.gov/Encounter/3bbff4e6-c830-4240-9e8e-2fd90080880b",
    "resource": {
      "resourceType": "Encounter",
      "id": "3bbff4e6-c830-4240-9e8e-2fd90080880b",
      "meta": {
        "profile": [ "http://hl7.org/fhir/us/qicore/StructureDefinition/qicore-encounter" ]
      },
      "status": "finished",
      "class": {
        "system": "http://terminology.hl7.org/CodeSystem/v3-ActCode",
        "code": "EMER",
        "display": "emergency"
      },
      "type": [ {
        "coding": [ {
          "system": "http://snomed.info/sct",
          "code": "448951000124107",
          "display": "Admission to observation unit (procedure)",
          "userSelected": true
        } ]
      } ],
      "subject": {
        "reference": "Patient/dfd5dc6b-3299-4e4f-ae02-45f251e1f75b"
      },
      "period": {
        "start": "2027-05-01T02:01:00.000+00:00",
        "end": "2027-05-01T05:59:00.000+00:00"
      }
    },
    "request": {
      "method": "PUT",
      "url": "Encounter/3bbff4e6-c830-4240-9e8e-2fd90080880b"
    }
  }, {
    "fullUrl": "https://madie.cms.gov/Organization/8efe658a-bc43-4877-a42b-97bee0402304",
    "resource": {
      "resourceType": "Organization",
      "id": "8efe658a-bc43-4877-a42b-97bee0402304",
      "meta": {
        "profile": [ "http://hl7.org/fhir/us/qicore/StructureDefinition/qicore-organization" ]
      },
      "identifier": [ {
        "use": "temp",
        "system": "urn:oid:2.16.840.1.113883.4.4",
        "value": "21-3259825"
      } ],
      "active": true,
      "type": [ {
        "coding": [ {
          "system": "http://terminology.hl7.org/CodeSystem/organization-type",
          "code": "pay",
          "display": "Payer"
        } ]
      } ],
      "name": "Blue Cross Blue Shield of Texas",
      "telecom": [ {
        "system": "phone",
        "value": "(+1) 972-766-6900"
      } ],
      "address": [ {
        "use": "billing",
        "type": "postal",
        "line": [ "P.O. Box 660044" ],
        "city": "Dallas",
        "state": "TX",
        "postalCode": "75266-0044",
        "country": "USA"
      } ]
    },
    "request": {
      "method": "PUT",
      "url": "Organization/8efe658a-bc43-4877-a42b-97bee0402304"
    }
  }, {
    "fullUrl": "https://madie.cms.gov/Practitioner/9985b9cf-6023-46c6-b47c-bd25f959db60",
    "resource": {
      "resourceType": "Practitioner",
      "id": "9985b9cf-6023-46c6-b47c-bd25f959db60",
      "meta": {
        "profile": [ "http://hl7.org/fhir/us/qicore/StructureDefinition/qicore-practitioner" ]
      },
      "identifier": [ {
        "system": "http://hl7.org/fhir/sid/us-npi",
        "value": "9999999896"
      } ],
      "name": [ {
        "family": "Evil",
        "prefix": [ "Dr" ]
      } ]
    },
    "request": {
      "method": "PUT",
      "url": "Practitioner/9985b9cf-6023-46c6-b47c-bd25f959db60"
    }
  }, {
    "fullUrl": "https://madie.cms.gov/MeasureReport/58ac98ca-0786-4bef-994d-2ee921ed228a",
    "resource": {
      "resourceType": "MeasureReport",
      "id": "58ac98ca-0786-4bef-994d-2ee921ed228a",
      "meta": {
        "profile": [ "http://hl7.org/fhir/us/cqfmeasures/StructureDefinition/test-case-cqfm" ]
      },
      "contained": [ {
        "resourceType": "Parameters",
        "id": "d48a5e42-0f90-4544-bf46-12d4ed791c9b-parameters",
        "parameter": [ {
          "name": "subject",
          "valueString": "dfd5dc6b-3299-4e4f-ae02-45f251e1f75b"
        } ]
      } ],
      "extension": [ {
        "url": "http://hl7.org/fhir/StructureDefinition/cqf-inputParameters",
        "valueReference": {
          "reference": "#d48a5e42-0f90-4544-bf46-12d4ed791c9b-parameters"
        }
      }, {
        "url": "http://hl7.org/fhir/us/cqfmeasures/StructureDefinition/cqfm-testCaseDescription",
        "valueMarkdown": "Adult, patient was boarded 6 hrs 1 min; Enc 8 hrs, enc departure 8 hrs 1 min. dx recurrent major depression"
      } ],
      "modifierExtension": [ {
        "url": "http://hl7.org/fhir/us/cqfmeasures/StructureDefinition/cqfm-isTestCase",
        "valueBoolean": true
      } ],
      "status": "complete",
      "type": "individual",
      "measure": "https://madie.cms.gov/Measure/CMS1264FHIRECATREHQR",
      "period": {
        "start": "2027-01-01",
        "end": "2027-12-31"
      },
      "group": [ {
        "id": "Group_1",
        "population": [ {
          "id": "InitialPopulation_1",
          "code": {
            "coding": [ {
              "system": "http://terminology.hl7.org/CodeSystem/measure-population",
              "code": "initial-population",
              "display": "Initial Population"
            } ]
          },
          "count": 1
        }, {
          "id": "Denominator_1",
          "code": {
            "coding": [ {
              "system": "http://terminology.hl7.org/CodeSystem/measure-population",
              "code": "denominator",
              "display": "Denominator"
            } ]
          },
          "count": 1
        }, {
          "id": "Numerator_1",
          "code": {
            "coding": [ {
              "system": "http://terminology.hl7.org/CodeSystem/measure-population",
              "code": "numerator",
              "display": "Numerator"
            } ]
          },
          "count": 0
        } ],
        "measureScore": {
          "value": 0.0
        },
        "stratifier": [ {
          "id": "Stratification_1_1",
          "code": [ {
            "text": "Strata-1"
          } ],
          "stratum": [ {
            "value": {
              "text": "Strata-1"
            },
            "population": [ {
              "id": "InitialPopulation_1",
              "code": {
                "coding": [ {
                  "system": "http://terminology.hl7.org/CodeSystem/measure-population",
                  "code": "initial-population",
                  "display": "Initial Population"
                } ]
              },
              "count": 0
            }, {
              "id": "Denominator_1",
              "code": {
                "coding": [ {
                  "system": "http://terminology.hl7.org/CodeSystem/measure-population",
                  "code": "denominator",
                  "display": "Denominator"
                } ]
              },
              "count": 0
            }, {
              "id": "Numerator_1",
              "code": {
                "coding": [ {
                  "system": "http://terminology.hl7.org/CodeSystem/measure-population",
                  "code": "numerator",
                  "display": "Numerator"
                } ]
              },
              "count": 0
            } ]
          } ]
        }, {
          "id": "Stratification_1_2",
          "code": [ {
            "text": "Strata-2"
          } ],
          "stratum": [ {
            "value": {
              "text": "Strata-2"
            },
            "population": [ {
              "id": "InitialPopulation_1",
              "code": {
                "coding": [ {
                  "system": "http://terminology.hl7.org/CodeSystem/measure-population",
                  "code": "initial-population",
                  "display": "Initial Population"
                } ]
              },
              "count": 0
            }, {
              "id": "Denominator_1",
              "code": {
                "coding": [ {
                  "system": "http://terminology.hl7.org/CodeSystem/measure-population",
                  "code": "denominator",
                  "display": "Denominator"
                } ]
              },
              "count": 0
            }, {
              "id": "Numerator_1",
              "code": {
                "coding": [ {
                  "system": "http://terminology.hl7.org/CodeSystem/measure-population",
                  "code": "numerator",
                  "display": "Numerator"
                } ]
              },
              "count": 0
            } ]
          } ]
        }, {
          "id": "Stratification_1_3",
          "code": [ {
            "text": "Strata-3"
          } ],
          "stratum": [ {
            "value": {
              "text": "Strata-3"
            },
            "population": [ {
              "id": "InitialPopulation_1",
              "code": {
                "coding": [ {
                  "system": "http://terminology.hl7.org/CodeSystem/measure-population",
                  "code": "initial-population",
                  "display": "Initial Population"
                } ]
              },
              "count": 0
            }, {
              "id": "Denominator_1",
              "code": {
                "coding": [ {
                  "system": "http://terminology.hl7.org/CodeSystem/measure-population",
                  "code": "denominator",
                  "display": "Denominator"
                } ]
              },
              "count": 0
            }, {
              "id": "Numerator_1",
              "code": {
                "coding": [ {
                  "system": "http://terminology.hl7.org/CodeSystem/measure-population",
                  "code": "numerator",
                  "display": "Numerator"
                } ]
              },
              "count": 0
            } ]
          } ]
        }, {
          "id": "Stratification_1_4",
          "code": [ {
            "text": "Strata-4"
          } ],
          "stratum": [ {
            "value": {
              "text": "Strata-4"
            },
            "population": [ {
              "id": "InitialPopulation_1",
              "code": {
                "coding": [ {
                  "system": "http://terminology.hl7.org/CodeSystem/measure-population",
                  "code": "initial-population",
                  "display": "Initial Population"
                } ]
              },
              "count": 1
            }, {
              "id": "Denominator_1",
              "code": {
                "coding": [ {
                  "system": "http://terminology.hl7.org/CodeSystem/measure-population",
                  "code": "denominator",
                  "display": "Denominator"
                } ]
              },
              "count": 1
            }, {
              "id": "Numerator_1",
              "code": {
                "coding": [ {
                  "system": "http://terminology.hl7.org/CodeSystem/measure-population",
                  "code": "numerator",
                  "display": "Numerator"
                } ]
              },
              "count": 0
            } ]
          } ]
        } ]
      } ],
      "evaluatedResource": [ {
        "reference": "Patient/dfd5dc6b-3299-4e4f-ae02-45f251e1f75b"
      }, {
        "reference": "Encounter/600e9913-9ea2-4753-bf46-ef950d5e58a4"
      }, {
        "reference": "ServiceRequest/22fa4c64-489d-40d8-b2a2-dc22a0bb37fc"
      }, {
        "reference": "Location/6768e6ec-5440-4d01-bc8a-a456945315d4"
      }, {
        "reference": "Claim/ClaimBehavior-NotSubsAbuse"
      }, {
        "reference": "Condition/16ecd5b1-d2ef-4aa7-95fd-4569d7a945a2"
      }, {
        "reference": "Coverage/2f5552ee-6fea-4e3c-8d21-43b03d474dcb"
      }, {
        "reference": "Encounter/3bbff4e6-c830-4240-9e8e-2fd90080880b"
      }, {
        "reference": "Organization/8efe658a-bc43-4877-a42b-97bee0402304"
      }, {
        "reference": "Practitioner/9985b9cf-6023-46c6-b47c-bd25f959db60"
      } ]
    },
    "request": {
      "method": "PUT",
      "url": "MeasureReport/58ac98ca-0786-4bef-994d-2ee921ed228a"
    }
  } ]
}