{
  "resourceType": "Bundle",
  "id": "657cbdc9b4f1f0343662347a",
  "type": "transaction",
  "entry": [ {
    "fullUrl": "https://madie.cms.gov/Patient/f04cffb2-a121-4198-a501-68aea7edde8f",
    "resource": {
      "resourceType": "Patient",
      "id": "f04cffb2-a121-4198-a501-68aea7edde8f",
      "meta": {
        "profile": [ "http://hl7.org/fhir/us/qicore/StructureDefinition/qicore-patient" ]
      },
      "extension": [ {
        "url": "http://hl7.org/fhir/us/core/StructureDefinition/us-core-race",
        "extension": [ {
          "url": "ombCategory",
          "valueCoding": {
            "system": "urn:oid:2.16.840.1.113883.6.238",
            "code": "2106-3",
            "display": "White",
            "userSelected": true
          }
        }, {
          "url": "text",
          "valueString": "White"
        } ]
      }, {
        "url": "http://hl7.org/fhir/us/core/StructureDefinition/us-core-ethnicity",
        "extension": [ {
          "url": "ombCategory",
          "valueCoding": {
            "system": "urn:oid:2.16.840.1.113883.6.238",
            "code": "2186-5",
            "display": "Not Hispanic or Latino",
            "userSelected": true
          }
        }, {
          "url": "text",
          "valueString": "Not Hispanic or Latino"
        } ]
      } ],
      "identifier": [ {
        "type": {
          "coding": [ {
            "system": "http://terminology.hl7.org/CodeSystem/v2-0203",
            "code": "MR"
          } ]
        },
        "system": "https://bonnie-fhir.healthit.gov/",
        "value": "657cbdc9b4f1f0343662347a"
      } ],
      "name": [ {
        "family": "MedicationPass",
        "given": [ "Medication" ]
      } ],
      "gender": "female",
      "birthDate": "2008-01-01"
    },
    "request": {
      "method": "PUT",
      "url": "Patient/f04cffb2-a121-4198-a501-68aea7edde8f"
    }
  }, {
    "fullUrl": "https://madie.cms.gov/Encounter/920b42ce-0056-4eb6-98e9-4dfcf11483fa",
    "resource": {
      "resourceType": "Encounter",
      "id": "920b42ce-0056-4eb6-98e9-4dfcf11483fa",
      "meta": {
        "profile": [ "http://hl7.org/fhir/us/qicore/StructureDefinition/qicore-encounter" ]
      },
      "status": "finished",
      "class": {
        "system": "http://terminology.hl7.org/CodeSystem/v3-ActCode",
        "code": "ACUTE",
        "display": "inpatient acute"
      },
      "type": [ {
        "coding": [ {
          "system": "http://snomed.info/sct",
          "version": "2024",
          "code": "32485007",
          "display": "Hospital admission (procedure)",
          "userSelected": true
        } ]
      } ],
      "subject": {
        "reference": "Patient/f04cffb2-a121-4198-a501-68aea7edde8f"
      },
      "period": {
        "start": "2026-01-01T08:00:00.000Z",
        "end": "2026-01-02T09:15:00.000Z"
      },
      "diagnosis": [ {
        "condition": {
          "reference": "Condition/96515cbe-4dfe-43a9-97c9-49bf5aab7b66"
        },
        "use": {
          "coding": [ {
            "system": "http://terminology.hl7.org/CodeSystem/diagnosis-role",
            "code": "billing"
          } ]
        },
        "rank": 1
      } ]
    },
    "request": {
      "method": "PUT",
      "url": "Encounter/920b42ce-0056-4eb6-98e9-4dfcf11483fa"
    }
  }, {
    "fullUrl": "https://madie.cms.gov/Location/3c42e485-598d-45ee-ae06-56138dc16322",
    "resource": {
      "resourceType": "Location",
      "id": "3c42e485-598d-45ee-ae06-56138dc16322",
      "meta": {
        "profile": [ "http://hl7.org/fhir/us/qicore/StructureDefinition/qicore-location" ]
      },
      "identifier": [ {
        "use": "usual",
        "system": "http://exampleoflocation.com",
        "value": "B1-S.F2"
      } ],
      "name": "Medical Surgical East, first floor",
      "type": [ {
        "coding": [ {
          "system": "https://www.cdc.gov/nhsn/cdaportal/terminology/codesystem/hsloc.html",
          "code": "1028-0",
          "display": "Medical Cardiac Critical Care",
          "userSelected": true
        } ]
      } ]
    },
    "request": {
      "method": "PUT",
      "url": "Location/3c42e485-598d-45ee-ae06-56138dc16322"
    }
  }, {
    "fullUrl": "https://madie.cms.gov/MedicationRequest/f39e5c0e-dfe9-4ab2-8ea3-9c1e5b3793d2",
    "resource": {
      "resourceType": "MedicationRequest",
      "id": "f39e5c0e-dfe9-4ab2-8ea3-9c1e5b3793d2",
      "meta": {
        "profile": [ "http://hl7.org/fhir/us/qicore/StructureDefinition/qicore-medicationrequest" ]
      },
      "status": "completed",
      "intent": "order",
      "medicationReference": {
        "reference": "Medication/d290d9db-3c1c-4c06-b668-c07fa4793353"
      },
      "subject": {
        "reference": "Patient/f04cffb2-a121-4198-a501-68aea7edde8f"
      },
      "authoredOn": "2026-01-01T08:15:00.000Z",
      "requester": {
        "reference": "Practitioner/33d87640-6b2a-40b0-ab11-542478a88d5a"
      },
      "dosageInstruction": [ {
        "timing": {
          "repeat": {
            "boundsPeriod": {
              "start": "2025-01-01T08:15:00.000Z"
            }
          }
        }
      } ]
    },
    "request": {
      "method": "PUT",
      "url": "MedicationRequest/f39e5c0e-dfe9-4ab2-8ea3-9c1e5b3793d2"
    }
  }, {
    "fullUrl": "https://madie.cms.gov/Medication/d290d9db-3c1c-4c06-b668-c07fa4793353",
    "resource": {
      "resourceType": "Medication",
      "id": "d290d9db-3c1c-4c06-b668-c07fa4793353",
      "meta": {
        "profile": [ "http://hl7.org/fhir/us/qicore/StructureDefinition/qicore-medication" ]
      },
      "code": {
        "coding": [ {
          "system": "http://www.nlm.nih.gov/research/umls/rxnorm",
          "code": "1007184",
          "display": "insulin aspart protamine, human / insulin aspart, human"
        } ]
      },
      "status": "active",
      "manufacturer": {
        "reference": "Organization/bbf910d5-6099-4164-ad80-334d126384ec"
      },
      "form": {
        "coding": [ {
          "system": "http://snomed.info/sct",
          "code": "385219001",
          "display": "Conventional release solution for injection (dose form)"
        } ]
      },
      "ingredient": [ {
        "itemCodeableConcept": {
          "coding": [ {
            "system": "http://snomed.info/sct",
            "code": "420609005",
            "display": "Human regular insulin (substance)"
          } ]
        },
        "strength": {
          "numerator": {
            "value": 12,
            "system": "http://unitsofmeasure.org",
            "code": "mg"
          },
          "denominator": {
            "value": 1.2,
            "system": "http://unitsofmeasure.org",
            "code": "mL"
          }
        }
      } ],
      "batch": {
        "lotNumber": "9494788",
        "expirationDate": "2026-05-22"
      }
    },
    "request": {
      "method": "PUT",
      "url": "Medication/d290d9db-3c1c-4c06-b668-c07fa4793353"
    }
  }, {
    "fullUrl": "https://madie.cms.gov/Coverage/9766e6a5-2c95-493f-8593-c1fd47436142",
    "resource": {
      "resourceType": "Coverage",
      "id": "9766e6a5-2c95-493f-8593-c1fd47436142",
      "meta": {
        "profile": [ "http://hl7.org/fhir/us/qicore/StructureDefinition/qicore-coverage" ]
      },
      "identifier": [ {
        "system": "http://benefitsinc.com/certificate",
        "value": "12345"
      } ],
      "status": "active",
      "type": {
        "coding": [ {
          "system": "https://nahdo.org/sopt",
          "version": "1.0.1",
          "code": "1",
          "display": "MEDICARE",
          "userSelected": true
        } ]
      },
      "subscriberId": "AB9876",
      "beneficiary": {
        "reference": "Patient/f04cffb2-a121-4198-a501-68aea7edde8f"
      },
      "relationship": {
        "coding": [ {
          "system": "http://terminology.hl7.org/CodeSystem/subscriber-relationship",
          "code": "self"
        } ]
      },
      "payor": [ {
        "reference": "Organization/bbf910d5-6099-4164-ad80-334d126384ec"
      } ]
    },
    "request": {
      "method": "PUT",
      "url": "Coverage/9766e6a5-2c95-493f-8593-c1fd47436142"
    }
  }, {
    "fullUrl": "https://madie.cms.gov/Organization/bbf910d5-6099-4164-ad80-334d126384ec",
    "resource": {
      "resourceType": "Organization",
      "id": "bbf910d5-6099-4164-ad80-334d126384ec",
      "meta": {
        "profile": [ "http://hl7.org/fhir/us/qicore/StructureDefinition/qicore-organization" ]
      },
      "identifier": [ {
        "use": "temp",
        "system": "urn:oid:2.16.840.1.113883.4.4",
        "value": "21-3259825"
      } ],
      "active": true,
      "type": [ {
        "coding": [ {
          "system": "http://terminology.hl7.org/CodeSystem/organization-type",
          "code": "pay",
          "display": "Payer"
        } ]
      } ],
      "name": "Blue Cross Blue Shield of Texas",
      "telecom": [ {
        "system": "phone",
        "value": "(+1) 972-766-6900"
      } ],
      "address": [ {
        "use": "billing",
        "type": "postal",
        "line": [ "P.O. Box 660044" ],
        "city": "Dallas",
        "state": "TX",
        "postalCode": "75266-0044",
        "country": "USA"
      } ]
    },
    "request": {
      "method": "PUT",
      "url": "Organization/bbf910d5-6099-4164-ad80-334d126384ec"
    }
  }, {
    "fullUrl": "https://madie.cms.gov/Practitioner/8b340b15-d3e2-4f24-a27f-b1eaa82be0d3",
    "resource": {
      "resourceType": "Practitioner",
      "id": "8b340b15-d3e2-4f24-a27f-b1eaa82be0d3",
      "meta": {
        "profile": [ "http://hl7.org/fhir/us/qicore/StructureDefinition/qicore-practitioner" ]
      },
      "identifier": [ {
        "system": "http://hl7.org/fhir/sid/us-npi",
        "value": "0723660813"
      } ],
      "name": [ {
        "family": "Evil",
        "prefix": [ "Dr" ]
      } ]
    },
    "request": {
      "method": "PUT",
      "url": "Practitioner/8b340b15-d3e2-4f24-a27f-b1eaa82be0d3"
    }
  }, {
    "fullUrl": "https://madie.cms.gov/MeasureReport/0b5a32a0-ac83-48f2-870e-89a81e5bc2af",
    "resource": {
      "resourceType": "MeasureReport",
      "id": "0b5a32a0-ac83-48f2-870e-89a81e5bc2af",
      "meta": {
        "profile": [ "http://hl7.org/fhir/us/cqfmeasures/StructureDefinition/test-case-cqfm" ]
      },
      "contained": [ {
        "resourceType": "Parameters",
        "id": "bdab9a7d-4b60-49ee-b990-4fdac0f37141-parameters",
        "parameter": [ {
          "name": "subject",
          "valueString": "f04cffb2-a121-4198-a501-68aea7edde8f"
        } ]
      } ],
      "extension": [ {
        "url": "http://hl7.org/fhir/StructureDefinition/cqf-inputParameters",
        "valueReference": {
          "reference": "#bdab9a7d-4b60-49ee-b990-4fdac0f37141-parameters"
        }
      }, {
        "url": "http://hl7.org/fhir/us/cqfmeasures/StructureDefinition/cqfm-testCaseDescription",
        "valueMarkdown": "Inpatient encounter with diabetic medication during MP with SDE medication request"
      } ],
      "modifierExtension": [ {
        "url": "http://hl7.org/fhir/us/cqfmeasures/StructureDefinition/cqfm-isTestCase",
        "valueBoolean": true
      } ],
      "status": "complete",
      "type": "individual",
      "measure": "https://madie.cms.gov/Measure/NHSNGlycemicControlHypoglycemiaInitialPopulation",
      "period": {
        "start": "2026-01-01",
        "end": "2026-12-31"
      },
      "group": [ {
        "id": "Group_1",
        "population": [ {
          "id": "InitialPopulation_1",
          "code": {
            "coding": [ {
              "system": "http://terminology.hl7.org/CodeSystem/measure-population",
              "code": "initial-population",
              "display": "Initial Population"
            } ]
          },
          "count": 1
        } ],
        "measureScore": {
          "value": 0.0
        }
      } ],
      "evaluatedResource": [ {
        "reference": "Patient/f04cffb2-a121-4198-a501-68aea7edde8f"
      }, {
        "reference": "Encounter/920b42ce-0056-4eb6-98e9-4dfcf11483fa"
      }, {
        "reference": "Location/3c42e485-598d-45ee-ae06-56138dc16322"
      }, {
        "reference": "MedicationRequest/f39e5c0e-dfe9-4ab2-8ea3-9c1e5b3793d2"
      }, {
        "reference": "Medication/d290d9db-3c1c-4c06-b668-c07fa4793353"
      }, {
        "reference": "Coverage/9766e6a5-2c95-493f-8593-c1fd47436142"
      }, {
        "reference": "Organization/bbf910d5-6099-4164-ad80-334d126384ec"
      }, {
        "reference": "Practitioner/8b340b15-d3e2-4f24-a27f-b1eaa82be0d3"
      } ]
    },
    "request": {
      "method": "PUT",
      "url": "MeasureReport/0b5a32a0-ac83-48f2-870e-89a81e5bc2af"
    }
  } ]
}