{
  "resourceType": "Bundle",
  "id": "612e6e9c02c62a011f2ef070",
  "type": "transaction",
  "entry": [ {
    "fullUrl": "https://madie.cms.gov/Patient/52f08855-780f-4975-b505-ade45abba149",
    "resource": {
      "resourceType": "Patient",
      "id": "52f08855-780f-4975-b505-ade45abba149",
      "meta": {
        "profile": [ "http://hl7.org/fhir/us/qicore/StructureDefinition/qicore-patient" ]
      },
      "text": {
        "status": "generated",
        "div": "<div xmlns=\"http://www.w3.org/1999/xhtml\"><div class=\"hapiHeaderText\">ThrombinDuringED <b>NUMERPASS </b></div><table class=\"hapiPropertyTable\"><tbody><tr><td>Identifier</td><td>f2b441be18ed6316c95ae4ad6f27b780</td></tr><tr><td>Date of birth</td><td><span>03 March 1974</span></td></tr></tbody></table></div>"
      },
      "extension": [ {
        "url": "http://hl7.org/fhir/us/core/StructureDefinition/us-core-race",
        "extension": [ {
          "url": "ombCategory",
          "valueCoding": {
            "system": "urn:oid:2.16.840.1.113883.6.238",
            "code": "1002-5",
            "display": "American Indian or Alaska Native",
            "userSelected": true
          }
        }, {
          "url": "text",
          "valueString": "American Indian or Alaska Native"
        } ]
      }, {
        "url": "http://hl7.org/fhir/us/core/StructureDefinition/us-core-ethnicity",
        "extension": [ {
          "url": "ombCategory",
          "valueCoding": {
            "system": "urn:oid:2.16.840.1.113883.6.238",
            "code": "2135-2",
            "display": "Hispanic or Latino",
            "userSelected": true
          }
        }, {
          "url": "text",
          "valueString": "Hispanic or Latino"
        } ]
      } ],
      "identifier": [ {
        "type": {
          "coding": [ {
            "system": "http://terminology.hl7.org/CodeSystem/v2-0203",
            "code": "MR"
          } ]
        },
        "system": "https://bonnie-fhir.healthit.gov/",
        "value": "612e6e9c02c62a011f2ef070"
      } ],
      "active": true,
      "name": [ {
        "use": "usual",
        "family": "NUMERPass",
        "given": [ "ThrombinDuringED" ]
      } ],
      "gender": "female",
      "birthDate": "1975-03-03"
    },
    "request": {
      "method": "PUT",
      "url": "Patient/52f08855-780f-4975-b505-ade45abba149"
    }
  }, {
    "fullUrl": "https://madie.cms.gov/Encounter/61e2796f-43ff-4146-88d1-5c79ec4412d2",
    "resource": {
      "resourceType": "Encounter",
      "id": "61e2796f-43ff-4146-88d1-5c79ec4412d2",
      "meta": {
        "profile": [ "http://hl7.org/fhir/us/qicore/StructureDefinition/qicore-encounter" ]
      },
      "status": "finished",
      "class": {
        "system": "http://terminology.hl7.org/CodeSystem/v3-ActCode",
        "code": "EMER",
        "display": "emergency",
        "userSelected": true
      },
      "type": [ {
        "coding": [ {
          "system": "http://snomed.info/sct",
          "code": "4525004",
          "display": "Emergency department patient visit (procedure)"
        } ]
      } ],
      "subject": {
        "reference": "Patient/52f08855-780f-4975-b505-ade45abba149"
      },
      "period": {
        "start": "2026-12-06T02:00:00.000+00:00",
        "end": "2026-12-06T08:15:00.000+00:00"
      },
      "length": {
        "value": 0.0,
        "unit": "days"
      }
    },
    "request": {
      "method": "PUT",
      "url": "Encounter/61e2796f-43ff-4146-88d1-5c79ec4412d2"
    }
  }, {
    "fullUrl": "https://madie.cms.gov/Encounter/30a7631f-7255-466a-ab08-77a9eb9b6c81",
    "resource": {
      "resourceType": "Encounter",
      "id": "30a7631f-7255-466a-ab08-77a9eb9b6c81",
      "meta": {
        "profile": [ "http://hl7.org/fhir/us/qicore/StructureDefinition/qicore-encounter" ]
      },
      "status": "finished",
      "class": {
        "system": "http://terminology.hl7.org/CodeSystem/v3-ActCode",
        "code": "IMP",
        "display": "inpatient encounter"
      },
      "type": [ {
        "coding": [ {
          "system": "http://snomed.info/sct",
          "code": "8715000",
          "display": "Hospital admission, elective (procedure)"
        } ]
      } ],
      "subject": {
        "reference": "Patient/52f08855-780f-4975-b505-ade45abba149"
      },
      "period": {
        "start": "2026-12-06T08:45:00.000+00:00",
        "end": "2026-12-30T08:15:00.000+00:00"
      },
      "length": {
        "value": 24.0,
        "unit": "days"
      },
      "location": [ {
        "location": {
          "reference": "Location/e9dccfe1-26cf-4341-95df-5adb5cf8aa99"
        },
        "period": {
          "start": "2026-12-06T09:00:00.000+00:00",
          "end": "2026-12-12T08:15:00.000+00:00"
        }
      } ]
    },
    "request": {
      "method": "PUT",
      "url": "Encounter/30a7631f-7255-466a-ab08-77a9eb9b6c81"
    }
  }, {
    "fullUrl": "https://madie.cms.gov/Coverage/c285dc72-ec83-4daa-adde-4b8c85e36b0a",
    "resource": {
      "resourceType": "Coverage",
      "id": "c285dc72-ec83-4daa-adde-4b8c85e36b0a",
      "status": "active",
      "beneficiary": {
        "reference": "Patient/52f08855-780f-4975-b505-ade45abba149"
      },
      "period": {
        "start": "1975-03-03T08:00:00.000+00:00"
      },
      "payor": [ {
        "reference": "Organization/d4a07ee7-2f71-4cd3-8919-9ac31ae42aab"
      } ]
    },
    "request": {
      "method": "PUT",
      "url": "Coverage/c285dc72-ec83-4daa-adde-4b8c85e36b0a"
    }
  }, {
    "fullUrl": "https://madie.cms.gov/MedicationAdministration/07dfaed5-47b5-4987-8e2b-f4611d71b74b",
    "resource": {
      "resourceType": "MedicationAdministration",
      "id": "07dfaed5-47b5-4987-8e2b-f4611d71b74b",
      "meta": {
        "profile": [ "http://hl7.org/fhir/us/qicore/StructureDefinition/qicore-medicationadministration" ]
      },
      "status": "completed",
      "medicationCodeableConcept": {
        "coding": [ {
          "system": "http://www.nlm.nih.gov/research/umls/rxnorm",
          "code": "308351"
        } ]
      },
      "subject": {
        "reference": "Patient/52f08855-780f-4975-b505-ade45abba149"
      },
      "effectivePeriod": {
        "start": "2026-12-06T06:30:00.000+00:00",
        "end": "2026-12-06T06:35:00.000+00:00"
      }
    },
    "request": {
      "method": "PUT",
      "url": "MedicationAdministration/07dfaed5-47b5-4987-8e2b-f4611d71b74b"
    }
  }, {
    "fullUrl": "https://madie.cms.gov/Location/e9dccfe1-26cf-4341-95df-5adb5cf8aa99",
    "resource": {
      "resourceType": "Location",
      "id": "e9dccfe1-26cf-4341-95df-5adb5cf8aa99",
      "meta": {
        "profile": [ "http://hl7.org/fhir/us/qicore/StructureDefinition/qicore-location" ]
      },
      "identifier": [ {
        "use": "usual",
        "system": "http://exampleoflocation.com",
        "value": "B1-S.F2"
      } ],
      "name": "Medical Surgical East, first floor",
      "type": [ {
        "coding": [ {
          "system": "https://www.cdc.gov/nhsn/cdaportal/terminology/codesystem/hsloc.html",
          "version": "2020",
          "code": "1025-6",
          "display": "Trauma Critical Care",
          "userSelected": true
        } ]
      } ]
    },
    "request": {
      "method": "PUT",
      "url": "Location/e9dccfe1-26cf-4341-95df-5adb5cf8aa99"
    }
  }, {
    "fullUrl": "https://madie.cms.gov/Organization/d4a07ee7-2f71-4cd3-8919-9ac31ae42aab",
    "resource": {
      "resourceType": "Organization",
      "id": "d4a07ee7-2f71-4cd3-8919-9ac31ae42aab",
      "meta": {
        "profile": [ "http://hl7.org/fhir/us/qicore/StructureDefinition/qicore-organization" ]
      },
      "identifier": [ {
        "use": "temp",
        "system": "urn:oid:2.16.840.1.113883.4.4",
        "value": "21-3259825"
      } ],
      "active": true,
      "type": [ {
        "coding": [ {
          "system": "http://terminology.hl7.org/CodeSystem/organization-type",
          "code": "pay",
          "display": "Payer"
        } ]
      } ],
      "name": "Blue Cross Blue Shield of Texas",
      "telecom": [ {
        "system": "phone",
        "value": "(+1) 972-766-6900"
      } ],
      "address": [ {
        "use": "billing",
        "type": "postal",
        "line": [ "P.O. Box 660044" ],
        "city": "Dallas",
        "state": "TX",
        "postalCode": "75266-0044",
        "country": "USA"
      } ]
    },
    "request": {
      "method": "PUT",
      "url": "Organization/d4a07ee7-2f71-4cd3-8919-9ac31ae42aab"
    }
  }, {
    "fullUrl": "https://madie.cms.gov/MeasureReport/d33f687f-052c-4705-99dc-395de35c0661",
    "resource": {
      "resourceType": "MeasureReport",
      "id": "d33f687f-052c-4705-99dc-395de35c0661",
      "meta": {
        "profile": [ "http://hl7.org/fhir/us/cqfmeasures/StructureDefinition/test-case-cqfm" ]
      },
      "contained": [ {
        "resourceType": "Parameters",
        "id": "98a82161-c1f2-4592-8638-f69adad199ad-parameters",
        "parameter": [ {
          "name": "subject",
          "valueString": "52f08855-780f-4975-b505-ade45abba149"
        } ]
      } ],
      "extension": [ {
        "url": "http://hl7.org/fhir/StructureDefinition/cqf-inputParameters",
        "valueReference": {
          "reference": "#98a82161-c1f2-4592-8638-f69adad199ad-parameters"
        }
      }, {
        "url": "http://hl7.org/fhir/us/cqfmeasures/StructureDefinition/cqfm-testCaseDescription",
        "valueMarkdown": "meets IPP, meets Denominator, medication administered:Thrombin during ED, ED endTime less than 1 hour before Start of ICU"
      } ],
      "modifierExtension": [ {
        "url": "http://hl7.org/fhir/us/cqfmeasures/StructureDefinition/cqfm-isTestCase",
        "valueBoolean": true
      } ],
      "status": "complete",
      "type": "individual",
      "measure": "https://madie.cms.gov/Measure/CMS190FHIRVTEProphylaxisICU",
      "period": {
        "start": "2026-01-01",
        "end": "2026-12-31"
      },
      "group": [ {
        "id": "Group_1",
        "population": [ {
          "id": "InitialPopulation_1",
          "code": {
            "coding": [ {
              "system": "http://terminology.hl7.org/CodeSystem/measure-population",
              "code": "initial-population",
              "display": "Initial Population"
            } ]
          },
          "count": 1
        }, {
          "id": "Denominator_1",
          "code": {
            "coding": [ {
              "system": "http://terminology.hl7.org/CodeSystem/measure-population",
              "code": "denominator",
              "display": "Denominator"
            } ]
          },
          "count": 1
        }, {
          "id": "DenominatorExclusion_1",
          "code": {
            "coding": [ {
              "system": "http://terminology.hl7.org/CodeSystem/measure-population",
              "code": "denominator-exclusion",
              "display": "Denominator Exclusion"
            } ]
          },
          "count": 0
        }, {
          "id": "Numerator_1",
          "code": {
            "coding": [ {
              "system": "http://terminology.hl7.org/CodeSystem/measure-population",
              "code": "numerator",
              "display": "Numerator"
            } ]
          },
          "count": 1
        }, {
          "id": "DenominatorException_1",
          "code": {
            "coding": [ {
              "system": "http://terminology.hl7.org/CodeSystem/measure-population",
              "code": "denominator-exception",
              "display": "Denominator Exception"
            } ]
          },
          "count": 0
        } ],
        "measureScore": {
          "value": 0.0
        }
      } ],
      "evaluatedResource": [ {
        "reference": "Patient/52f08855-780f-4975-b505-ade45abba149"
      }, {
        "reference": "Encounter/61e2796f-43ff-4146-88d1-5c79ec4412d2"
      }, {
        "reference": "Encounter/30a7631f-7255-466a-ab08-77a9eb9b6c81"
      }, {
        "reference": "Coverage/c285dc72-ec83-4daa-adde-4b8c85e36b0a"
      }, {
        "reference": "MedicationAdministration/07dfaed5-47b5-4987-8e2b-f4611d71b74b"
      }, {
        "reference": "Location/e9dccfe1-26cf-4341-95df-5adb5cf8aa99"
      }, {
        "reference": "Organization/d4a07ee7-2f71-4cd3-8919-9ac31ae42aab"
      } ]
    },
    "request": {
      "method": "PUT",
      "url": "MeasureReport/d33f687f-052c-4705-99dc-395de35c0661"
    }
  } ]
}