{
  "resourceType": "Bundle",
  "id": "657cbdc9b4f1f0343662347a",
  "type": "transaction",
  "entry": [ {
    "fullUrl": "https://madie.cms.gov/Patient/8d7583e9-d1b8-4269-b2fe-a64138e8f301",
    "resource": {
      "resourceType": "Patient",
      "id": "8d7583e9-d1b8-4269-b2fe-a64138e8f301",
      "meta": {
        "profile": [ "http://hl7.org/fhir/us/qicore/StructureDefinition/qicore-patient" ]
      },
      "extension": [ {
        "url": "http://hl7.org/fhir/us/core/StructureDefinition/us-core-race",
        "extension": [ {
          "url": "ombCategory",
          "valueCoding": {
            "system": "urn:oid:2.16.840.1.113883.6.238",
            "code": "2106-3",
            "display": "White",
            "userSelected": true
          }
        }, {
          "url": "text",
          "valueString": "White"
        } ]
      }, {
        "url": "http://hl7.org/fhir/us/core/StructureDefinition/us-core-ethnicity",
        "extension": [ {
          "url": "ombCategory",
          "valueCoding": {
            "system": "urn:oid:2.16.840.1.113883.6.238",
            "code": "2186-5",
            "display": "Not Hispanic or Latino",
            "userSelected": true
          }
        }, {
          "url": "text",
          "valueString": "Not Hispanic or Latino"
        } ]
      } ],
      "identifier": [ {
        "type": {
          "coding": [ {
            "system": "http://terminology.hl7.org/CodeSystem/v2-0203",
            "code": "MR"
          } ]
        },
        "system": "https://bonnie-fhir.healthit.gov/",
        "value": "657cbdc9b4f1f0343662347a"
      } ],
      "name": [ {
        "family": "LocationPass",
        "given": [ "LocationAttributes" ]
      } ],
      "gender": "female",
      "birthDate": "2008-01-01"
    },
    "request": {
      "method": "PUT",
      "url": "Patient/8d7583e9-d1b8-4269-b2fe-a64138e8f301"
    }
  }, {
    "fullUrl": "https://madie.cms.gov/Encounter/6a0dd3db-316e-4ef5-9b1a-241107f12a60",
    "resource": {
      "resourceType": "Encounter",
      "id": "6a0dd3db-316e-4ef5-9b1a-241107f12a60",
      "meta": {
        "profile": [ "http://hl7.org/fhir/us/qicore/StructureDefinition/qicore-encounter" ]
      },
      "status": "entered-in-error",
      "class": {
        "system": "http://terminology.hl7.org/CodeSystem/v3-ActCode",
        "code": "ACUTE",
        "display": "inpatient acute"
      },
      "type": [ {
        "coding": [ {
          "system": "http://snomed.info/sct",
          "version": "2024",
          "code": "32485007",
          "display": "Hospital admission (procedure)",
          "userSelected": true
        } ]
      } ],
      "subject": {
        "reference": "Patient/8d7583e9-d1b8-4269-b2fe-a64138e8f301"
      },
      "period": {
        "start": "2026-01-01T08:00:00.000+00:00",
        "end": "2026-01-02T09:15:00.000+00:00"
      },
      "location": [ {
        "location": {
          "reference": "Location/1619d605-5215-4d49-9a86-40feff426d17"
        },
        "period": {
          "start": "2026-01-01T08:00:00.000+00:00",
          "end": "2026-01-01T10:01:00.000+00:00"
        }
      } ]
    },
    "request": {
      "method": "PUT",
      "url": "Encounter/6a0dd3db-316e-4ef5-9b1a-241107f12a60"
    }
  }, {
    "fullUrl": "https://madie.cms.gov/Location/1619d605-5215-4d49-9a86-40feff426d17",
    "resource": {
      "resourceType": "Location",
      "id": "1619d605-5215-4d49-9a86-40feff426d17",
      "meta": {
        "profile": [ "http://hl7.org/fhir/us/qicore/StructureDefinition/qicore-location" ]
      },
      "extension": [ {
        "url": "http://hl7.org/fhir/StructureDefinition/location-boundary-geojson",
        "valueAttachment": {
          "contentType": "application/geo+json",
          "data": "",
          "url": "https://github.com/OpenDataDE/State-zip-code-GeoJSON/raw/master/dc_district_of_columbia_zip_codes_geo.min.json"
        }
      } ],
      "identifier": [ {
        "use": "usual",
        "system": "http://exampleoflocation.com",
        "value": "B1-S.F2"
      } ],
      "status": "active",
      "operationalStatus": {
        "system": "http://terminology.hl7.org/CodeSystem/v2-0116",
        "code": "H",
        "display": "Housekeeping"
      },
      "name": "Medical Surgical East, first floor",
      "alias": [ "BU MC, SW, F2", "Burgers University Medical Center, South Wing, second floor" ],
      "description": "Second floor of the Old South Wing, formerly in use by Psychiatry",
      "mode": "instance",
      "type": [ {
        "coding": [ {
          "system": "https://www.cdc.gov/nhsn/cdaportal/terminology/codesystem/hsloc.html",
          "code": "1025-6",
          "display": "Trauma Critical Care",
          "userSelected": true
        } ]
      } ],
      "telecom": [ {
        "system": "url",
        "value": "http://sampleorg.com/southwing",
        "use": "work"
      } ],
      "address": {
        "use": "work",
        "line": [ "Galapagosweg 91, Building A" ],
        "city": "Den Burg",
        "postalCode": "9105 PZ",
        "country": "NLD"
      },
      "physicalType": {
        "coding": [ {
          "system": "http://terminology.hl7.org/CodeSystem/location-physical-type",
          "code": "area",
          "display": "Area"
        } ]
      },
      "position": {
        "longitude": -83.6945691,
        "latitude": 42.25475478,
        "altitude": 0
      },
      "managingOrganization": {
        "reference": "Organization/f001"
      },
      "partOf": {
        "reference": "Location/2",
        "display": "USS Enterprise"
      },
      "hoursOfOperation": [ {
        "openingTime": "09:00:00",
        "closingTime": "17:00:00"
      } ],
      "availabilityExceptions": "Pubilc Holiday",
      "endpoint": [ {
        "reference": "Endpoint/example"
      } ]
    },
    "request": {
      "method": "PUT",
      "url": "Location/1619d605-5215-4d49-9a86-40feff426d17"
    }
  }, {
    "fullUrl": "https://madie.cms.gov/MedicationAdministration/a42a8eda-ef6b-4744-9293-65088e8525b3",
    "resource": {
      "resourceType": "MedicationAdministration",
      "id": "a42a8eda-ef6b-4744-9293-65088e8525b3",
      "meta": {
        "profile": [ "http://hl7.org/fhir/us/qicore/StructureDefinition/qicore-medicationadministration" ]
      },
      "status": "completed",
      "medicationCodeableConcept": {
        "coding": [ {
          "system": "http://www.nlm.nih.gov/research/umls/rxnorm",
          "code": "1007184",
          "display": "insulin aspart protamine, human / insulin aspart, human"
        } ]
      },
      "subject": {
        "reference": "Patient/8d7583e9-d1b8-4269-b2fe-a64138e8f301"
      },
      "effectivePeriod": {
        "start": "2026-01-01T08:00:00.000+00:00",
        "end": "2026-01-01T08:15:00.000+00:00"
      }
    },
    "request": {
      "method": "PUT",
      "url": "MedicationAdministration/a42a8eda-ef6b-4744-9293-65088e8525b3"
    }
  }, {
    "fullUrl": "https://madie.cms.gov/Coverage/de506a72-fb85-42dc-974c-a5e220f8a214",
    "resource": {
      "resourceType": "Coverage",
      "id": "de506a72-fb85-42dc-974c-a5e220f8a214",
      "meta": {
        "profile": [ "http://hl7.org/fhir/us/qicore/StructureDefinition/qicore-coverage" ]
      },
      "identifier": [ {
        "system": "http://benefitsinc.com/certificate",
        "value": "12345"
      } ],
      "status": "active",
      "type": {
        "coding": [ {
          "system": "https://nahdo.org/sopt",
          "version": "1.0.1",
          "code": "1",
          "display": "MEDICARE",
          "userSelected": true
        } ]
      },
      "subscriberId": "AB9876",
      "beneficiary": {
        "reference": "Patient/8d7583e9-d1b8-4269-b2fe-a64138e8f301"
      },
      "relationship": {
        "coding": [ {
          "system": "http://terminology.hl7.org/CodeSystem/subscriber-relationship",
          "code": "self"
        } ]
      },
      "payor": [ {
        "reference": "Organization/0781c972-b450-4e2c-86ad-72641a0265fa"
      } ]
    },
    "request": {
      "method": "PUT",
      "url": "Coverage/de506a72-fb85-42dc-974c-a5e220f8a214"
    }
  }, {
    "fullUrl": "https://madie.cms.gov/Organization/0781c972-b450-4e2c-86ad-72641a0265fa",
    "resource": {
      "resourceType": "Organization",
      "id": "0781c972-b450-4e2c-86ad-72641a0265fa",
      "meta": {
        "profile": [ "http://hl7.org/fhir/us/qicore/StructureDefinition/qicore-organization" ]
      },
      "identifier": [ {
        "use": "temp",
        "system": "urn:oid:2.16.840.1.113883.4.4",
        "value": "21-3259825"
      } ],
      "active": true,
      "type": [ {
        "coding": [ {
          "system": "http://terminology.hl7.org/CodeSystem/organization-type",
          "code": "pay",
          "display": "Payer"
        } ]
      } ],
      "name": "Blue Cross Blue Shield of Texas",
      "telecom": [ {
        "system": "phone",
        "value": "(+1) 972-766-6900"
      } ],
      "address": [ {
        "use": "billing",
        "type": "postal",
        "line": [ "P.O. Box 660044" ],
        "city": "Dallas",
        "state": "TX",
        "postalCode": "75266-0044",
        "country": "USA"
      } ]
    },
    "request": {
      "method": "PUT",
      "url": "Organization/0781c972-b450-4e2c-86ad-72641a0265fa"
    }
  }, {
    "fullUrl": "https://madie.cms.gov/Practitioner/c1d5c32c-c6bf-408a-9cdc-ff7122416e8b",
    "resource": {
      "resourceType": "Practitioner",
      "id": "c1d5c32c-c6bf-408a-9cdc-ff7122416e8b",
      "meta": {
        "profile": [ "http://hl7.org/fhir/us/qicore/StructureDefinition/qicore-practitioner" ]
      },
      "identifier": [ {
        "system": "http://hl7.org/fhir/sid/us-npi",
        "value": "0723660813"
      } ],
      "name": [ {
        "family": "Evil",
        "prefix": [ "Dr" ]
      } ]
    },
    "request": {
      "method": "PUT",
      "url": "Practitioner/c1d5c32c-c6bf-408a-9cdc-ff7122416e8b"
    }
  }, {
    "fullUrl": "https://madie.cms.gov/MeasureReport/bdeffd84-81b7-464e-8bfb-49333e5b872c",
    "resource": {
      "resourceType": "MeasureReport",
      "id": "bdeffd84-81b7-464e-8bfb-49333e5b872c",
      "meta": {
        "profile": [ "http://hl7.org/fhir/us/cqfmeasures/StructureDefinition/test-case-cqfm" ]
      },
      "contained": [ {
        "resourceType": "Parameters",
        "id": "0d293630-42f3-40e6-ba3c-e08ea67a5a77-parameters",
        "parameter": [ {
          "name": "subject",
          "valueString": "8d7583e9-d1b8-4269-b2fe-a64138e8f301"
        } ]
      } ],
      "extension": [ {
        "url": "http://hl7.org/fhir/StructureDefinition/cqf-inputParameters",
        "valueReference": {
          "reference": "#0d293630-42f3-40e6-ba3c-e08ea67a5a77-parameters"
        }
      }, {
        "url": "http://hl7.org/fhir/us/cqfmeasures/StructureDefinition/cqfm-testCaseDescription",
        "valueMarkdown": "Testing location attributes"
      } ],
      "modifierExtension": [ {
        "url": "http://hl7.org/fhir/us/cqfmeasures/StructureDefinition/cqfm-isTestCase",
        "valueBoolean": true
      } ],
      "status": "complete",
      "type": "individual",
      "measure": "https://madie.cms.gov/Measure/NHSNGlycemicControlHypoglycemiaInitialPopulation",
      "period": {
        "start": "2026-01-01",
        "end": "2026-12-31"
      },
      "group": [ {
        "id": "Group_1",
        "population": [ {
          "id": "InitialPopulation_1",
          "code": {
            "coding": [ {
              "system": "http://terminology.hl7.org/CodeSystem/measure-population",
              "code": "initial-population",
              "display": "Initial Population"
            } ]
          },
          "count": 1
        } ],
        "measureScore": {
          "value": 0.0
        }
      } ],
      "evaluatedResource": [ {
        "reference": "Patient/8d7583e9-d1b8-4269-b2fe-a64138e8f301"
      }, {
        "reference": "Encounter/6a0dd3db-316e-4ef5-9b1a-241107f12a60"
      }, {
        "reference": "Location/1619d605-5215-4d49-9a86-40feff426d17"
      }, {
        "reference": "MedicationAdministration/a42a8eda-ef6b-4744-9293-65088e8525b3"
      }, {
        "reference": "Coverage/de506a72-fb85-42dc-974c-a5e220f8a214"
      }, {
        "reference": "Organization/0781c972-b450-4e2c-86ad-72641a0265fa"
      }, {
        "reference": "Practitioner/c1d5c32c-c6bf-408a-9cdc-ff7122416e8b"
      } ]
    },
    "request": {
      "method": "PUT",
      "url": "MeasureReport/bdeffd84-81b7-464e-8bfb-49333e5b872c"
    }
  } ]
}