{
  "resourceType": "Bundle",
  "id": "657cbdc9b4f1f0343662347a",
  "type": "transaction",
  "entry": [ {
    "fullUrl": "https://madie.cms.gov/Patient/694f7e5e-053a-4730-b94c-73e5aacb86c2",
    "resource": {
      "resourceType": "Patient",
      "id": "694f7e5e-053a-4730-b94c-73e5aacb86c2",
      "meta": {
        "profile": [ "http://hl7.org/fhir/us/qicore/StructureDefinition/qicore-patient" ]
      },
      "extension": [ {
        "url": "http://hl7.org/fhir/us/core/StructureDefinition/us-core-race",
        "extension": [ {
          "url": "ombCategory",
          "valueCoding": {
            "system": "urn:oid:2.16.840.1.113883.6.238",
            "code": "2106-3",
            "display": "White",
            "userSelected": true
          }
        }, {
          "url": "text",
          "valueString": "White"
        } ]
      }, {
        "url": "http://hl7.org/fhir/us/core/StructureDefinition/us-core-ethnicity",
        "extension": [ {
          "url": "ombCategory",
          "valueCoding": {
            "system": "urn:oid:2.16.840.1.113883.6.238",
            "code": "2186-5",
            "display": "Not Hispanic or Latino",
            "userSelected": true
          }
        }, {
          "url": "text",
          "valueString": "Not Hispanic or Latino"
        } ]
      } ],
      "identifier": [ {
        "type": {
          "coding": [ {
            "system": "http://terminology.hl7.org/CodeSystem/v2-0203",
            "code": "MR"
          } ]
        },
        "system": "https://bonnie-fhir.healthit.gov/",
        "value": "657cbdc9b4f1f0343662347a"
      } ],
      "name": [ {
        "family": "MedicationRequestPass",
        "given": [ "MedicationRequestAttributes" ]
      } ],
      "gender": "female",
      "birthDate": "2008-01-01"
    },
    "request": {
      "method": "PUT",
      "url": "Patient/694f7e5e-053a-4730-b94c-73e5aacb86c2"
    }
  }, {
    "fullUrl": "https://madie.cms.gov/Encounter/3de85f22-7c8c-47ac-9d34-a8636e3a1b9c",
    "resource": {
      "resourceType": "Encounter",
      "id": "3de85f22-7c8c-47ac-9d34-a8636e3a1b9c",
      "meta": {
        "profile": [ "http://hl7.org/fhir/us/qicore/StructureDefinition/qicore-encounter" ]
      },
      "status": "finished",
      "class": {
        "system": "http://terminology.hl7.org/CodeSystem/v3-ActCode",
        "code": "ACUTE",
        "display": "inpatient acute"
      },
      "type": [ {
        "coding": [ {
          "system": "http://snomed.info/sct",
          "version": "2024",
          "code": "32485007",
          "display": "Hospital admission (procedure)",
          "userSelected": true
        } ]
      } ],
      "subject": {
        "reference": "Patient/694f7e5e-053a-4730-b94c-73e5aacb86c2"
      },
      "period": {
        "start": "2026-01-01T08:00:00.000+00:00",
        "end": "2026-01-02T09:15:00.000+00:00"
      },
      "diagnosis": [ {
        "condition": {
          "reference": "Condition/96515cbe-4dfe-43a9-97c9-49bf5aab7b66"
        },
        "use": {
          "coding": [ {
            "system": "http://terminology.hl7.org/CodeSystem/diagnosis-role",
            "code": "billing"
          } ]
        },
        "rank": 1
      } ]
    },
    "request": {
      "method": "PUT",
      "url": "Encounter/3de85f22-7c8c-47ac-9d34-a8636e3a1b9c"
    }
  }, {
    "fullUrl": "https://madie.cms.gov/Location/2b4f0e5f-3028-4d13-a3ec-94dbec805f54",
    "resource": {
      "resourceType": "Location",
      "id": "2b4f0e5f-3028-4d13-a3ec-94dbec805f54",
      "meta": {
        "profile": [ "http://hl7.org/fhir/us/qicore/StructureDefinition/qicore-location" ]
      },
      "identifier": [ {
        "use": "usual",
        "system": "http://exampleoflocation.com",
        "value": "B1-S.F2"
      } ],
      "name": "Medical Surgical East, first floor",
      "type": [ {
        "coding": [ {
          "system": "https://www.cdc.gov/nhsn/cdaportal/terminology/codesystem/hsloc.html",
          "code": "1028-0",
          "display": "Medical Cardiac Critical Care",
          "userSelected": true
        } ]
      } ]
    },
    "request": {
      "method": "PUT",
      "url": "Location/2b4f0e5f-3028-4d13-a3ec-94dbec805f54"
    }
  }, {
    "fullUrl": "https://madie.cms.gov/MedicationRequest/d0c5ae9f-a0dd-4563-b7d8-a0bc700a17a8",
    "resource": {
      "resourceType": "MedicationRequest",
      "id": "d0c5ae9f-a0dd-4563-b7d8-a0bc700a17a8",
      "meta": {
        "profile": [ "http://hl7.org/fhir/us/qicore/StructureDefinition/qicore-medicationrequest" ]
      },
      "status": "completed",
      "statusReason": {
        "coding": [ {
          "system": "http://terminology.hl7.org/CodeSystem/medicationrequest-status-reason",
          "code": "altchoice",
          "display": "Try another treatment first"
        } ]
      },
      "intent": "order",
      "category": [ {
        "coding": [ {
          "system": "http://terminology.hl7.org/CodeSystem/medicationrequest-category",
          "code": "inpatient",
          "display": "Inpatient"
        } ]
      } ],
      "priority": "routine",
      "doNotPerform": false,
      "medicationCodeableConcept": {
        "coding": [ {
          "system": "http://www.nlm.nih.gov/research/umls/rxnorm",
          "version": "06052023",
          "code": "1007184"
        } ]
      },
      "subject": {
        "reference": "Patient/694f7e5e-053a-4730-b94c-73e5aacb86c2"
      },
      "encounter": {
        "reference": "Encounter/f001",
        "display": "encounter who leads to this prescription"
      },
      "authoredOn": "2026-01-01T08:15:00.000+00:00",
      "requester": {
        "reference": "Practitioner/33d87640-6b2a-40b0-ab11-542478a88d5a"
      },
      "recorder": {
        "reference": "Practitioner/f204",
        "display": "Carla Espinoza"
      },
      "reasonCode": [ {
        "coding": [ {
          "system": "http://snomed.info/sct",
          "code": "59621000",
          "display": "Essential hypertension (disorder)"
        } ]
      } ],
      "reasonReference": [ {
        "reference": "Condition/f201",
        "display": "condition for prescribing this medication"
      } ],
      "instantiatesCanonical": [ "http://www.bccancer.bc.ca/chemotherapy-protocols-site/Documents/Lymphoma-Myeloma/ULYBRENTUX%20Protocol_1Jun2017.pdf" ],
      "instantiatesUri": [ "http://www.bccancer.bc.ca/chemotherapy-protocols-site/Documents/Lymphoma-Myeloma/ULYBRENTUX%20Protocol_1Jun2017.pdf" ],
      "courseOfTherapyType": {
        "coding": [ {
          "system": "http://terminology.hl7.org/CodeSystem/medicationrequest-course-of-therapy",
          "code": "acute",
          "display": "Short course (acute) therapy"
        } ]
      },
      "dosageInstruction": [ {
        "timing": {
          "repeat": {
            "boundsPeriod": {
              "start": "2025-01-01T08:15:00.000+00:00"
            }
          }
        }
      } ]
    },
    "request": {
      "method": "PUT",
      "url": "MedicationRequest/d0c5ae9f-a0dd-4563-b7d8-a0bc700a17a8"
    }
  }, {
    "fullUrl": "https://madie.cms.gov/Coverage/33382202-e379-4de6-b76e-4da83b1540f6",
    "resource": {
      "resourceType": "Coverage",
      "id": "33382202-e379-4de6-b76e-4da83b1540f6",
      "meta": {
        "profile": [ "http://hl7.org/fhir/us/qicore/StructureDefinition/qicore-coverage" ]
      },
      "identifier": [ {
        "system": "http://benefitsinc.com/certificate",
        "value": "12345"
      } ],
      "status": "active",
      "type": {
        "coding": [ {
          "system": "https://nahdo.org/sopt",
          "version": "1.0.1",
          "code": "1",
          "display": "MEDICARE",
          "userSelected": true
        } ]
      },
      "subscriberId": "AB9876",
      "beneficiary": {
        "reference": "Patient/694f7e5e-053a-4730-b94c-73e5aacb86c2"
      },
      "relationship": {
        "coding": [ {
          "system": "http://terminology.hl7.org/CodeSystem/subscriber-relationship",
          "code": "self"
        } ]
      },
      "payor": [ {
        "reference": "Organization/b4815b4e-0af6-4a60-9c37-a4420bac249f"
      } ]
    },
    "request": {
      "method": "PUT",
      "url": "Coverage/33382202-e379-4de6-b76e-4da83b1540f6"
    }
  }, {
    "fullUrl": "https://madie.cms.gov/Organization/b4815b4e-0af6-4a60-9c37-a4420bac249f",
    "resource": {
      "resourceType": "Organization",
      "id": "b4815b4e-0af6-4a60-9c37-a4420bac249f",
      "meta": {
        "profile": [ "http://hl7.org/fhir/us/qicore/StructureDefinition/qicore-organization" ]
      },
      "identifier": [ {
        "use": "temp",
        "system": "urn:oid:2.16.840.1.113883.4.4",
        "value": "21-3259825"
      } ],
      "active": true,
      "type": [ {
        "coding": [ {
          "system": "http://terminology.hl7.org/CodeSystem/organization-type",
          "code": "pay",
          "display": "Payer"
        } ]
      } ],
      "name": "Blue Cross Blue Shield of Texas",
      "telecom": [ {
        "system": "phone",
        "value": "(+1) 972-766-6900"
      } ],
      "address": [ {
        "use": "billing",
        "type": "postal",
        "line": [ "P.O. Box 660044" ],
        "city": "Dallas",
        "state": "TX",
        "postalCode": "75266-0044",
        "country": "USA"
      } ]
    },
    "request": {
      "method": "PUT",
      "url": "Organization/b4815b4e-0af6-4a60-9c37-a4420bac249f"
    }
  }, {
    "fullUrl": "https://madie.cms.gov/Practitioner/e61a9e78-4494-4b52-bd46-ed23d2cf0dbb",
    "resource": {
      "resourceType": "Practitioner",
      "id": "e61a9e78-4494-4b52-bd46-ed23d2cf0dbb",
      "meta": {
        "profile": [ "http://hl7.org/fhir/us/qicore/StructureDefinition/qicore-practitioner" ]
      },
      "identifier": [ {
        "system": "http://hl7.org/fhir/sid/us-npi",
        "value": "0723660813"
      } ],
      "name": [ {
        "family": "Evil",
        "prefix": [ "Dr" ]
      } ]
    },
    "request": {
      "method": "PUT",
      "url": "Practitioner/e61a9e78-4494-4b52-bd46-ed23d2cf0dbb"
    }
  }, {
    "fullUrl": "https://madie.cms.gov/MeasureReport/b6c2e965-1d2f-463d-806b-e33c6c567dc0",
    "resource": {
      "resourceType": "MeasureReport",
      "id": "b6c2e965-1d2f-463d-806b-e33c6c567dc0",
      "meta": {
        "profile": [ "http://hl7.org/fhir/us/cqfmeasures/StructureDefinition/test-case-cqfm" ]
      },
      "contained": [ {
        "resourceType": "Parameters",
        "id": "876199db-c504-4ac8-b8e4-a9828def9816-parameters",
        "parameter": [ {
          "name": "subject",
          "valueString": "694f7e5e-053a-4730-b94c-73e5aacb86c2"
        } ]
      } ],
      "extension": [ {
        "url": "http://hl7.org/fhir/StructureDefinition/cqf-inputParameters",
        "valueReference": {
          "reference": "#876199db-c504-4ac8-b8e4-a9828def9816-parameters"
        }
      }, {
        "url": "http://hl7.org/fhir/us/cqfmeasures/StructureDefinition/cqfm-testCaseDescription",
        "valueMarkdown": "Testing medication request attributes"
      } ],
      "modifierExtension": [ {
        "url": "http://hl7.org/fhir/us/cqfmeasures/StructureDefinition/cqfm-isTestCase",
        "valueBoolean": true
      } ],
      "status": "complete",
      "type": "individual",
      "measure": "https://madie.cms.gov/Measure/NHSNGlycemicControlHypoglycemiaInitialPopulation",
      "period": {
        "start": "2026-01-01",
        "end": "2026-12-31"
      },
      "group": [ {
        "id": "Group_1",
        "population": [ {
          "id": "InitialPopulation_1",
          "code": {
            "coding": [ {
              "system": "http://terminology.hl7.org/CodeSystem/measure-population",
              "code": "initial-population",
              "display": "Initial Population"
            } ]
          },
          "count": 1
        } ],
        "measureScore": {
          "value": 0.0
        }
      } ],
      "evaluatedResource": [ {
        "reference": "Patient/694f7e5e-053a-4730-b94c-73e5aacb86c2"
      }, {
        "reference": "Encounter/3de85f22-7c8c-47ac-9d34-a8636e3a1b9c"
      }, {
        "reference": "Location/2b4f0e5f-3028-4d13-a3ec-94dbec805f54"
      }, {
        "reference": "MedicationRequest/d0c5ae9f-a0dd-4563-b7d8-a0bc700a17a8"
      }, {
        "reference": "Coverage/33382202-e379-4de6-b76e-4da83b1540f6"
      }, {
        "reference": "Organization/b4815b4e-0af6-4a60-9c37-a4420bac249f"
      }, {
        "reference": "Practitioner/e61a9e78-4494-4b52-bd46-ed23d2cf0dbb"
      } ]
    },
    "request": {
      "method": "PUT",
      "url": "MeasureReport/b6c2e965-1d2f-463d-806b-e33c6c567dc0"
    }
  } ]
}