{
  "resourceType": "Bundle",
  "id": "64946df7d09ece2c2e9bf947",
  "type": "collection",
  "entry": [ {
    "fullUrl": "https://madie.cms.gov/Patient/f2044a96-a0a7-4d28-8a38-ec5458468acf",
    "resource": {
      "resourceType": "Patient",
      "id": "f2044a96-a0a7-4d28-8a38-ec5458468acf",
      "meta": {
        "profile": [ "http://hl7.org/fhir/us/qicore/StructureDefinition/qicore-patient" ]
      },
      "extension": [ {
        "url": "http://hl7.org/fhir/us/core/StructureDefinition/us-core-race",
        "extension": [ {
          "url": "ombCategory",
          "valueCoding": {
            "system": "urn:oid:2.16.840.1.113883.6.238",
            "code": "2028-9",
            "display": "Asian",
            "userSelected": true
          }
        }, {
          "url": "text",
          "valueString": "Asian"
        } ]
      }, {
        "url": "http://hl7.org/fhir/us/core/StructureDefinition/us-core-ethnicity",
        "extension": [ {
          "url": "ombCategory",
          "valueCoding": {
            "system": "urn:oid:2.16.840.1.113883.6.238",
            "code": "2135-2",
            "display": "Hispanic or Latino",
            "userSelected": true
          }
        }, {
          "url": "text",
          "valueString": "Hispanic or Latino"
        } ]
      } ],
      "identifier": [ {
        "type": {
          "coding": [ {
            "system": "http://terminology.hl7.org/CodeSystem/v2-0203",
            "code": "MR"
          } ]
        },
        "system": "https://bonnie-fhir.healthit.gov/",
        "value": "64946df7d09ece2c2e9bf947"
      } ],
      "name": [ {
        "family": "17NumFail",
        "given": [ "SingleEncInMP" ]
      } ],
      "gender": "male",
      "birthDate": "1962-05-05"
    }
  }, {
    "fullUrl": "https://madie.cms.gov/Condition/fb0969b4-2918-4a61-821f-6bdb127ca4cd",
    "resource": {
      "resourceType": "Condition",
      "id": "fb0969b4-2918-4a61-821f-6bdb127ca4cd",
      "meta": {
        "profile": [ "http://hl7.org/fhir/us/qicore/StructureDefinition/qicore-condition-problems-health-concerns" ]
      },
      "clinicalStatus": {
        "coding": [ {
          "system": "http://terminology.hl7.org/CodeSystem/condition-clinical",
          "code": "active",
          "display": "active",
          "userSelected": true
        } ]
      },
      "category": [ {
        "coding": [ {
          "system": "http://terminology.hl7.org/CodeSystem/condition-category",
          "code": "problem-list-item",
          "display": "Problem List Item"
        } ]
      } ],
      "code": {
        "coding": [ {
          "system": "http://hl7.org/fhir/sid/icd-9-cm",
          "version": "2013",
          "code": "042",
          "display": "Human immunodeficiency virus [HIV] disease",
          "userSelected": true
        }, {
          "system": "http://snomed.info/sct",
          "version": "http://snomed.info/sct/731000124108/version/20250301",
          "code": "165816005",
          "userSelected": true
        } ]
      },
      "subject": {
        "reference": "Patient/f2044a96-a0a7-4d28-8a38-ec5458468acf"
      },
      "onsetDateTime": "2001-06-22T10:00:00.000+00:00",
      "recordedDate": "2001-06-22T11:00:00.000+00:00"
    }
  }, {
    "fullUrl": "https://madie.cms.gov/Encounter/c6a4dc7e-9d17-4389-836a-6e6a91433930",
    "resource": {
      "resourceType": "Encounter",
      "id": "c6a4dc7e-9d17-4389-836a-6e6a91433930",
      "meta": {
        "profile": [ "http://hl7.org/fhir/us/qicore/StructureDefinition/qicore-encounter" ]
      },
      "status": "finished",
      "class": {
        "system": "http://terminology.hl7.org/CodeSystem/v3-ActCode",
        "code": "AMB",
        "display": "ambulatory"
      },
      "type": [ {
        "coding": [ {
          "system": "http://snomed.info/sct",
          "version": "2022-09",
          "code": "281036007",
          "display": "Follow-up consultation (procedure)",
          "userSelected": true
        } ]
      } ],
      "subject": {
        "reference": "Patient/f2044a96-a0a7-4d28-8a38-ec5458468acf"
      },
      "period": {
        "start": "2026-06-22T08:00:00.000+00:00",
        "end": "2026-06-22T08:15:00.000+00:00"
      }
    }
  }, {
    "fullUrl": "https://madie.cms.gov/Coverage/b8f402bd-8523-4111-a468-cbc3f856b93a",
    "resource": {
      "resourceType": "Coverage",
      "id": "b8f402bd-8523-4111-a468-cbc3f856b93a",
      "meta": {
        "profile": [ "http://hl7.org/fhir/us/qicore/StructureDefinition/qicore-coverage" ]
      },
      "status": "active",
      "subscriberId": "123456",
      "beneficiary": {
        "reference": "Patient/f2044a96-a0a7-4d28-8a38-ec5458468acf"
      },
      "relationship": {
        "coding": [ {
          "system": "http://terminology.hl7.org/CodeSystem/subscriber-relationship",
          "code": "self",
          "display": "Self"
        } ]
      },
      "payor": [ {
        "reference": "Organization/88a2412b-ebc1-4d8c-b03d-380be9a1ff7e"
      } ]
    }
  }, {
    "fullUrl": "https://madie.cms.gov/Organization/88a2412b-ebc1-4d8c-b03d-380be9a1ff7e",
    "resource": {
      "resourceType": "Organization",
      "id": "88a2412b-ebc1-4d8c-b03d-380be9a1ff7e",
      "meta": {
        "profile": [ "http://hl7.org/fhir/us/qicore/StructureDefinition/qicore-organization" ]
      },
      "identifier": [ {
        "use": "temp",
        "system": "urn:oid:2.16.840.1.113883.4.4",
        "value": "21-3259825"
      } ],
      "active": true,
      "type": [ {
        "coding": [ {
          "system": "http://terminology.hl7.org/CodeSystem/organization-type",
          "code": "pay",
          "display": "Payer"
        } ]
      } ],
      "name": "Blue Cross Blue Shield of Texas",
      "telecom": [ {
        "system": "phone",
        "value": "(+1) 972-766-6900"
      } ],
      "address": [ {
        "use": "billing",
        "type": "postal",
        "line": [ "P.O. Box 660044" ],
        "city": "Dallas",
        "state": "TX",
        "postalCode": "75266-0044",
        "country": "USA"
      } ]
    }
  }, {
    "fullUrl": "https://madie.cms.gov/Practitioner/e5434a94-40a7-4ca9-a33c-36fd6de5d5ea",
    "resource": {
      "resourceType": "Practitioner",
      "id": "e5434a94-40a7-4ca9-a33c-36fd6de5d5ea",
      "meta": {
        "profile": [ "http://hl7.org/fhir/us/qicore/StructureDefinition/qicore-practitioner" ]
      },
      "identifier": [ {
        "system": "http://hl7.org/fhir/sid/us-npi",
        "value": "1689411712"
      } ],
      "name": [ {
        "family": "Evil",
        "prefix": [ "Dr" ]
      } ]
    }
  }, {
    "fullUrl": "https://madie.cms.gov/MeasureReport/5b9e16ff-f700-49f5-bba7-5832699c3a6d",
    "resource": {
      "resourceType": "MeasureReport",
      "id": "5b9e16ff-f700-49f5-bba7-5832699c3a6d",
      "meta": {
        "profile": [ "http://hl7.org/fhir/us/cqfmeasures/StructureDefinition/test-case-cqfm" ]
      },
      "contained": [ {
        "resourceType": "Parameters",
        "id": "65931b14-9053-434f-b6ea-4f00c4aa5552-parameters",
        "parameter": [ {
          "name": "subject",
          "valueString": "f2044a96-a0a7-4d28-8a38-ec5458468acf"
        } ]
      } ],
      "extension": [ {
        "url": "http://hl7.org/fhir/StructureDefinition/cqf-inputParameters",
        "valueReference": {
          "reference": "#65931b14-9053-434f-b6ea-4f00c4aa5552-parameters"
        }
      }, {
        "url": "http://hl7.org/fhir/us/cqfmeasures/StructureDefinition/cqfm-testCaseDescription",
        "valueMarkdown": "Patient has only one encounter during the MP and no VL."
      } ],
      "modifierExtension": [ {
        "url": "http://hl7.org/fhir/us/cqfmeasures/StructureDefinition/cqfm-isTestCase",
        "valueBoolean": true
      } ],
      "status": "complete",
      "type": "individual",
      "measure": "https://madie.cms.gov/Measure/CMS1157FHIRHIVRetention",
      "period": {
        "start": "2026-01-01",
        "end": "2026-12-31"
      },
      "group": [ {
        "id": "Group_1",
        "population": [ {
          "id": "InitialPopulation_1",
          "code": {
            "coding": [ {
              "system": "http://terminology.hl7.org/CodeSystem/measure-population",
              "code": "initial-population",
              "display": "Initial Population"
            } ]
          },
          "count": 1
        }, {
          "id": "Denominator_1",
          "code": {
            "coding": [ {
              "system": "http://terminology.hl7.org/CodeSystem/measure-population",
              "code": "denominator",
              "display": "Denominator"
            } ]
          },
          "count": 1
        }, {
          "id": "Numerator_1",
          "code": {
            "coding": [ {
              "system": "http://terminology.hl7.org/CodeSystem/measure-population",
              "code": "numerator",
              "display": "Numerator"
            } ]
          },
          "count": 0
        } ],
        "measureScore": {
          "value": 1.0
        }
      } ],
      "evaluatedResource": [ {
        "reference": "Patient/f2044a96-a0a7-4d28-8a38-ec5458468acf"
      }, {
        "reference": "Condition/fb0969b4-2918-4a61-821f-6bdb127ca4cd"
      }, {
        "reference": "Encounter/c6a4dc7e-9d17-4389-836a-6e6a91433930"
      }, {
        "reference": "Coverage/b8f402bd-8523-4111-a468-cbc3f856b93a"
      }, {
        "reference": "Organization/88a2412b-ebc1-4d8c-b03d-380be9a1ff7e"
      }, {
        "reference": "Practitioner/e5434a94-40a7-4ca9-a33c-36fd6de5d5ea"
      } ]
    }
  } ]
}