{
  "resourceType": "Bundle",
  "id": "6101649398086b4fedf65e39",
  "type": "collection",
  "entry": [ {
    "fullUrl": "https://madie.cms.gov/Patient/bf0200ab-3e37-4e90-8517-ffb351f2e563",
    "resource": {
      "resourceType": "Patient",
      "id": "bf0200ab-3e37-4e90-8517-ffb351f2e563",
      "meta": {
        "profile": [ "http://hl7.org/fhir/us/qicore/StructureDefinition/qicore-patient" ]
      },
      "extension": [ {
        "url": "http://hl7.org/fhir/us/core/StructureDefinition/us-core-race",
        "extension": [ {
          "url": "ombCategory",
          "valueCoding": {
            "system": "urn:oid:2.16.840.1.113883.6.238",
            "code": "1002-5",
            "display": "American Indian or Alaska Native"
          }
        }, {
          "url": "text",
          "valueString": "American Indian or Alaska Native"
        } ]
      }, {
        "url": "http://hl7.org/fhir/us/core/StructureDefinition/us-core-ethnicity",
        "extension": [ {
          "url": "ombCategory",
          "valueCoding": {
            "system": "urn:oid:2.16.840.1.113883.6.238",
            "code": "2186-5",
            "display": "Not Hispanic or Latino"
          }
        }, {
          "url": "text",
          "valueString": "Not Hispanic or Latino"
        } ]
      }, {
        "url": "http://hl7.org/fhir/us/core/StructureDefinition/us-core-sex",
        "valueCode": "248153007"
      } ],
      "identifier": [ {
        "type": {
          "coding": [ {
            "system": "http://terminology.hl7.org/CodeSystem/v2-0203",
            "code": "MR"
          } ]
        },
        "system": "https://GoodHealthCare.com",
        "value": "6516516486115651"
      } ],
      "active": true,
      "name": [ {
        "use": "usual",
        "family": "DENEXFail",
        "given": [ "HasBMILT40" ]
      } ],
      "gender": "male",
      "birthDate": "1958-12-01"
    }
  }, {
    "fullUrl": "https://madie.cms.gov/Observation/198adfb7-364f-4e7c-9788-e187072cc458",
    "resource": {
      "resourceType": "Observation",
      "id": "198adfb7-364f-4e7c-9788-e187072cc458",
      "meta": {
        "profile": [ "http://hl7.org/fhir/us/qicore/StructureDefinition/qicore-observation-screening-assessment" ]
      },
      "status": "final",
      "category": [ {
        "coding": [ {
          "system": "http://terminology.hl7.org/CodeSystem/observation-category",
          "code": "survey",
          "display": "Survey"
        } ]
      } ],
      "code": {
        "coding": [ {
          "system": "http://loinc.org",
          "version": "2.76",
          "code": "80976-4"
        } ]
      },
      "subject": {
        "reference": "Patient/bf0200ab-3e37-4e90-8517-ffb351f2e563"
      },
      "effectivePeriod": {
        "start": "2026-01-14T08:00:00.000+00:00"
      },
      "valueInteger": 5
    }
  }, {
    "fullUrl": "https://madie.cms.gov/Observation/397f97d4-08ac-44df-911a-74d9e78b74cb",
    "resource": {
      "resourceType": "Observation",
      "id": "397f97d4-08ac-44df-911a-74d9e78b74cb",
      "meta": {
        "profile": [ "http://hl7.org/fhir/us/qicore/StructureDefinition/qicore-observation-screening-assessment" ]
      },
      "status": "final",
      "category": [ {
        "coding": [ {
          "system": "http://terminology.hl7.org/CodeSystem/observation-category",
          "code": "survey",
          "display": "Survey"
        } ]
      } ],
      "code": {
        "coding": [ {
          "system": "http://loinc.org",
          "version": "2.76",
          "code": "80976-4"
        } ]
      },
      "subject": {
        "reference": "Patient/bf0200ab-3e37-4e90-8517-ffb351f2e563"
      },
      "effectivePeriod": {
        "start": "2026-10-12T08:00:00.000+00:00"
      },
      "valueInteger": 3
    }
  }, {
    "fullUrl": "https://madie.cms.gov/Condition/47f3b02c-f534-4038-9f76-fe7276773a3e",
    "resource": {
      "resourceType": "Condition",
      "id": "47f3b02c-f534-4038-9f76-fe7276773a3e",
      "meta": {
        "profile": [ "http://hl7.org/fhir/us/qicore/StructureDefinition/qicore-condition-problems-health-concerns" ]
      },
      "clinicalStatus": {
        "coding": [ {
          "system": "http://terminology.hl7.org/CodeSystem/condition-clinical",
          "code": "active",
          "display": "active"
        } ]
      },
      "verificationStatus": {
        "coding": [ {
          "system": "http://terminology.hl7.org/CodeSystem/condition-ver-status",
          "code": "confirmed",
          "display": "Confirmed"
        } ]
      },
      "category": [ {
        "coding": [ {
          "system": "http://terminology.hl7.org/CodeSystem/condition-category",
          "code": "problem-list-item",
          "display": "Problem List Item"
        } ]
      } ],
      "code": {
        "coding": [ {
          "system": "http://hl7.org/fhir/sid/icd-10-cm",
          "version": "2024",
          "code": "N40.1"
        } ]
      },
      "subject": {
        "reference": "Patient/bf0200ab-3e37-4e90-8517-ffb351f2e563"
      },
      "onsetPeriod": {
        "start": "2025-12-31T08:00:00.000+00:00"
      }
    }
  }, {
    "fullUrl": "https://madie.cms.gov/Encounter/2f1f5bf2-514a-4048-8909-b49da2fd3265",
    "resource": {
      "resourceType": "Encounter",
      "id": "2f1f5bf2-514a-4048-8909-b49da2fd3265",
      "meta": {
        "profile": [ "http://hl7.org/fhir/us/qicore/StructureDefinition/qicore-encounter" ]
      },
      "status": "finished",
      "class": {
        "system": "http://terminology.hl7.org/CodeSystem/v3-ActCode",
        "code": "AMB",
        "display": "ambulatory"
      },
      "type": [ {
        "coding": [ {
          "system": "http://www.ama-assn.org/go/cpt",
          "version": "2024",
          "code": "99214"
        } ]
      } ],
      "subject": {
        "reference": "Patient/bf0200ab-3e37-4e90-8517-ffb351f2e563"
      },
      "period": {
        "start": "2026-02-12T08:00:00.000+00:00",
        "end": "2026-02-12T09:15:00.000+00:00"
      }
    }
  }, {
    "fullUrl": "https://madie.cms.gov/Observation/e8f5216a-ec6b-4b4d-a38f-230161eca2e8",
    "resource": {
      "resourceType": "Observation",
      "id": "e8f5216a-ec6b-4b4d-a38f-230161eca2e8",
      "meta": {
        "profile": [ "http://hl7.org/fhir/StructureDefinition/bmi" ]
      },
      "status": "final",
      "category": [ {
        "coding": [ {
          "system": "http://terminology.hl7.org/CodeSystem/observation-category",
          "code": "vital-signs",
          "display": "Vital Signs"
        } ]
      }, {
        "coding": [ {
          "system": "http://terminology.hl7.org/CodeSystem/observation-category",
          "code": "survey"
        } ]
      } ],
      "code": {
        "coding": [ {
          "system": "http://loinc.org",
          "version": "2.76",
          "code": "39156-5"
        } ]
      },
      "subject": {
        "reference": "Patient/bf0200ab-3e37-4e90-8517-ffb351f2e563"
      },
      "effectiveDateTime": "2026-01-14T08:00:00.000+00:00",
      "valueQuantity": {
        "value": 39.9,
        "unit": "kg/m2",
        "system": "http://unitsofmeasure.org",
        "code": "kg/m2"
      }
    }
  }, {
    "fullUrl": "https://madie.cms.gov/MeasureReport/aecd8bf2-6420-458d-a985-16cc468a182c",
    "resource": {
      "resourceType": "MeasureReport",
      "id": "aecd8bf2-6420-458d-a985-16cc468a182c",
      "meta": {
        "profile": [ "http://hl7.org/fhir/us/cqfmeasures/StructureDefinition/test-case-cqfm" ]
      },
      "contained": [ {
        "resourceType": "Parameters",
        "id": "5b8e9059-4573-41e8-9aba-3909b18709cf-parameters",
        "parameter": [ {
          "name": "subject",
          "valueString": "bf0200ab-3e37-4e90-8517-ffb351f2e563"
        } ]
      } ],
      "extension": [ {
        "url": "http://hl7.org/fhir/StructureDefinition/cqf-inputParameters",
        "valueReference": {
          "reference": "#5b8e9059-4573-41e8-9aba-3909b18709cf-parameters"
        }
      }, {
        "url": "http://hl7.org/fhir/us/cqfmeasures/StructureDefinition/cqfm-testCaseDescription",
        "valueMarkdown": "Patient meeting initial population/denominator criteria also has BMI observation which does not meet the denominator exclusion criteria of greater then or equal to 40"
      } ],
      "modifierExtension": [ {
        "url": "http://hl7.org/fhir/us/cqfmeasures/StructureDefinition/cqfm-isTestCase",
        "valueBoolean": true
      } ],
      "status": "complete",
      "type": "individual",
      "measure": "https://madie.cms.gov/Measure/CMS771FHIRUrinarySymptomScoreBPH",
      "period": {
        "start": "2026-01-01",
        "end": "2026-12-31"
      },
      "group": [ {
        "id": "Group_1",
        "population": [ {
          "id": "InitialPopulation_1",
          "code": {
            "coding": [ {
              "system": "http://terminology.hl7.org/CodeSystem/measure-population",
              "code": "initial-population",
              "display": "Initial Population"
            } ]
          },
          "count": 1
        }, {
          "id": "Denominator_1",
          "code": {
            "coding": [ {
              "system": "http://terminology.hl7.org/CodeSystem/measure-population",
              "code": "denominator",
              "display": "Denominator"
            } ]
          },
          "count": 1
        }, {
          "id": "DenominatorExclusion_1",
          "code": {
            "coding": [ {
              "system": "http://terminology.hl7.org/CodeSystem/measure-population",
              "code": "denominator-exclusion",
              "display": "Denominator Exclusion"
            } ]
          },
          "count": 0
        }, {
          "id": "Numerator_1",
          "code": {
            "coding": [ {
              "system": "http://terminology.hl7.org/CodeSystem/measure-population",
              "code": "numerator",
              "display": "Numerator"
            } ]
          },
          "count": 0
        } ],
        "measureScore": {
          "value": 1.0
        }
      } ],
      "evaluatedResource": [ {
        "reference": "Patient/bf0200ab-3e37-4e90-8517-ffb351f2e563"
      }, {
        "reference": "Observation/198adfb7-364f-4e7c-9788-e187072cc458"
      }, {
        "reference": "Observation/397f97d4-08ac-44df-911a-74d9e78b74cb"
      }, {
        "reference": "Condition/47f3b02c-f534-4038-9f76-fe7276773a3e"
      }, {
        "reference": "Encounter/2f1f5bf2-514a-4048-8909-b49da2fd3265"
      }, {
        "reference": "Observation/e8f5216a-ec6b-4b4d-a38f-230161eca2e8"
      } ]
    }
  } ]
}