{
  "resourceType": "Bundle",
  "id": "612e6f8102c62a011f2f20b5",
  "type": "transaction",
  "entry": [ {
    "fullUrl": "https://madie.cms.gov/Patient/ee2d3d5b-7bda-4fae-b893-aff7f4ac163b",
    "resource": {
      "resourceType": "Patient",
      "id": "ee2d3d5b-7bda-4fae-b893-aff7f4ac163b",
      "meta": {
        "profile": [ "http://hl7.org/fhir/us/qicore/StructureDefinition/qicore-patient" ]
      },
      "text": {
        "status": "generated",
        "div": "<div xmlns=\"http://www.w3.org/1999/xhtml\"><div class=\"hapiHeaderText\">MARix2DayAfterAnesProc1DayAFICUAdm <b>NUMERFAIL </b></div><table class=\"hapiPropertyTable\"><tbody><tr><td>Identifier</td><td>64846eeef3495268258129327974b438</td></tr><tr><td>Date of birth</td><td><span>03 March 1974</span></td></tr></tbody></table></div>"
      },
      "extension": [ {
        "url": "http://hl7.org/fhir/us/core/StructureDefinition/us-core-race",
        "extension": [ {
          "url": "ombCategory",
          "valueCoding": {
            "system": "urn:oid:2.16.840.1.113883.6.238",
            "code": "1002-5",
            "display": "American Indian or Alaska Native",
            "userSelected": true
          }
        }, {
          "url": "text",
          "valueString": "American Indian or Alaska Native"
        } ]
      }, {
        "url": "http://hl7.org/fhir/us/core/StructureDefinition/us-core-ethnicity",
        "extension": [ {
          "url": "ombCategory",
          "valueCoding": {
            "system": "urn:oid:2.16.840.1.113883.6.238",
            "code": "2135-2",
            "display": "Hispanic or Latino",
            "userSelected": true
          }
        }, {
          "url": "text",
          "valueString": "Hispanic or Latino"
        } ]
      } ],
      "identifier": [ {
        "type": {
          "coding": [ {
            "system": "http://terminology.hl7.org/CodeSystem/v2-0203",
            "code": "MR"
          } ]
        },
        "system": "https://bonnie-fhir.healthit.gov/",
        "value": "612e6f8102c62a011f2f20b5"
      } ],
      "active": true,
      "name": [ {
        "use": "usual",
        "family": "NUMERFail",
        "given": [ "MARix2DayAfterAnesProc1DayAFICUAdm" ]
      } ],
      "gender": "female",
      "birthDate": "1975-03-03"
    },
    "request": {
      "method": "PUT",
      "url": "Patient/ee2d3d5b-7bda-4fae-b893-aff7f4ac163b"
    }
  }, {
    "fullUrl": "https://madie.cms.gov/Encounter/d93f9e7c-5956-4ef8-821b-75b6499daf03",
    "resource": {
      "resourceType": "Encounter",
      "id": "d93f9e7c-5956-4ef8-821b-75b6499daf03",
      "meta": {
        "profile": [ "http://hl7.org/fhir/us/qicore/StructureDefinition/qicore-encounter" ]
      },
      "status": "finished",
      "class": {
        "system": "http://terminology.hl7.org/CodeSystem/v3-ActCode",
        "code": "IMP",
        "display": "inpatient encounter"
      },
      "type": [ {
        "coding": [ {
          "system": "http://snomed.info/sct",
          "code": "8715000"
        } ]
      } ],
      "subject": {
        "reference": "Patient/ee2d3d5b-7bda-4fae-b893-aff7f4ac163b"
      },
      "period": {
        "start": "2026-12-04T08:00:00.000+00:00",
        "end": "2026-12-30T08:15:00.000+00:00"
      },
      "length": {
        "value": 26.0,
        "unit": "days"
      },
      "location": [ {
        "location": {
          "reference": "Location/0e6a9a80-3ec2-48ee-9623-061500ebaac9"
        },
        "period": {
          "start": "2026-12-06T08:00:00.000+00:00",
          "end": "2026-12-12T08:15:00.000+00:00"
        }
      } ]
    },
    "request": {
      "method": "PUT",
      "url": "Encounter/d93f9e7c-5956-4ef8-821b-75b6499daf03"
    }
  }, {
    "fullUrl": "https://madie.cms.gov/Coverage/6eac47ba-b8bf-4004-9f19-11923df2beff",
    "resource": {
      "resourceType": "Coverage",
      "id": "6eac47ba-b8bf-4004-9f19-11923df2beff",
      "status": "active",
      "beneficiary": {
        "reference": "Patient/ee2d3d5b-7bda-4fae-b893-aff7f4ac163b"
      },
      "period": {
        "start": "1975-03-03T08:00:00.000+00:00"
      },
      "payor": [ {
        "reference": "Organization/3998f759-5c2b-4506-9ad7-a4fbfc2d1dfc"
      } ]
    },
    "request": {
      "method": "PUT",
      "url": "Coverage/6eac47ba-b8bf-4004-9f19-11923df2beff"
    }
  }, {
    "fullUrl": "https://madie.cms.gov/MedicationAdministration/2e50861f-380d-4f68-ade5-d1772bacb308",
    "resource": {
      "resourceType": "MedicationAdministration",
      "id": "2e50861f-380d-4f68-ade5-d1772bacb308",
      "meta": {
        "profile": [ "http://hl7.org/fhir/us/qicore/StructureDefinition/qicore-medicationadministration" ]
      },
      "status": "completed",
      "medicationCodeableConcept": {
        "coding": [ {
          "system": "http://www.nlm.nih.gov/research/umls/rxnorm",
          "code": "1114198"
        } ]
      },
      "subject": {
        "reference": "Patient/ee2d3d5b-7bda-4fae-b893-aff7f4ac163b"
      },
      "effectivePeriod": {
        "start": "2026-12-09T11:30:00.000+00:00"
      }
    },
    "request": {
      "method": "PUT",
      "url": "MedicationAdministration/2e50861f-380d-4f68-ade5-d1772bacb308"
    }
  }, {
    "fullUrl": "https://madie.cms.gov/Procedure/f66f7441-47cc-443f-9bc6-29acea353f9e",
    "resource": {
      "resourceType": "Procedure",
      "id": "f66f7441-47cc-443f-9bc6-29acea353f9e",
      "meta": {
        "profile": [ "http://hl7.org/fhir/us/qicore/StructureDefinition/qicore-procedure" ]
      },
      "extension": [ {
        "url": "http://hl7.org/fhir/us/qicore/StructureDefinition/qicore-recorded",
        "valueDateTime": "2013-12-07T13:35:00.000+00:00"
      } ],
      "status": "completed",
      "code": {
        "coding": [ {
          "system": "http://snomed.info/sct",
          "code": "18946005"
        } ]
      },
      "subject": {
        "reference": "Patient/ee2d3d5b-7bda-4fae-b893-aff7f4ac163b"
      },
      "performedPeriod": {
        "start": "2026-12-07T11:00:00.000+00:00",
        "end": "2026-12-07T11:15:00.000+00:00"
      }
    },
    "request": {
      "method": "PUT",
      "url": "Procedure/f66f7441-47cc-443f-9bc6-29acea353f9e"
    }
  }, {
    "fullUrl": "https://madie.cms.gov/Location/0e6a9a80-3ec2-48ee-9623-061500ebaac9",
    "resource": {
      "resourceType": "Location",
      "id": "0e6a9a80-3ec2-48ee-9623-061500ebaac9",
      "meta": {
        "profile": [ "http://hl7.org/fhir/us/qicore/StructureDefinition/qicore-location" ]
      },
      "identifier": [ {
        "use": "usual",
        "system": "http://exampleoflocation.com",
        "value": "B1-S.F2"
      } ],
      "name": "Medical Surgical East, first floor",
      "type": [ {
        "coding": [ {
          "system": "https://www.cdc.gov/nhsn/cdaportal/terminology/codesystem/hsloc.html",
          "code": "1025-6",
          "display": "Trauma Critical Care",
          "userSelected": true
        } ]
      } ]
    },
    "request": {
      "method": "PUT",
      "url": "Location/0e6a9a80-3ec2-48ee-9623-061500ebaac9"
    }
  }, {
    "fullUrl": "https://madie.cms.gov/Organization/3998f759-5c2b-4506-9ad7-a4fbfc2d1dfc",
    "resource": {
      "resourceType": "Organization",
      "id": "3998f759-5c2b-4506-9ad7-a4fbfc2d1dfc",
      "meta": {
        "profile": [ "http://hl7.org/fhir/us/qicore/StructureDefinition/qicore-organization" ]
      },
      "identifier": [ {
        "use": "temp",
        "system": "urn:oid:2.16.840.1.113883.4.4",
        "value": "21-3259825"
      } ],
      "active": true,
      "type": [ {
        "coding": [ {
          "system": "http://terminology.hl7.org/CodeSystem/organization-type",
          "code": "pay",
          "display": "Payer"
        } ]
      } ],
      "name": "Blue Cross Blue Shield of Texas",
      "telecom": [ {
        "system": "phone",
        "value": "(+1) 972-766-6900"
      } ],
      "address": [ {
        "use": "billing",
        "type": "postal",
        "line": [ "P.O. Box 660044" ],
        "city": "Dallas",
        "state": "TX",
        "postalCode": "75266-0044",
        "country": "USA"
      } ]
    },
    "request": {
      "method": "PUT",
      "url": "Organization/3998f759-5c2b-4506-9ad7-a4fbfc2d1dfc"
    }
  }, {
    "fullUrl": "https://madie.cms.gov/Practitioner/5f99937b-2b4c-4d2d-a523-2951e66ba836",
    "resource": {
      "resourceType": "Practitioner",
      "id": "5f99937b-2b4c-4d2d-a523-2951e66ba836",
      "identifier": [ {
        "system": "http://hl7.org/fhir/sid/us-npi",
        "value": "123456"
      } ],
      "name": [ {
        "family": "Evil",
        "prefix": [ "Dr" ]
      } ]
    },
    "request": {
      "method": "PUT",
      "url": "Practitioner/5f99937b-2b4c-4d2d-a523-2951e66ba836"
    }
  }, {
    "fullUrl": "https://madie.cms.gov/MeasureReport/81d66eda-9b55-41b0-b9e5-c4578a15fda6",
    "resource": {
      "resourceType": "MeasureReport",
      "id": "81d66eda-9b55-41b0-b9e5-c4578a15fda6",
      "meta": {
        "profile": [ "http://hl7.org/fhir/us/cqfmeasures/StructureDefinition/test-case-cqfm" ]
      },
      "contained": [ {
        "resourceType": "Parameters",
        "id": "da87d1e0-f059-470c-9c23-688374f3ea3e-parameters",
        "parameter": [ {
          "name": "subject",
          "valueString": "ee2d3d5b-7bda-4fae-b893-aff7f4ac163b"
        } ]
      } ],
      "extension": [ {
        "url": "http://hl7.org/fhir/StructureDefinition/cqf-inputParameters",
        "valueReference": {
          "reference": "#da87d1e0-f059-470c-9c23-688374f3ea3e-parameters"
        }
      }, {
        "url": "http://hl7.org/fhir/us/cqfmeasures/StructureDefinition/cqfm-testCaseDescription",
        "valueMarkdown": "Rivaroxaban VTE Prophylaxis administered 2 day after neuraxial anesthesia which procedure ends 1 day after ICU Adm date\n"
      } ],
      "modifierExtension": [ {
        "url": "http://hl7.org/fhir/us/cqfmeasures/StructureDefinition/cqfm-isTestCase",
        "valueBoolean": true
      } ],
      "status": "complete",
      "type": "individual",
      "measure": "https://madie.cms.gov/Measure/CMS190FHIRVTEProphylaxisICU",
      "period": {
        "start": "2026-01-01",
        "end": "2026-12-31"
      },
      "group": [ {
        "id": "Group_1",
        "population": [ {
          "id": "InitialPopulation_1",
          "code": {
            "coding": [ {
              "system": "http://terminology.hl7.org/CodeSystem/measure-population",
              "code": "initial-population",
              "display": "Initial Population"
            } ]
          },
          "count": 1
        }, {
          "id": "Denominator_1",
          "code": {
            "coding": [ {
              "system": "http://terminology.hl7.org/CodeSystem/measure-population",
              "code": "denominator",
              "display": "Denominator"
            } ]
          },
          "count": 1
        }, {
          "id": "DenominatorExclusion_1",
          "code": {
            "coding": [ {
              "system": "http://terminology.hl7.org/CodeSystem/measure-population",
              "code": "denominator-exclusion",
              "display": "Denominator Exclusion"
            } ]
          },
          "count": 0
        }, {
          "id": "Numerator_1",
          "code": {
            "coding": [ {
              "system": "http://terminology.hl7.org/CodeSystem/measure-population",
              "code": "numerator",
              "display": "Numerator"
            } ]
          },
          "count": 0
        }, {
          "id": "DenominatorException_1",
          "code": {
            "coding": [ {
              "system": "http://terminology.hl7.org/CodeSystem/measure-population",
              "code": "denominator-exception",
              "display": "Denominator Exception"
            } ]
          },
          "count": 0
        } ],
        "measureScore": {
          "value": 0.0
        }
      } ],
      "evaluatedResource": [ {
        "reference": "Patient/ee2d3d5b-7bda-4fae-b893-aff7f4ac163b"
      }, {
        "reference": "Encounter/d93f9e7c-5956-4ef8-821b-75b6499daf03"
      }, {
        "reference": "Coverage/6eac47ba-b8bf-4004-9f19-11923df2beff"
      }, {
        "reference": "MedicationAdministration/2e50861f-380d-4f68-ade5-d1772bacb308"
      }, {
        "reference": "Procedure/f66f7441-47cc-443f-9bc6-29acea353f9e"
      }, {
        "reference": "Location/0e6a9a80-3ec2-48ee-9623-061500ebaac9"
      }, {
        "reference": "Organization/3998f759-5c2b-4506-9ad7-a4fbfc2d1dfc"
      }, {
        "reference": "Practitioner/5f99937b-2b4c-4d2d-a523-2951e66ba836"
      } ]
    },
    "request": {
      "method": "PUT",
      "url": "MeasureReport/81d66eda-9b55-41b0-b9e5-c4578a15fda6"
    }
  } ]
}