{
  "resourceType": "Bundle",
  "id": "612e6a5202c62a011f2e9a04",
  "type": "transaction",
  "entry": [ {
    "fullUrl": "https://madie.cms.gov/Patient/92b4eee9-78aa-4f58-9ccf-750556dfa62c",
    "resource": {
      "resourceType": "Patient",
      "id": "92b4eee9-78aa-4f58-9ccf-750556dfa62c",
      "meta": {
        "profile": [ "http://hl7.org/fhir/us/qicore/StructureDefinition/qicore-patient" ]
      },
      "text": {
        "status": "generated",
        "div": "<div xmlns=\"http://www.w3.org/1999/xhtml\"><div class=\"hapiHeaderText\">EncDx=Obstetrics <b>IPPFAIL </b></div><table class=\"hapiPropertyTable\"><tbody><tr><td>Identifier</td><td>a822ec1a5dddc09a0f677a30161a3b30</td></tr><tr><td>Date of birth</td><td><span>02 January 1974</span></td></tr></tbody></table></div>"
      },
      "extension": [ {
        "url": "http://hl7.org/fhir/us/core/StructureDefinition/us-core-race",
        "extension": [ {
          "url": "ombCategory",
          "valueCoding": {
            "system": "urn:oid:2.16.840.1.113883.6.238",
            "code": "1002-5",
            "display": "American Indian or Alaska Native",
            "userSelected": true
          }
        }, {
          "url": "text",
          "valueString": "American Indian or Alaska Native"
        } ]
      }, {
        "url": "http://hl7.org/fhir/us/core/StructureDefinition/us-core-ethnicity",
        "extension": [ {
          "url": "ombCategory",
          "valueCoding": {
            "system": "urn:oid:2.16.840.1.113883.6.238",
            "code": "2135-2",
            "display": "Hispanic or Latino",
            "userSelected": true
          }
        }, {
          "url": "text",
          "valueString": "Hispanic or Latino"
        } ]
      } ],
      "identifier": [ {
        "type": {
          "coding": [ {
            "system": "http://terminology.hl7.org/CodeSystem/v2-0203",
            "code": "MR"
          } ]
        },
        "system": "https://bonnie-fhir.healthit.gov/",
        "value": "612e6a5202c62a011f2e9a04"
      } ],
      "active": true,
      "name": [ {
        "use": "usual",
        "family": "IPPFail",
        "given": [ "EncDxObstetrics" ]
      } ],
      "gender": "male",
      "birthDate": "1975-01-02"
    },
    "request": {
      "method": "PUT",
      "url": "Patient/92b4eee9-78aa-4f58-9ccf-750556dfa62c"
    }
  }, {
    "fullUrl": "https://madie.cms.gov/Encounter/d7dcec04-b56a-4811-8035-50f7cd91a65b",
    "resource": {
      "resourceType": "Encounter",
      "id": "d7dcec04-b56a-4811-8035-50f7cd91a65b",
      "meta": {
        "profile": [ "http://hl7.org/fhir/us/qicore/StructureDefinition/qicore-encounter" ]
      },
      "status": "finished",
      "class": {
        "system": "http://terminology.hl7.org/CodeSystem/v3-ActCode",
        "code": "IMP",
        "display": "inpatient encounter"
      },
      "type": [ {
        "coding": [ {
          "system": "http://snomed.info/sct",
          "code": "8715000"
        } ]
      } ],
      "subject": {
        "reference": "Patient/92b4eee9-78aa-4f58-9ccf-750556dfa62c"
      },
      "period": {
        "start": "2026-11-01T08:00:00.000+00:00",
        "end": "2026-11-26T08:15:00.000+00:00"
      },
      "length": {
        "value": 25,
        "unit": "days"
      },
      "reasonReference": [ {
        "reference": "Condition/7d9d39c0-1940-470f-b263-a64f2e13271a"
      } ]
    },
    "request": {
      "method": "PUT",
      "url": "Encounter/d7dcec04-b56a-4811-8035-50f7cd91a65b"
    }
  }, {
    "fullUrl": "https://madie.cms.gov/Coverage/2d12642a-8f3c-4aaf-b093-e1f5de99283e",
    "resource": {
      "resourceType": "Coverage",
      "id": "2d12642a-8f3c-4aaf-b093-e1f5de99283e",
      "status": "active",
      "beneficiary": {
        "reference": "Patient/92b4eee9-78aa-4f58-9ccf-750556dfa62c"
      },
      "period": {
        "start": "1975-01-02T08:00:00.000+00:00"
      },
      "payor": [ {
        "reference": "Organization/ea9e0460-0057-450b-9309-a842d48c2cbc"
      } ]
    },
    "request": {
      "method": "PUT",
      "url": "Coverage/2d12642a-8f3c-4aaf-b093-e1f5de99283e"
    }
  }, {
    "fullUrl": "https://madie.cms.gov/Condition/7d9d39c0-1940-470f-b263-a64f2e13271a",
    "resource": {
      "resourceType": "Condition",
      "id": "7d9d39c0-1940-470f-b263-a64f2e13271a",
      "meta": {
        "profile": [ "http://hl7.org/fhir/us/qicore/StructureDefinition/qicore-condition-encounter-diagnosis" ]
      },
      "category": [ {
        "coding": [ {
          "system": "http://terminology.hl7.org/CodeSystem/condition-category",
          "code": "encounter-diagnosis",
          "display": "Encounter Diagnosis"
        } ]
      } ],
      "code": {
        "coding": [ {
          "system": "http://snomed.info/sct",
          "code": "10217006",
          "display": "Third degree perineal laceration (disorder)",
          "userSelected": true
        } ]
      },
      "subject": {
        "reference": "Patient/92b4eee9-78aa-4f58-9ccf-750556dfa62c"
      },
      "encounter": {
        "reference": "Encounter/d7dcec04-b56a-4811-8035-50f7cd91a65b"
      },
      "recordedDate": "2026-11-01T08:00:00.000+00:00"
    },
    "request": {
      "method": "PUT",
      "url": "Condition/7d9d39c0-1940-470f-b263-a64f2e13271a"
    }
  }, {
    "fullUrl": "https://madie.cms.gov/Organization/ea9e0460-0057-450b-9309-a842d48c2cbc",
    "resource": {
      "resourceType": "Organization",
      "id": "ea9e0460-0057-450b-9309-a842d48c2cbc",
      "meta": {
        "profile": [ "http://hl7.org/fhir/us/qicore/StructureDefinition/qicore-organization" ]
      },
      "identifier": [ {
        "use": "temp",
        "system": "urn:oid:2.16.840.1.113883.4.4",
        "value": "21-3259825"
      } ],
      "active": true,
      "type": [ {
        "coding": [ {
          "system": "http://terminology.hl7.org/CodeSystem/organization-type",
          "code": "pay",
          "display": "Payer"
        } ]
      } ],
      "name": "Blue Cross Blue Shield of Texas",
      "telecom": [ {
        "system": "phone",
        "value": "(+1) 972-766-6900"
      } ],
      "address": [ {
        "use": "billing",
        "type": "postal",
        "line": [ "P.O. Box 660044" ],
        "city": "Dallas",
        "state": "TX",
        "postalCode": "75266-0044",
        "country": "USA"
      } ]
    },
    "request": {
      "method": "PUT",
      "url": "Organization/ea9e0460-0057-450b-9309-a842d48c2cbc"
    }
  }, {
    "fullUrl": "https://madie.cms.gov/Practitioner/7c0ff8eb-d0f1-4082-848f-c28f42f4dbf3",
    "resource": {
      "resourceType": "Practitioner",
      "id": "7c0ff8eb-d0f1-4082-848f-c28f42f4dbf3",
      "identifier": [ {
        "system": "http://hl7.org/fhir/sid/us-npi",
        "value": "123456"
      } ],
      "name": [ {
        "family": "Evil",
        "prefix": [ "Dr" ]
      } ]
    },
    "request": {
      "method": "PUT",
      "url": "Practitioner/7c0ff8eb-d0f1-4082-848f-c28f42f4dbf3"
    }
  }, {
    "fullUrl": "https://madie.cms.gov/MeasureReport/10d7dd60-ae90-4b90-92b4-61279e5ee263",
    "resource": {
      "resourceType": "MeasureReport",
      "id": "10d7dd60-ae90-4b90-92b4-61279e5ee263",
      "meta": {
        "profile": [ "http://hl7.org/fhir/us/cqfmeasures/StructureDefinition/test-case-cqfm" ]
      },
      "contained": [ {
        "resourceType": "Parameters",
        "id": "8a87dff9-64e4-47c9-9be8-05cea5809186-parameters",
        "parameter": [ {
          "name": "subject",
          "valueString": "92b4eee9-78aa-4f58-9ccf-750556dfa62c"
        } ]
      } ],
      "extension": [ {
        "url": "http://hl7.org/fhir/StructureDefinition/cqf-inputParameters",
        "valueReference": {
          "reference": "#8a87dff9-64e4-47c9-9be8-05cea5809186-parameters"
        }
      }, {
        "url": "http://hl7.org/fhir/us/cqfmeasures/StructureDefinition/cqfm-testCaseDescription",
        "valueMarkdown": "Patient is > 18 years old, LOS < 120 days during MP with Obstetrics diagnosis\n"
      } ],
      "modifierExtension": [ {
        "url": "http://hl7.org/fhir/us/cqfmeasures/StructureDefinition/cqfm-isTestCase",
        "valueBoolean": true
      } ],
      "status": "complete",
      "type": "individual",
      "measure": "https://madie.cms.gov/Measure/CMS108FHIRVTEProphylaxis",
      "period": {
        "start": "2026-01-01",
        "end": "2026-12-31"
      },
      "group": [ {
        "id": "Group_1",
        "population": [ {
          "id": "InitialPopulation_1",
          "code": {
            "coding": [ {
              "system": "http://terminology.hl7.org/CodeSystem/measure-population",
              "code": "initial-population",
              "display": "Initial Population"
            } ]
          },
          "count": 0
        }, {
          "id": "Denominator_1",
          "code": {
            "coding": [ {
              "system": "http://terminology.hl7.org/CodeSystem/measure-population",
              "code": "denominator",
              "display": "Denominator"
            } ]
          },
          "count": 0
        }, {
          "id": "DenominatorExclusion_1",
          "code": {
            "coding": [ {
              "system": "http://terminology.hl7.org/CodeSystem/measure-population",
              "code": "denominator-exclusion",
              "display": "Denominator Exclusion"
            } ]
          },
          "count": 0
        }, {
          "id": "Numerator_1",
          "code": {
            "coding": [ {
              "system": "http://terminology.hl7.org/CodeSystem/measure-population",
              "code": "numerator",
              "display": "Numerator"
            } ]
          },
          "count": 0
        } ],
        "measureScore": {
          "value": 0.0
        }
      } ],
      "evaluatedResource": [ {
        "reference": "Patient/92b4eee9-78aa-4f58-9ccf-750556dfa62c"
      }, {
        "reference": "Encounter/d7dcec04-b56a-4811-8035-50f7cd91a65b"
      }, {
        "reference": "Coverage/2d12642a-8f3c-4aaf-b093-e1f5de99283e"
      }, {
        "reference": "Condition/7d9d39c0-1940-470f-b263-a64f2e13271a"
      }, {
        "reference": "Organization/ea9e0460-0057-450b-9309-a842d48c2cbc"
      }, {
        "reference": "Practitioner/7c0ff8eb-d0f1-4082-848f-c28f42f4dbf3"
      } ]
    },
    "request": {
      "method": "PUT",
      "url": "MeasureReport/10d7dd60-ae90-4b90-92b4-61279e5ee263"
    }
  } ]
}