{
  "resourceType": "Bundle",
  "id": "63487c2d0968f80122540153",
  "type": "transaction",
  "entry": [ {
    "fullUrl": "https://madie.cms.gov/Patient/de3aa996-43b5-46d9-b8ef-f1839e38470a",
    "resource": {
      "resourceType": "Patient",
      "id": "de3aa996-43b5-46d9-b8ef-f1839e38470a",
      "meta": {
        "profile": [ "http://hl7.org/fhir/us/qicore/StructureDefinition/qicore-patient" ]
      },
      "text": {
        "status": "generated",
        "div": "<div xmlns=\"http://www.w3.org/1999/xhtml\"><div class=\"hapiHeaderText\">AssessPreTerm0RelDate41wks6DaysB4DelivDate <b>DENPASS </b></div><table class=\"hapiPropertyTable\"><tbody><tr><td>Identifier</td><td>7960ac075aea8af54af93e2c2cf979cdfee3882ecdb2da9803e3d40be59520f6</td></tr><tr><td>Date of birth</td><td><span>14 February 1985</span></td></tr></tbody></table></div>"
      },
      "extension": [ {
        "url": "http://hl7.org/fhir/us/core/StructureDefinition/us-core-race",
        "extension": [ {
          "url": "ombCategory",
          "valueCoding": {
            "system": "urn:oid:2.16.840.1.113883.6.238",
            "code": "1002-5",
            "display": "American Indian or Alaska Native",
            "userSelected": true
          }
        }, {
          "url": "text",
          "valueString": "American Indian or Alaska Native"
        } ]
      }, {
        "url": "http://hl7.org/fhir/us/core/StructureDefinition/us-core-ethnicity",
        "extension": [ {
          "url": "ombCategory",
          "valueCoding": {
            "system": "urn:oid:2.16.840.1.113883.6.238",
            "code": "2135-2",
            "display": "Hispanic or Latino",
            "userSelected": true
          }
        }, {
          "url": "text",
          "valueString": "Hispanic or Latino"
        } ]
      } ],
      "identifier": [ {
        "type": {
          "coding": [ {
            "system": "http://terminology.hl7.org/CodeSystem/v2-0203",
            "code": "MR"
          } ]
        },
        "system": "https://bonnie-fhir.healthit.gov/",
        "value": "63487c2d0968f80122540153"
      } ],
      "active": true,
      "name": [ {
        "use": "usual",
        "family": "DENPass",
        "given": [ "AssessPreTerm0RelDate41wks6DaysB4DelivDate" ]
      } ],
      "gender": "female",
      "birthDate": "1998-02-14"
    },
    "request": {
      "method": "PUT",
      "url": "Patient/de3aa996-43b5-46d9-b8ef-f1839e38470a"
    }
  }, {
    "fullUrl": "https://madie.cms.gov/Observation/c52e29c8-ae4b-47c8-86b5-775903a7a3e1",
    "resource": {
      "resourceType": "Observation",
      "id": "c52e29c8-ae4b-47c8-86b5-775903a7a3e1",
      "meta": {
        "profile": [ "http://hl7.org/fhir/us/qicore/StructureDefinition/qicore-simple-observation" ]
      },
      "status": "final",
      "category": [ {
        "coding": [ {
          "system": "http://terminology.hl7.org/CodeSystem/observation-category",
          "code": "exam",
          "display": "exam",
          "userSelected": true
        } ]
      } ],
      "code": {
        "coding": [ {
          "system": "http://loinc.org",
          "code": "11637-6"
        } ]
      },
      "subject": {
        "reference": "Patient/de3aa996-43b5-46d9-b8ef-f1839e38470a"
      },
      "effectiveDateTime": "2025-08-20T09:00:00.000+00:00",
      "valueInteger": 0
    },
    "request": {
      "method": "PUT",
      "url": "Observation/c52e29c8-ae4b-47c8-86b5-775903a7a3e1"
    }
  }, {
    "fullUrl": "https://madie.cms.gov/Observation/6c66c25d-a22b-42af-9425-a1f58546124c",
    "resource": {
      "resourceType": "Observation",
      "id": "6c66c25d-a22b-42af-9425-a1f58546124c",
      "meta": {
        "profile": [ "http://hl7.org/fhir/us/qicore/StructureDefinition/qicore-simple-observation" ]
      },
      "status": "final",
      "category": [ {
        "coding": [ {
          "system": "http://terminology.hl7.org/CodeSystem/observation-category",
          "code": "exam",
          "display": "exam",
          "userSelected": true
        } ]
      } ],
      "code": {
        "coding": [ {
          "system": "http://loinc.org",
          "code": "11639-2"
        } ]
      },
      "subject": {
        "reference": "Patient/de3aa996-43b5-46d9-b8ef-f1839e38470a"
      },
      "effectiveDateTime": "2025-09-19T09:00:00.000+00:00",
      "valueInteger": 0
    },
    "request": {
      "method": "PUT",
      "url": "Observation/6c66c25d-a22b-42af-9425-a1f58546124c"
    }
  }, {
    "fullUrl": "https://madie.cms.gov/Observation/c5027fb4-7733-4b2b-94b2-844f1304cbe0",
    "resource": {
      "resourceType": "Observation",
      "id": "c5027fb4-7733-4b2b-94b2-844f1304cbe0",
      "meta": {
        "profile": [ "http://hl7.org/fhir/us/qicore/StructureDefinition/qicore-simple-observation" ]
      },
      "status": "final",
      "category": [ {
        "coding": [ {
          "system": "http://terminology.hl7.org/CodeSystem/observation-category",
          "code": "exam",
          "display": "exam",
          "userSelected": true
        } ]
      } ],
      "code": {
        "coding": [ {
          "system": "http://loinc.org",
          "code": "11884-4"
        } ]
      },
      "subject": {
        "reference": "Patient/de3aa996-43b5-46d9-b8ef-f1839e38470a"
      },
      "effectiveDateTime": "2026-06-08T20:00:00.000+00:00",
      "valueQuantity": {
        "value": 37,
        "system": "http://unitsofmeasure.org",
        "code": "wk"
      }
    },
    "request": {
      "method": "PUT",
      "url": "Observation/c5027fb4-7733-4b2b-94b2-844f1304cbe0"
    }
  }, {
    "fullUrl": "https://madie.cms.gov/Observation/66063f20-ad93-4780-a021-f8b7283423ae",
    "resource": {
      "resourceType": "Observation",
      "id": "66063f20-ad93-4780-a021-f8b7283423ae",
      "meta": {
        "profile": [ "http://hl7.org/fhir/us/qicore/StructureDefinition/qicore-simple-observation" ]
      },
      "status": "final",
      "category": [ {
        "coding": [ {
          "system": "http://terminology.hl7.org/CodeSystem/observation-category",
          "code": "exam",
          "display": "exam",
          "userSelected": true
        } ]
      } ],
      "code": {
        "coding": [ {
          "system": "http://loinc.org",
          "code": "93857-1"
        } ]
      },
      "subject": {
        "reference": "Patient/de3aa996-43b5-46d9-b8ef-f1839e38470a"
      },
      "effectiveDateTime": "2026-06-08T20:00:00.000+00:00",
      "valueDateTime": "2026-06-08T20:00:00.000+00:00"
    },
    "request": {
      "method": "PUT",
      "url": "Observation/66063f20-ad93-4780-a021-f8b7283423ae"
    }
  }, {
    "fullUrl": "https://madie.cms.gov/Encounter/d6de1d26-639a-43d0-9a5b-83f74f27cf98",
    "resource": {
      "resourceType": "Encounter",
      "id": "d6de1d26-639a-43d0-9a5b-83f74f27cf98",
      "meta": {
        "profile": [ "http://hl7.org/fhir/us/qicore/StructureDefinition/qicore-encounter" ]
      },
      "status": "finished",
      "class": {
        "system": "http://terminology.hl7.org/CodeSystem/v3-ActCode",
        "code": "IMP",
        "display": "inpatient encounter"
      },
      "type": [ {
        "coding": [ {
          "system": "http://snomed.info/sct",
          "code": "8715000"
        } ]
      } ],
      "subject": {
        "reference": "Patient/de3aa996-43b5-46d9-b8ef-f1839e38470a"
      },
      "period": {
        "start": "2026-06-08T08:00:00.000+00:00",
        "end": "2026-06-10T08:15:00.000+00:00"
      },
      "length": {
        "value": 2,
        "unit": "days"
      },
      "reasonReference": [ {
        "reference": "Condition/3ae44b8f-b536-40ad-a962-694f9f663310"
      } ]
    },
    "request": {
      "method": "PUT",
      "url": "Encounter/d6de1d26-639a-43d0-9a5b-83f74f27cf98"
    }
  }, {
    "fullUrl": "https://madie.cms.gov/Procedure/fc73e600-7d1a-40eb-a8c7-96d45d7a688e",
    "resource": {
      "resourceType": "Procedure",
      "id": "fc73e600-7d1a-40eb-a8c7-96d45d7a688e",
      "meta": {
        "profile": [ "http://hl7.org/fhir/us/qicore/StructureDefinition/qicore-procedure" ]
      },
      "extension": [ {
        "url": "http://hl7.org/fhir/us/qicore/StructureDefinition/qicore-recorded",
        "valueDateTime": "2014-04-05T13:35:00.000+00:00"
      } ],
      "status": "completed",
      "code": {
        "coding": [ {
          "system": "http://www.cms.gov/Medicare/Coding/ICD10",
          "code": "10D00Z0"
        }, {
          "system": "http://snomed.info/sct",
          "code": "4504004"
        } ]
      },
      "subject": {
        "reference": "Patient/de3aa996-43b5-46d9-b8ef-f1839e38470a"
      },
      "performedPeriod": {
        "start": "2026-06-08T20:00:00.000+00:00",
        "end": "2026-06-08T20:15:00.000+00:00"
      }
    },
    "request": {
      "method": "PUT",
      "url": "Procedure/fc73e600-7d1a-40eb-a8c7-96d45d7a688e"
    }
  }, {
    "fullUrl": "https://madie.cms.gov/Condition/3ae44b8f-b536-40ad-a962-694f9f663310",
    "resource": {
      "resourceType": "Condition",
      "id": "3ae44b8f-b536-40ad-a962-694f9f663310",
      "meta": {
        "profile": [ "http://hl7.org/fhir/us/qicore/StructureDefinition/qicore-condition-encounter-diagnosis" ]
      },
      "category": [ {
        "coding": [ {
          "system": "http://terminology.hl7.org/CodeSystem/condition-category",
          "code": "encounter-diagnosis",
          "display": "Encounter Diagnosis"
        } ]
      } ],
      "code": {
        "coding": [ {
          "system": "http://snomed.info/sct",
          "version": "2022-09",
          "code": "169826009",
          "display": "Single live birth from singleton pregnancy (finding)",
          "userSelected": true
        } ]
      },
      "subject": {
        "reference": "Patient/de3aa996-43b5-46d9-b8ef-f1839e38470a"
      },
      "encounter": {
        "reference": "Encounter/d6de1d26-639a-43d0-9a5b-83f74f27cf98"
      },
      "recordedDate": "2026-10-20T08:00:00.000+00:00"
    },
    "request": {
      "method": "PUT",
      "url": "Condition/3ae44b8f-b536-40ad-a962-694f9f663310"
    }
  }, {
    "fullUrl": "https://madie.cms.gov/Coverage/e919ce5b-daed-4f57-b862-0fcd23d3a1f0",
    "resource": {
      "resourceType": "Coverage",
      "id": "e919ce5b-daed-4f57-b862-0fcd23d3a1f0",
      "meta": {
        "profile": [ "http://hl7.org/fhir/us/qicore/StructureDefinition/qicore-coverage" ]
      },
      "status": "active",
      "subscriberId": "523435",
      "beneficiary": {
        "reference": "Patient/de3aa996-43b5-46d9-b8ef-f1839e38470a"
      },
      "relationship": {
        "coding": [ {
          "system": "http://terminology.hl7.org/CodeSystem/subscriber-relationship",
          "code": "self"
        } ]
      },
      "payor": [ {
        "reference": "Organization/be6d7f10-69c0-4ec7-919e-7987f5d2e869"
      } ]
    },
    "request": {
      "method": "PUT",
      "url": "Coverage/e919ce5b-daed-4f57-b862-0fcd23d3a1f0"
    }
  }, {
    "fullUrl": "https://madie.cms.gov/Organization/be6d7f10-69c0-4ec7-919e-7987f5d2e869",
    "resource": {
      "resourceType": "Organization",
      "id": "be6d7f10-69c0-4ec7-919e-7987f5d2e869",
      "meta": {
        "profile": [ "http://hl7.org/fhir/us/qicore/StructureDefinition/qicore-organization" ]
      },
      "identifier": [ {
        "use": "temp",
        "system": "urn:oid:2.16.840.1.113883.4.4",
        "value": "21-3259825"
      } ],
      "active": true,
      "type": [ {
        "coding": [ {
          "system": "http://terminology.hl7.org/CodeSystem/organization-type",
          "code": "pay",
          "display": "Payer"
        } ]
      } ],
      "name": "Blue Cross Blue Shield of Texas",
      "telecom": [ {
        "system": "phone",
        "value": "(+1) 972-766-6900"
      } ],
      "address": [ {
        "use": "billing",
        "type": "postal",
        "line": [ "P.O. Box 660044" ],
        "city": "Dallas",
        "state": "TX",
        "postalCode": "75266-0044",
        "country": "USA"
      } ]
    },
    "request": {
      "method": "PUT",
      "url": "Organization/be6d7f10-69c0-4ec7-919e-7987f5d2e869"
    }
  }, {
    "fullUrl": "https://madie.cms.gov/Practitioner/15586f0e-db97-4529-b00e-2ce2da7833cd",
    "resource": {
      "resourceType": "Practitioner",
      "id": "15586f0e-db97-4529-b00e-2ce2da7833cd",
      "meta": {
        "profile": [ "http://hl7.org/fhir/us/qicore/StructureDefinition/qicore-practitioner" ]
      },
      "identifier": [ {
        "system": "http://hl7.org/fhir/sid/us-npi",
        "value": "1234567890"
      } ],
      "name": [ {
        "family": "Evil",
        "prefix": [ "Dr" ]
      } ]
    },
    "request": {
      "method": "PUT",
      "url": "Practitioner/15586f0e-db97-4529-b00e-2ce2da7833cd"
    }
  }, {
    "fullUrl": "https://madie.cms.gov/MeasureReport/efe8bcb8-fa9f-4aa4-8ca3-c1d3aee9db55",
    "resource": {
      "resourceType": "MeasureReport",
      "id": "efe8bcb8-fa9f-4aa4-8ca3-c1d3aee9db55",
      "meta": {
        "profile": [ "http://hl7.org/fhir/us/cqfmeasures/StructureDefinition/test-case-cqfm" ]
      },
      "contained": [ {
        "resourceType": "Parameters",
        "id": "e1921341-dd29-4322-9d39-ad6961520314-parameters",
        "parameter": [ {
          "name": "subject",
          "valueString": "de3aa996-43b5-46d9-b8ef-f1839e38470a"
        } ]
      } ],
      "extension": [ {
        "url": "http://hl7.org/fhir/StructureDefinition/cqf-inputParameters",
        "valueReference": {
          "reference": "#e1921341-dd29-4322-9d39-ad6961520314-parameters"
        }
      }, {
        "url": "http://hl7.org/fhir/us/cqfmeasures/StructureDefinition/cqfm-testCaseDescription",
        "valueMarkdown": "Preterm Births=0, relevant date  41weeks 6 days prior to Asse delivery date\n"
      } ],
      "modifierExtension": [ {
        "url": "http://hl7.org/fhir/us/cqfmeasures/StructureDefinition/cqfm-isTestCase",
        "valueBoolean": true
      } ],
      "status": "complete",
      "type": "individual",
      "measure": "https://madie.cms.gov/Measure/CMS0334FHIRPCCesareanBirth",
      "period": {
        "start": "2026-01-01",
        "end": "2026-12-31"
      },
      "group": [ {
        "id": "Group_1",
        "population": [ {
          "id": "InitialPopulation_1",
          "code": {
            "coding": [ {
              "system": "http://terminology.hl7.org/CodeSystem/measure-population",
              "code": "initial-population",
              "display": "Initial Population"
            } ]
          },
          "count": 1
        }, {
          "id": "Denominator_1",
          "code": {
            "coding": [ {
              "system": "http://terminology.hl7.org/CodeSystem/measure-population",
              "code": "denominator",
              "display": "Denominator"
            } ]
          },
          "count": 1
        }, {
          "id": "DenominatorExclusion_1",
          "code": {
            "coding": [ {
              "system": "http://terminology.hl7.org/CodeSystem/measure-population",
              "code": "denominator-exclusion",
              "display": "Denominator Exclusion"
            } ]
          },
          "count": 0
        }, {
          "id": "Numerator_1",
          "code": {
            "coding": [ {
              "system": "http://terminology.hl7.org/CodeSystem/measure-population",
              "code": "numerator",
              "display": "Numerator"
            } ]
          },
          "count": 1
        } ],
        "measureScore": {
          "value": 0.0
        }
      } ],
      "evaluatedResource": [ {
        "reference": "Patient/de3aa996-43b5-46d9-b8ef-f1839e38470a"
      }, {
        "reference": "Observation/c52e29c8-ae4b-47c8-86b5-775903a7a3e1"
      }, {
        "reference": "Observation/6c66c25d-a22b-42af-9425-a1f58546124c"
      }, {
        "reference": "Observation/c5027fb4-7733-4b2b-94b2-844f1304cbe0"
      }, {
        "reference": "Observation/66063f20-ad93-4780-a021-f8b7283423ae"
      }, {
        "reference": "Encounter/d6de1d26-639a-43d0-9a5b-83f74f27cf98"
      }, {
        "reference": "Procedure/fc73e600-7d1a-40eb-a8c7-96d45d7a688e"
      }, {
        "reference": "Condition/3ae44b8f-b536-40ad-a962-694f9f663310"
      }, {
        "reference": "Coverage/e919ce5b-daed-4f57-b862-0fcd23d3a1f0"
      }, {
        "reference": "Organization/be6d7f10-69c0-4ec7-919e-7987f5d2e869"
      }, {
        "reference": "Practitioner/15586f0e-db97-4529-b00e-2ce2da7833cd"
      } ]
    },
    "request": {
      "method": "PUT",
      "url": "MeasureReport/efe8bcb8-fa9f-4aa4-8ca3-c1d3aee9db55"
    }
  } ]
}