{
  "resourceType": "Bundle",
  "id": "Patient-18-DENEXPass-HospiceCondOverlapsMP",
  "type": "transaction",
  "entry": [ {
    "fullUrl": "https://madie.cms.gov/Patient/6d9426d1-5554-4d6b-9ed0-e3736dd17482",
    "resource": {
      "resourceType": "Patient",
      "id": "6d9426d1-5554-4d6b-9ed0-e3736dd17482",
      "meta": {
        "profile": [ "http://hl7.org/fhir/us/qicore/StructureDefinition/qicore-patient" ]
      },
      "extension": [ {
        "url": "http://hl7.org/fhir/us/core/StructureDefinition/us-core-race",
        "extension": [ {
          "url": "ombCategory",
          "valueCoding": {
            "system": "urn:oid:2.16.840.1.113883.6.238",
            "code": "2028-9",
            "display": "Asian"
          }
        }, {
          "url": "text",
          "valueString": "Asian"
        } ]
      }, {
        "url": "http://hl7.org/fhir/us/core/StructureDefinition/us-core-ethnicity",
        "extension": [ {
          "url": "ombCategory",
          "valueCoding": {
            "system": "urn:oid:2.16.840.1.113883.6.238",
            "code": "2135-2",
            "display": "Hispanic or Latino"
          }
        }, {
          "url": "text",
          "valueString": "Hispanic or Latino"
        } ]
      } ],
      "identifier": [ {
        "system": "http://hospital.smarthealthit.org",
        "value": "999999995"
      } ],
      "name": [ {
        "family": "Bertha",
        "given": [ "Betty" ]
      } ],
      "gender": "female",
      "birthDate": "2007-01-01"
    },
    "request": {
      "method": "PUT",
      "url": "Patient/6d9426d1-5554-4d6b-9ed0-e3736dd17482"
    }
  }, {
    "fullUrl": "https://madie.cms.gov/Encounter/fd6f658c-1609-472e-99a8-042c9d453b06",
    "resource": {
      "resourceType": "Encounter",
      "id": "fd6f658c-1609-472e-99a8-042c9d453b06",
      "meta": {
        "profile": [ "http://hl7.org/fhir/us/qicore/StructureDefinition/qicore-encounter" ]
      },
      "status": "finished",
      "class": {
        "system": "http://terminology.hl7.org/CodeSystem/v3-ActCode",
        "code": "AMB",
        "display": "ambulatory"
      },
      "type": [ {
        "coding": [ {
          "system": "http://snomed.info/sct",
          "code": "185460008",
          "display": "Home visit request by patient (procedure)"
        } ]
      } ],
      "subject": {
        "reference": "Patient/6d9426d1-5554-4d6b-9ed0-e3736dd17482"
      },
      "period": {
        "start": "2026-01-01T00:00:00.000+00:00",
        "end": "2026-01-01T00:15:00.000+00:00"
      }
    },
    "request": {
      "method": "PUT",
      "url": "Encounter/fd6f658c-1609-472e-99a8-042c9d453b06"
    }
  }, {
    "fullUrl": "https://madie.cms.gov/Condition/ac43235c-9357-4eb8-9934-cd6da6a56721",
    "resource": {
      "resourceType": "Condition",
      "id": "ac43235c-9357-4eb8-9934-cd6da6a56721",
      "meta": {
        "profile": [ "http://hl7.org/fhir/us/qicore/StructureDefinition/qicore-condition-encounter-diagnosis" ]
      },
      "clinicalStatus": {
        "coding": [ {
          "system": "http://terminology.hl7.org/CodeSystem/condition-clinical",
          "code": "active"
        } ]
      },
      "category": [ {
        "coding": [ {
          "system": "http://terminology.hl7.org/CodeSystem/condition-category",
          "code": "encounter-diagnosis",
          "display": "Encounter Diagnosis"
        } ]
      } ],
      "code": {
        "coding": [ {
          "system": "http://snomed.info/sct",
          "code": "102781000119107",
          "display": "Sensory neuropathy due to type 1 diabetes mellitus (disorder)"
        } ]
      },
      "subject": {
        "reference": "Patient/6d9426d1-5554-4d6b-9ed0-e3736dd17482"
      },
      "onsetDateTime": "2026-01-01T23:59:00.000+00:00"
    },
    "request": {
      "method": "PUT",
      "url": "Condition/ac43235c-9357-4eb8-9934-cd6da6a56721"
    }
  }, {
    "fullUrl": "https://madie.cms.gov/Condition/5e03247e-1f3b-4201-a816-ae89e752464d",
    "resource": {
      "resourceType": "Condition",
      "id": "5e03247e-1f3b-4201-a816-ae89e752464d",
      "meta": {
        "profile": [ "http://hl7.org/fhir/us/qicore/StructureDefinition/qicore-condition-encounter-diagnosis" ]
      },
      "clinicalStatus": {
        "coding": [ {
          "system": "http://terminology.hl7.org/CodeSystem/condition-clinical",
          "code": "active"
        } ]
      },
      "category": [ {
        "coding": [ {
          "system": "http://terminology.hl7.org/CodeSystem/condition-category",
          "code": "encounter-diagnosis",
          "display": "Encounter Diagnosis"
        } ]
      } ],
      "code": {
        "coding": [ {
          "system": "http://snomed.info/sct",
          "code": "170935008",
          "display": "Full care by hospice (finding)"
        } ]
      },
      "subject": {
        "reference": "Patient/6d9426d1-5554-4d6b-9ed0-e3736dd17482"
      },
      "onsetDateTime": "2026-12-31T23:59:59.000+00:00"
    },
    "request": {
      "method": "PUT",
      "url": "Condition/5e03247e-1f3b-4201-a816-ae89e752464d"
    }
  }, {
    "fullUrl": "https://madie.cms.gov/MeasureReport/a3fbc91c-1b80-4662-bb94-b16208051dc6",
    "resource": {
      "resourceType": "MeasureReport",
      "id": "a3fbc91c-1b80-4662-bb94-b16208051dc6",
      "meta": {
        "profile": [ "http://hl7.org/fhir/us/cqfmeasures/StructureDefinition/test-case-cqfm" ]
      },
      "contained": [ {
        "resourceType": "Parameters",
        "id": "bda94e54-0c2f-4f7f-8218-02de433a372d-parameters",
        "parameter": [ {
          "name": "subject",
          "valueString": "6d9426d1-5554-4d6b-9ed0-e3736dd17482"
        } ]
      } ],
      "extension": [ {
        "url": "http://hl7.org/fhir/StructureDefinition/cqf-inputParameters",
        "valueReference": {
          "reference": "#bda94e54-0c2f-4f7f-8218-02de433a372d-parameters"
        }
      }, {
        "url": "http://hl7.org/fhir/us/cqfmeasures/StructureDefinition/cqfm-testCaseDescription",
        "valueMarkdown": "Hospice condition overlaps the MP"
      } ],
      "modifierExtension": [ {
        "url": "http://hl7.org/fhir/us/cqfmeasures/StructureDefinition/cqfm-isTestCase",
        "valueBoolean": true
      } ],
      "status": "complete",
      "type": "individual",
      "measure": "https://madie.cms.gov/Measure/CMS122FHIRDiabetesAssessGT9Pct",
      "period": {
        "start": "2026-01-01",
        "end": "2026-12-31"
      },
      "group": [ {
        "id": "Group_1",
        "population": [ {
          "id": "InitialPopulation_1",
          "code": {
            "coding": [ {
              "system": "http://terminology.hl7.org/CodeSystem/measure-population",
              "code": "initial-population",
              "display": "Initial Population"
            } ]
          },
          "count": 1
        }, {
          "id": "Denominator_1",
          "code": {
            "coding": [ {
              "system": "http://terminology.hl7.org/CodeSystem/measure-population",
              "code": "denominator",
              "display": "Denominator"
            } ]
          },
          "count": 1
        }, {
          "id": "DenominatorExclusion_1",
          "code": {
            "coding": [ {
              "system": "http://terminology.hl7.org/CodeSystem/measure-population",
              "code": "denominator-exclusion",
              "display": "Denominator Exclusion"
            } ]
          },
          "count": 1
        }, {
          "id": "Numerator_1",
          "code": {
            "coding": [ {
              "system": "http://terminology.hl7.org/CodeSystem/measure-population",
              "code": "numerator",
              "display": "Numerator"
            } ]
          },
          "count": 0
        } ],
        "measureScore": {
          "value": 1.0
        }
      } ],
      "evaluatedResource": [ {
        "reference": "Patient/6d9426d1-5554-4d6b-9ed0-e3736dd17482"
      }, {
        "reference": "Encounter/fd6f658c-1609-472e-99a8-042c9d453b06"
      }, {
        "reference": "Condition/ac43235c-9357-4eb8-9934-cd6da6a56721"
      }, {
        "reference": "Condition/5e03247e-1f3b-4201-a816-ae89e752464d"
      } ]
    },
    "request": {
      "method": "PUT",
      "url": "MeasureReport/a3fbc91c-1b80-4662-bb94-b16208051dc6"
    }
  } ]
}