{
  "resourceType": "Bundle",
  "id": "6356dca654e383debade75aa",
  "type": "transaction",
  "entry": [ {
    "fullUrl": "https://madie.cms.gov/Patient/1b0eb7b9-ce99-4119-b298-405f32aa30d6",
    "resource": {
      "resourceType": "Patient",
      "id": "1b0eb7b9-ce99-4119-b298-405f32aa30d6",
      "meta": {
        "profile": [ "http://hl7.org/fhir/us/qicore/StructureDefinition/qicore-patient" ]
      },
      "text": {
        "status": "generated",
        "div": "<div xmlns=\"http://www.w3.org/1999/xhtml\"><div class=\"hapiHeaderText\">RISKDXEQPreTermBirthEGAEQ40Weeks<b>RISKFail</b></div><table class=\"hapiPropertyTable\"><tbody><tr><td>Date of birth</td><td><span>01 February 2004</span></td></tr></tbody></table></div>"
      },
      "extension": [ {
        "url": "http://hl7.org/fhir/us/core/StructureDefinition/us-core-race",
        "extension": [ {
          "url": "ombCategory",
          "valueCoding": {
            "system": "urn:oid:2.16.840.1.113883.6.238",
            "code": "1002-5",
            "display": "American Indian or Alaska Native",
            "userSelected": true
          }
        }, {
          "url": "text",
          "valueString": "American Indian or Alaska Native"
        } ]
      }, {
        "url": "http://hl7.org/fhir/us/core/StructureDefinition/us-core-ethnicity",
        "extension": [ {
          "url": "ombCategory",
          "valueCoding": {
            "system": "urn:oid:2.16.840.1.113883.6.238",
            "code": "2135-2",
            "display": "Hispanic or Latino",
            "userSelected": true
          }
        }, {
          "url": "text",
          "valueString": "Hispanic or Latino"
        } ]
      } ],
      "identifier": [ {
        "type": {
          "coding": [ {
            "system": "http://terminology.hl7.org/CodeSystem/v2-0203",
            "code": "MR"
          } ]
        },
        "system": "https://bonnie-fhir.healthit.gov/",
        "value": "6356dca654e383debade75aa"
      } ],
      "active": true,
      "name": [ {
        "use": "usual",
        "family": "RISKFail",
        "given": [ "RISKDXEQPreTermBirthEGAEQ40Weeks" ]
      } ],
      "gender": "female",
      "birthDate": "2005-02-01"
    },
    "request": {
      "method": "PUT",
      "url": "Patient/1b0eb7b9-ce99-4119-b298-405f32aa30d6"
    }
  }, {
    "fullUrl": "https://madie.cms.gov/Observation/c89ed49f-13ce-4a33-b8af-a278f517e1aa",
    "resource": {
      "resourceType": "Observation",
      "id": "c89ed49f-13ce-4a33-b8af-a278f517e1aa",
      "meta": {
        "profile": [ "http://hl7.org/fhir/us/qicore/StructureDefinition/qicore-simple-observation" ]
      },
      "status": "final",
      "category": [ {
        "coding": [ {
          "system": "http://terminology.hl7.org/CodeSystem/observation-category",
          "code": "exam",
          "display": "exam",
          "userSelected": true
        } ]
      } ],
      "code": {
        "coding": [ {
          "system": "http://loinc.org",
          "code": "93857-1"
        } ]
      },
      "subject": {
        "reference": "Patient/1b0eb7b9-ce99-4119-b298-405f32aa30d6"
      },
      "effectiveDateTime": "2026-02-01T08:00:00.000+00:00",
      "performer": [ {
        "reference": "Organization/example1",
        "display": "Hendricks Country Hospital"
      } ],
      "valueDateTime": "2026-02-01T08:00:00.000+00:00"
    },
    "request": {
      "method": "PUT",
      "url": "Observation/c89ed49f-13ce-4a33-b8af-a278f517e1aa"
    }
  }, {
    "fullUrl": "https://madie.cms.gov/Observation/87b60b87-7028-4a20-8c74-1804fc6c0339",
    "resource": {
      "resourceType": "Observation",
      "id": "87b60b87-7028-4a20-8c74-1804fc6c0339",
      "meta": {
        "profile": [ "http://hl7.org/fhir/us/qicore/StructureDefinition/qicore-simple-observation" ]
      },
      "status": "final",
      "category": [ {
        "coding": [ {
          "system": "http://terminology.hl7.org/CodeSystem/observation-category",
          "code": "exam",
          "display": "exam",
          "userSelected": true
        } ]
      } ],
      "code": {
        "coding": [ {
          "system": "http://loinc.org",
          "code": "11884-4"
        } ]
      },
      "subject": {
        "reference": "Patient/1b0eb7b9-ce99-4119-b298-405f32aa30d6"
      },
      "effectiveDateTime": "2026-02-01T08:00:00.000+00:00",
      "performer": [ {
        "reference": "Organization/example1",
        "display": "Hendricks Country Hospital"
      } ],
      "valueQuantity": {
        "value": 40,
        "system": "http://unitsofmeasure.org",
        "code": "wk"
      }
    },
    "request": {
      "method": "PUT",
      "url": "Observation/87b60b87-7028-4a20-8c74-1804fc6c0339"
    }
  }, {
    "fullUrl": "https://madie.cms.gov/Encounter/2503623d-34b7-4acb-9ec0-f1c77e2a18fe",
    "resource": {
      "resourceType": "Encounter",
      "id": "2503623d-34b7-4acb-9ec0-f1c77e2a18fe",
      "meta": {
        "profile": [ "http://hl7.org/fhir/us/qicore/StructureDefinition/qicore-encounter" ]
      },
      "status": "finished",
      "class": {
        "system": "http://terminology.hl7.org/CodeSystem/v3-ActCode",
        "code": "IMP",
        "display": "inpatient encounter"
      },
      "type": [ {
        "coding": [ {
          "system": "http://snomed.info/sct",
          "code": "183452005"
        } ]
      } ],
      "subject": {
        "reference": "Patient/1b0eb7b9-ce99-4119-b298-405f32aa30d6"
      },
      "period": {
        "start": "2026-02-01T08:00:00.000+00:00",
        "end": "2026-02-05T08:15:00.000+00:00"
      },
      "diagnosis": [ {
        "extension": [ {
          "url": "http://hl7.org/fhir/us/qicore/StructureDefinition/qicore-encounter-diagnosisPresentOnAdmission",
          "valueCodeableConcept": {
            "coding": [ {
              "system": "https://www.cms.gov/Medicare/Medicare-Fee-for-Service-Payment/HospitalAcqCond/Coding",
              "code": "Y"
            } ]
          }
        } ],
        "condition": {
          "reference": "Condition/e9c16456-2144-4454-9ce4-ec8a96be2529"
        }
      } ]
    },
    "request": {
      "method": "PUT",
      "url": "Encounter/2503623d-34b7-4acb-9ec0-f1c77e2a18fe"
    }
  }, {
    "fullUrl": "https://madie.cms.gov/Procedure/7eaa7665-5c66-4f64-8886-e458b821ff91",
    "resource": {
      "resourceType": "Procedure",
      "id": "7eaa7665-5c66-4f64-8886-e458b821ff91",
      "meta": {
        "profile": [ "http://hl7.org/fhir/us/qicore/StructureDefinition/qicore-procedure" ]
      },
      "extension": [ {
        "url": "http://hl7.org/fhir/us/qicore/StructureDefinition/qicore-recorded",
        "valueDateTime": "2014-04-05T13:35:00.000+00:00"
      } ],
      "status": "completed",
      "code": {
        "coding": [ {
          "system": "http://snomed.info/sct",
          "code": "10745001"
        } ]
      },
      "subject": {
        "reference": "Patient/1b0eb7b9-ce99-4119-b298-405f32aa30d6"
      },
      "performedPeriod": {
        "start": "2026-02-01T08:00:00.000+00:00",
        "end": "2026-02-05T08:15:00.000+00:00"
      }
    },
    "request": {
      "method": "PUT",
      "url": "Procedure/7eaa7665-5c66-4f64-8886-e458b821ff91"
    }
  }, {
    "fullUrl": "https://madie.cms.gov/Condition/e9c16456-2144-4454-9ce4-ec8a96be2529",
    "resource": {
      "resourceType": "Condition",
      "id": "e9c16456-2144-4454-9ce4-ec8a96be2529",
      "meta": {
        "profile": [ "http://hl7.org/fhir/us/qicore/StructureDefinition/qicore-condition-encounter-diagnosis" ]
      },
      "category": [ {
        "coding": [ {
          "system": "http://terminology.hl7.org/CodeSystem/condition-category",
          "code": "encounter-diagnosis",
          "display": "Encounter Diagnosis"
        } ]
      } ],
      "code": {
        "coding": [ {
          "system": "http://hl7.org/fhir/sid/icd-10-cm",
          "version": "2023",
          "code": "Z3A.20",
          "display": "20 weeks gestation",
          "userSelected": true
        } ]
      },
      "subject": {
        "reference": "Patient/1b0eb7b9-ce99-4119-b298-405f32aa30d6"
      },
      "recordedDate": "2026-10-26T08:00:00.000+00:00"
    },
    "request": {
      "method": "PUT",
      "url": "Condition/e9c16456-2144-4454-9ce4-ec8a96be2529"
    }
  }, {
    "fullUrl": "https://madie.cms.gov/Claim/b9f5fe5c-a6e2-464f-a6c6-41d0dcdab3f3",
    "resource": {
      "resourceType": "Claim",
      "id": "b9f5fe5c-a6e2-464f-a6c6-41d0dcdab3f3",
      "meta": {
        "profile": [ "http://hl7.org/fhir/us/qicore/StructureDefinition/qicore-claim" ]
      },
      "status": "active",
      "type": {
        "coding": [ {
          "system": "http://terminology.hl7.org/CodeSystem/claim-type",
          "code": "institutional",
          "display": "Institutional"
        } ]
      },
      "use": "claim",
      "patient": {
        "reference": "Patient/1b0eb7b9-ce99-4119-b298-405f32aa30d6"
      },
      "created": "2026-11-08",
      "provider": {
        "reference": "Practitioner/ffeaae9f-854b-4faf-b1ad-13cd278aaf01"
      },
      "priority": {
        "coding": [ {
          "system": "http://terminology.hl7.org/CodeSystem/processpriority",
          "code": "normal"
        } ]
      },
      "diagnosis": [ {
        "sequence": 1,
        "diagnosisCodeableConcept": {
          "coding": [ {
            "system": "http://hl7.org/fhir/sid/icd-10-cm",
            "code": "Z3A.20",
            "display": "20 weeks gestation of pregnancy"
          } ]
        },
        "type": [ {
          "coding": [ {
            "system": "http://terminology.hl7.org/CodeSystem/ex-diagnosistype",
            "code": "discharge",
            "display": "Discharge Diagnosis"
          } ]
        } ],
        "onAdmission": {
          "coding": [ {
            "system": "https://www.cms.gov/Medicare/Medicare-Fee-for-Service-Payment/HospitalAcqCond/Coding",
            "code": "Y"
          } ]
        }
      } ],
      "insurance": [ {
        "sequence": 1,
        "focal": true,
        "coverage": {
          "reference": "Coverage/Coverage-1"
        }
      } ],
      "item": [ {
        "sequence": 1,
        "careTeamSequence": [ 1 ],
        "diagnosisSequence": [ 1 ],
        "productOrService": {
          "coding": [ {
            "system": "http://www.ama-assn.org/go/cpt",
            "code": "99232"
          } ]
        },
        "encounter": [ {
          "reference": "Encounter/2503623d-34b7-4acb-9ec0-f1c77e2a18fe"
        } ]
      }, {
        "sequence": 2,
        "careTeamSequence": [ 1 ],
        "diagnosisSequence": [ 2 ],
        "productOrService": {
          "coding": [ {
            "system": "http://www.ama-assn.org/go/cpt",
            "code": "99233"
          } ]
        },
        "encounter": [ {
          "reference": "Encounter/2503623d-34b7-4acb-9ec0-f1c77e2a18fe"
        } ]
      } ],
      "total": {
        "value": 3800,
        "currency": "USD"
      }
    },
    "request": {
      "method": "PUT",
      "url": "Claim/b9f5fe5c-a6e2-464f-a6c6-41d0dcdab3f3"
    }
  }, {
    "fullUrl": "https://madie.cms.gov/Coverage/13022b1f-f971-4946-a76f-42ccb8130a5c",
    "resource": {
      "resourceType": "Coverage",
      "id": "13022b1f-f971-4946-a76f-42ccb8130a5c",
      "meta": {
        "profile": [ "http://hl7.org/fhir/us/qicore/StructureDefinition/qicore-coverage" ]
      },
      "status": "active",
      "subscriberId": "523435",
      "beneficiary": {
        "reference": "Patient/1b0eb7b9-ce99-4119-b298-405f32aa30d6"
      },
      "relationship": {
        "coding": [ {
          "system": "http://terminology.hl7.org/CodeSystem/subscriber-relationship",
          "code": "self"
        } ]
      },
      "payor": [ {
        "reference": "Organization/74b49521-4178-42d3-9c6b-f6b460b0eb89"
      } ]
    },
    "request": {
      "method": "PUT",
      "url": "Coverage/13022b1f-f971-4946-a76f-42ccb8130a5c"
    }
  }, {
    "fullUrl": "https://madie.cms.gov/Organization/74b49521-4178-42d3-9c6b-f6b460b0eb89",
    "resource": {
      "resourceType": "Organization",
      "id": "74b49521-4178-42d3-9c6b-f6b460b0eb89",
      "meta": {
        "profile": [ "http://hl7.org/fhir/us/qicore/StructureDefinition/qicore-organization" ]
      },
      "identifier": [ {
        "use": "temp",
        "system": "urn:oid:2.16.840.1.113883.4.4",
        "value": "21-3259825"
      } ],
      "active": true,
      "type": [ {
        "coding": [ {
          "system": "http://terminology.hl7.org/CodeSystem/organization-type",
          "code": "pay",
          "display": "Payer"
        } ]
      } ],
      "name": "Blue Cross Blue Shield of Texas",
      "telecom": [ {
        "system": "phone",
        "value": "(+1) 972-766-6900"
      } ],
      "address": [ {
        "use": "billing",
        "type": "postal",
        "line": [ "P.O. Box 660044" ],
        "city": "Dallas",
        "state": "TX",
        "postalCode": "75266-0044",
        "country": "USA"
      } ]
    },
    "request": {
      "method": "PUT",
      "url": "Organization/74b49521-4178-42d3-9c6b-f6b460b0eb89"
    }
  }, {
    "fullUrl": "https://madie.cms.gov/Practitioner/ffeaae9f-854b-4faf-b1ad-13cd278aaf01",
    "resource": {
      "resourceType": "Practitioner",
      "id": "ffeaae9f-854b-4faf-b1ad-13cd278aaf01",
      "meta": {
        "profile": [ "http://hl7.org/fhir/us/qicore/StructureDefinition/qicore-practitioner" ]
      },
      "identifier": [ {
        "system": "http://hl7.org/fhir/sid/us-npi",
        "value": "9999999896"
      } ],
      "name": [ {
        "family": "Evil",
        "prefix": [ "Dr" ]
      } ]
    },
    "request": {
      "method": "PUT",
      "url": "Practitioner/ffeaae9f-854b-4faf-b1ad-13cd278aaf01"
    }
  }, {
    "fullUrl": "https://madie.cms.gov/MeasureReport/cc7cbad9-3f75-48e1-ae0c-a1b361caf758",
    "resource": {
      "resourceType": "MeasureReport",
      "id": "cc7cbad9-3f75-48e1-ae0c-a1b361caf758",
      "meta": {
        "profile": [ "http://hl7.org/fhir/us/cqfmeasures/StructureDefinition/test-case-cqfm" ]
      },
      "contained": [ {
        "resourceType": "Parameters",
        "id": "399ebbbb-36f3-4928-a7cd-5f2f6f7b7593-parameters",
        "parameter": [ {
          "name": "subject",
          "valueString": "1b0eb7b9-ce99-4119-b298-405f32aa30d6"
        } ]
      } ],
      "extension": [ {
        "url": "http://hl7.org/fhir/StructureDefinition/cqf-inputParameters",
        "valueReference": {
          "reference": "#399ebbbb-36f3-4928-a7cd-5f2f6f7b7593-parameters"
        }
      }, {
        "url": "http://hl7.org/fhir/us/cqfmeasures/StructureDefinition/cqfm-testCaseDescription",
        "valueMarkdown": "RISKDXEQPreTermBirth And EGAEQ40Weeks\n"
      } ],
      "modifierExtension": [ {
        "url": "http://hl7.org/fhir/us/cqfmeasures/StructureDefinition/cqfm-isTestCase",
        "valueBoolean": true
      } ],
      "status": "complete",
      "type": "individual",
      "measure": "https://madie.cms.gov/Measure/CMS1028FHIRPCSevereOBComps",
      "period": {
        "start": "2026-01-01",
        "end": "2026-12-31"
      },
      "group": [ {
        "id": "Group_1",
        "population": [ {
          "id": "InitialPopulation_1",
          "code": {
            "coding": [ {
              "system": "http://terminology.hl7.org/CodeSystem/measure-population",
              "code": "initial-population",
              "display": "Initial Population"
            } ]
          },
          "count": 1
        }, {
          "id": "Denominator_1",
          "code": {
            "coding": [ {
              "system": "http://terminology.hl7.org/CodeSystem/measure-population",
              "code": "denominator",
              "display": "Denominator"
            } ]
          },
          "count": 1
        }, {
          "id": "Numerator_1",
          "code": {
            "coding": [ {
              "system": "http://terminology.hl7.org/CodeSystem/measure-population",
              "code": "numerator",
              "display": "Numerator"
            } ]
          },
          "count": 0
        }, {
          "id": "NumeratorExclusion_1",
          "code": {
            "coding": [ {
              "system": "http://terminology.hl7.org/CodeSystem/measure-population",
              "code": "numerator-exclusion",
              "display": "Numerator Exclusion"
            } ]
          },
          "count": 0
        } ],
        "measureScore": {
          "value": 0.0
        }
      }, {
        "id": "Group_2",
        "population": [ {
          "id": "InitialPopulation_2",
          "code": {
            "coding": [ {
              "system": "http://terminology.hl7.org/CodeSystem/measure-population",
              "code": "initial-population",
              "display": "Initial Population"
            } ]
          },
          "count": 1
        }, {
          "id": "Denominator_2",
          "code": {
            "coding": [ {
              "system": "http://terminology.hl7.org/CodeSystem/measure-population",
              "code": "denominator",
              "display": "Denominator"
            } ]
          },
          "count": 1
        }, {
          "id": "Numerator_2",
          "code": {
            "coding": [ {
              "system": "http://terminology.hl7.org/CodeSystem/measure-population",
              "code": "numerator",
              "display": "Numerator"
            } ]
          },
          "count": 0
        }, {
          "id": "NumeratorExclusion_2",
          "code": {
            "coding": [ {
              "system": "http://terminology.hl7.org/CodeSystem/measure-population",
              "code": "numerator-exclusion",
              "display": "Numerator Exclusion"
            } ]
          },
          "count": 0
        } ],
        "measureScore": {
          "value": 0.0
        }
      } ],
      "evaluatedResource": [ {
        "reference": "Patient/1b0eb7b9-ce99-4119-b298-405f32aa30d6"
      }, {
        "reference": "Observation/c89ed49f-13ce-4a33-b8af-a278f517e1aa"
      }, {
        "reference": "Observation/87b60b87-7028-4a20-8c74-1804fc6c0339"
      }, {
        "reference": "Encounter/2503623d-34b7-4acb-9ec0-f1c77e2a18fe"
      }, {
        "reference": "Procedure/7eaa7665-5c66-4f64-8886-e458b821ff91"
      }, {
        "reference": "Condition/e9c16456-2144-4454-9ce4-ec8a96be2529"
      }, {
        "reference": "Claim/b9f5fe5c-a6e2-464f-a6c6-41d0dcdab3f3"
      }, {
        "reference": "Coverage/13022b1f-f971-4946-a76f-42ccb8130a5c"
      }, {
        "reference": "Organization/74b49521-4178-42d3-9c6b-f6b460b0eb89"
      }, {
        "reference": "Practitioner/ffeaae9f-854b-4faf-b1ad-13cd278aaf01"
      } ]
    },
    "request": {
      "method": "PUT",
      "url": "MeasureReport/cc7cbad9-3f75-48e1-ae0c-a1b361caf758"
    }
  } ]
}