{
  "resourceType": "Bundle",
  "id": "612e6eb102c62a011f2ef420",
  "type": "transaction",
  "entry": [ {
    "fullUrl": "https://madie.cms.gov/Patient/78462b04-df13-44a5-bb24-729dfbdcfccf",
    "resource": {
      "resourceType": "Patient",
      "id": "78462b04-df13-44a5-bb24-729dfbdcfccf",
      "meta": {
        "profile": [ "http://hl7.org/fhir/us/qicore/StructureDefinition/qicore-patient" ]
      },
      "text": {
        "status": "generated",
        "div": "<div xmlns=\"http://www.w3.org/1999/xhtml\"><div class=\"hapiHeaderText\">LOSLT2Days <b>DENEXPASS </b></div><table class=\"hapiPropertyTable\"><tbody><tr><td>Identifier</td><td>89c2e418c9727592f5380d634f63eb21</td></tr><tr><td>Date of birth</td><td><span>03 March 1974</span></td></tr></tbody></table></div>"
      },
      "extension": [ {
        "url": "http://hl7.org/fhir/us/core/StructureDefinition/us-core-race",
        "extension": [ {
          "url": "ombCategory",
          "valueCoding": {
            "system": "urn:oid:2.16.840.1.113883.6.238",
            "code": "1002-5",
            "display": "American Indian or Alaska Native",
            "userSelected": true
          }
        }, {
          "url": "text",
          "valueString": "American Indian or Alaska Native"
        } ]
      }, {
        "url": "http://hl7.org/fhir/us/core/StructureDefinition/us-core-ethnicity",
        "extension": [ {
          "url": "ombCategory",
          "valueCoding": {
            "system": "urn:oid:2.16.840.1.113883.6.238",
            "code": "2135-2",
            "display": "Hispanic or Latino",
            "userSelected": true
          }
        }, {
          "url": "text",
          "valueString": "Hispanic or Latino"
        } ]
      } ],
      "identifier": [ {
        "type": {
          "coding": [ {
            "system": "http://terminology.hl7.org/CodeSystem/v2-0203",
            "code": "MR"
          } ]
        },
        "system": "https://bonnie-fhir.healthit.gov/",
        "value": "612e6eb102c62a011f2ef420"
      } ],
      "active": true,
      "name": [ {
        "use": "usual",
        "family": "DENEXPass",
        "given": [ "LOSLT2Days" ]
      } ],
      "gender": "female",
      "birthDate": "1975-03-03"
    },
    "request": {
      "method": "PUT",
      "url": "Patient/78462b04-df13-44a5-bb24-729dfbdcfccf"
    }
  }, {
    "fullUrl": "https://madie.cms.gov/Encounter/901687e0-bcd3-4a24-a83e-0e6678f344c3",
    "resource": {
      "resourceType": "Encounter",
      "id": "901687e0-bcd3-4a24-a83e-0e6678f344c3",
      "meta": {
        "profile": [ "http://hl7.org/fhir/us/qicore/StructureDefinition/qicore-encounter" ]
      },
      "status": "finished",
      "class": {
        "system": "http://terminology.hl7.org/CodeSystem/v3-ActCode",
        "code": "IMP",
        "display": "inpatient encounter"
      },
      "type": [ {
        "coding": [ {
          "system": "http://snomed.info/sct",
          "code": "8715000"
        } ]
      } ],
      "subject": {
        "reference": "Patient/78462b04-df13-44a5-bb24-729dfbdcfccf"
      },
      "period": {
        "start": "2026-12-04T08:00:00.000+00:00",
        "end": "2026-12-05T18:15:00.000+00:00"
      },
      "length": {
        "value": 1.0,
        "unit": "days"
      },
      "location": [ {
        "location": {
          "reference": "Location/f77f2132-a248-43f4-96e3-daf0efaa189c"
        },
        "period": {
          "start": "2026-12-04T09:15:00.000+00:00",
          "end": "2026-12-05T00:15:00.000+00:00"
        }
      } ]
    },
    "request": {
      "method": "PUT",
      "url": "Encounter/901687e0-bcd3-4a24-a83e-0e6678f344c3"
    }
  }, {
    "fullUrl": "https://madie.cms.gov/Coverage/d9478a37-5cdd-463d-9e77-95db86671540",
    "resource": {
      "resourceType": "Coverage",
      "id": "d9478a37-5cdd-463d-9e77-95db86671540",
      "status": "active",
      "beneficiary": {
        "reference": "Patient/78462b04-df13-44a5-bb24-729dfbdcfccf"
      },
      "period": {
        "start": "1975-03-03T08:00:00.000+00:00"
      },
      "payor": [ {
        "reference": "Organization/1fe5e8cc-7f4a-4165-b64c-b9c72a1fb135"
      } ]
    },
    "request": {
      "method": "PUT",
      "url": "Coverage/d9478a37-5cdd-463d-9e77-95db86671540"
    }
  }, {
    "fullUrl": "https://madie.cms.gov/Location/f77f2132-a248-43f4-96e3-daf0efaa189c",
    "resource": {
      "resourceType": "Location",
      "id": "f77f2132-a248-43f4-96e3-daf0efaa189c",
      "meta": {
        "profile": [ "http://hl7.org/fhir/us/qicore/StructureDefinition/qicore-location" ]
      },
      "identifier": [ {
        "use": "usual",
        "system": "http://exampleoflocation.com",
        "value": "B1-S.F2"
      } ],
      "name": "Medical Surgical East, first floor",
      "type": [ {
        "coding": [ {
          "system": "https://www.cdc.gov/nhsn/cdaportal/terminology/codesystem/hsloc.html",
          "code": "1025-6",
          "display": "Trauma Critical Care",
          "userSelected": true
        } ]
      } ]
    },
    "request": {
      "method": "PUT",
      "url": "Location/f77f2132-a248-43f4-96e3-daf0efaa189c"
    }
  }, {
    "fullUrl": "https://madie.cms.gov/Organization/1fe5e8cc-7f4a-4165-b64c-b9c72a1fb135",
    "resource": {
      "resourceType": "Organization",
      "id": "1fe5e8cc-7f4a-4165-b64c-b9c72a1fb135",
      "meta": {
        "profile": [ "http://hl7.org/fhir/us/qicore/StructureDefinition/qicore-organization" ]
      },
      "identifier": [ {
        "use": "temp",
        "system": "urn:oid:2.16.840.1.113883.4.4",
        "value": "21-3259825"
      } ],
      "active": true,
      "type": [ {
        "coding": [ {
          "system": "http://terminology.hl7.org/CodeSystem/organization-type",
          "code": "pay",
          "display": "Payer"
        } ]
      } ],
      "name": "Blue Cross Blue Shield of Texas",
      "telecom": [ {
        "system": "phone",
        "value": "(+1) 972-766-6900"
      } ],
      "address": [ {
        "use": "billing",
        "type": "postal",
        "line": [ "P.O. Box 660044" ],
        "city": "Dallas",
        "state": "TX",
        "postalCode": "75266-0044",
        "country": "USA"
      } ]
    },
    "request": {
      "method": "PUT",
      "url": "Organization/1fe5e8cc-7f4a-4165-b64c-b9c72a1fb135"
    }
  }, {
    "fullUrl": "https://madie.cms.gov/Practitioner/4abb2d51-a209-4ec0-94b0-c593ee4bf43e",
    "resource": {
      "resourceType": "Practitioner",
      "id": "4abb2d51-a209-4ec0-94b0-c593ee4bf43e",
      "identifier": [ {
        "system": "http://hl7.org/fhir/sid/us-npi",
        "value": "123456"
      } ],
      "name": [ {
        "family": "Evil",
        "prefix": [ "Dr" ]
      } ]
    },
    "request": {
      "method": "PUT",
      "url": "Practitioner/4abb2d51-a209-4ec0-94b0-c593ee4bf43e"
    }
  }, {
    "fullUrl": "https://madie.cms.gov/MeasureReport/d16a9cdf-5c96-4457-9fcf-ccb353bf5e63",
    "resource": {
      "resourceType": "MeasureReport",
      "id": "d16a9cdf-5c96-4457-9fcf-ccb353bf5e63",
      "meta": {
        "profile": [ "http://hl7.org/fhir/us/cqfmeasures/StructureDefinition/test-case-cqfm" ]
      },
      "contained": [ {
        "resourceType": "Parameters",
        "id": "bf36b975-4c05-48ff-a7cf-eb9184cd8422-parameters",
        "parameter": [ {
          "name": "subject",
          "valueString": "78462b04-df13-44a5-bb24-729dfbdcfccf"
        } ]
      } ],
      "extension": [ {
        "url": "http://hl7.org/fhir/StructureDefinition/cqf-inputParameters",
        "valueReference": {
          "reference": "#bf36b975-4c05-48ff-a7cf-eb9184cd8422-parameters"
        }
      }, {
        "url": "http://hl7.org/fhir/us/cqfmeasures/StructureDefinition/cqfm-testCaseDescription",
        "valueMarkdown": "Encounter with ICU stay, but hospital LOS =1 days"
      } ],
      "modifierExtension": [ {
        "url": "http://hl7.org/fhir/us/cqfmeasures/StructureDefinition/cqfm-isTestCase",
        "valueBoolean": true
      } ],
      "status": "complete",
      "type": "individual",
      "measure": "https://madie.cms.gov/Measure/CMS190FHIRVTEProphylaxisICU",
      "period": {
        "start": "2026-01-01",
        "end": "2026-12-31"
      },
      "group": [ {
        "id": "Group_1",
        "population": [ {
          "id": "InitialPopulation_1",
          "code": {
            "coding": [ {
              "system": "http://terminology.hl7.org/CodeSystem/measure-population",
              "code": "initial-population",
              "display": "Initial Population"
            } ]
          },
          "count": 1
        }, {
          "id": "Denominator_1",
          "code": {
            "coding": [ {
              "system": "http://terminology.hl7.org/CodeSystem/measure-population",
              "code": "denominator",
              "display": "Denominator"
            } ]
          },
          "count": 1
        }, {
          "id": "DenominatorExclusion_1",
          "code": {
            "coding": [ {
              "system": "http://terminology.hl7.org/CodeSystem/measure-population",
              "code": "denominator-exclusion",
              "display": "Denominator Exclusion"
            } ]
          },
          "count": 1
        }, {
          "id": "Numerator_1",
          "code": {
            "coding": [ {
              "system": "http://terminology.hl7.org/CodeSystem/measure-population",
              "code": "numerator",
              "display": "Numerator"
            } ]
          },
          "count": 0
        }, {
          "id": "DenominatorException_1",
          "code": {
            "coding": [ {
              "system": "http://terminology.hl7.org/CodeSystem/measure-population",
              "code": "denominator-exception",
              "display": "Denominator Exception"
            } ]
          },
          "count": 0
        } ],
        "measureScore": {
          "value": 0.0
        }
      } ],
      "evaluatedResource": [ {
        "reference": "Patient/78462b04-df13-44a5-bb24-729dfbdcfccf"
      }, {
        "reference": "Encounter/901687e0-bcd3-4a24-a83e-0e6678f344c3"
      }, {
        "reference": "Coverage/d9478a37-5cdd-463d-9e77-95db86671540"
      }, {
        "reference": "Location/f77f2132-a248-43f4-96e3-daf0efaa189c"
      }, {
        "reference": "Organization/1fe5e8cc-7f4a-4165-b64c-b9c72a1fb135"
      }, {
        "reference": "Practitioner/4abb2d51-a209-4ec0-94b0-c593ee4bf43e"
      } ]
    },
    "request": {
      "method": "PUT",
      "url": "MeasureReport/d16a9cdf-5c96-4457-9fcf-ccb353bf5e63"
    }
  } ]
}