{
  "resourceType": "Bundle",
  "id": "633b3f9f0968f80122503cda",
  "type": "transaction",
  "entry": [ {
    "fullUrl": "https://madie.cms.gov/Patient/02cdc116-49ce-4277-ad9e-de6bc2a3274d",
    "resource": {
      "resourceType": "Patient",
      "id": "02cdc116-49ce-4277-ad9e-de6bc2a3274d",
      "meta": {
        "profile": [ "http://hl7.org/fhir/us/qicore/StructureDefinition/qicore-patient" ]
      },
      "text": {
        "status": "generated",
        "div": "<div xmlns=\"http://www.w3.org/1999/xhtml\"><div class=\"hapiHeaderText\">DELEncCalEGAEQ20Wks1Day<b>DENOMPASS</b></div><table class=\"hapiPropertyTable\"><tbody><tr><td>Date of birth</td><td><span>01 February 1958</span></td></tr></tbody></table></div>"
      },
      "extension": [ {
        "url": "http://hl7.org/fhir/us/core/StructureDefinition/us-core-race",
        "extension": [ {
          "url": "ombCategory",
          "valueCoding": {
            "system": "urn:oid:2.16.840.1.113883.6.238",
            "code": "1002-5",
            "display": "American Indian or Alaska Native",
            "userSelected": true
          }
        }, {
          "url": "text",
          "valueString": "American Indian or Alaska Native"
        } ]
      }, {
        "url": "http://hl7.org/fhir/us/core/StructureDefinition/us-core-ethnicity",
        "extension": [ {
          "url": "ombCategory",
          "valueCoding": {
            "system": "urn:oid:2.16.840.1.113883.6.238",
            "code": "2135-2",
            "display": "Hispanic or Latino",
            "userSelected": true
          }
        }, {
          "url": "text",
          "valueString": "Hispanic or Latino"
        } ]
      } ],
      "identifier": [ {
        "type": {
          "coding": [ {
            "system": "http://terminology.hl7.org/CodeSystem/v2-0203",
            "code": "MR"
          } ]
        },
        "system": "https://bonnie-fhir.healthit.gov/",
        "value": "633b3f9f0968f80122503cda"
      } ],
      "active": true,
      "name": [ {
        "use": "usual",
        "family": "DENOMPass",
        "given": [ "DELEncCalEGAEQ20Wks1Day" ]
      } ],
      "gender": "female",
      "birthDate": "1971-02-01"
    },
    "request": {
      "method": "PUT",
      "url": "Patient/02cdc116-49ce-4277-ad9e-de6bc2a3274d"
    }
  }, {
    "fullUrl": "https://madie.cms.gov/Observation/6d962816-b48f-48ed-8a7b-3e8c0ef1d12b",
    "resource": {
      "resourceType": "Observation",
      "id": "6d962816-b48f-48ed-8a7b-3e8c0ef1d12b",
      "meta": {
        "profile": [ "http://hl7.org/fhir/us/qicore/StructureDefinition/qicore-simple-observation" ]
      },
      "status": "final",
      "category": [ {
        "coding": [ {
          "system": "http://terminology.hl7.org/CodeSystem/observation-category",
          "code": "exam",
          "display": "exam",
          "userSelected": true
        } ]
      } ],
      "code": {
        "coding": [ {
          "system": "http://loinc.org",
          "code": "93857-1"
        } ]
      },
      "subject": {
        "reference": "Patient/02cdc116-49ce-4277-ad9e-de6bc2a3274d"
      },
      "effectiveDateTime": "2026-01-15T08:00:00.000+00:00",
      "performer": [ {
        "reference": "Organization/example1",
        "display": "Hendricks Country Hospital"
      } ],
      "valueDateTime": "2026-01-15T08:00:00.000+00:00"
    },
    "request": {
      "method": "PUT",
      "url": "Observation/6d962816-b48f-48ed-8a7b-3e8c0ef1d12b"
    }
  }, {
    "fullUrl": "https://madie.cms.gov/Observation/4d6bda77-cde7-440c-85b9-a34666158f25",
    "resource": {
      "resourceType": "Observation",
      "id": "4d6bda77-cde7-440c-85b9-a34666158f25",
      "meta": {
        "profile": [ "http://hl7.org/fhir/us/qicore/StructureDefinition/qicore-simple-observation" ]
      },
      "status": "final",
      "category": [ {
        "coding": [ {
          "system": "http://terminology.hl7.org/CodeSystem/observation-category",
          "code": "exam",
          "display": "exam",
          "userSelected": true
        } ]
      } ],
      "code": {
        "coding": [ {
          "system": "http://loinc.org",
          "code": "11778-8"
        } ]
      },
      "subject": {
        "reference": "Patient/02cdc116-49ce-4277-ad9e-de6bc2a3274d"
      },
      "effectiveDateTime": "2026-01-15T08:00:00.000+00:00",
      "performer": [ {
        "reference": "Organization/example1",
        "display": "Hendricks Country Hospital"
      } ],
      "valueDateTime": "2026-06-02T08:00:00.000+00:00"
    },
    "request": {
      "method": "PUT",
      "url": "Observation/4d6bda77-cde7-440c-85b9-a34666158f25"
    }
  }, {
    "fullUrl": "https://madie.cms.gov/Encounter/bec60b89-5ad5-416c-afb4-daf57d088ec4",
    "resource": {
      "resourceType": "Encounter",
      "id": "bec60b89-5ad5-416c-afb4-daf57d088ec4",
      "meta": {
        "profile": [ "http://hl7.org/fhir/us/qicore/StructureDefinition/qicore-encounter" ]
      },
      "status": "finished",
      "class": {
        "system": "http://terminology.hl7.org/CodeSystem/v3-ActCode",
        "code": "IMP",
        "display": "inpatient encounter"
      },
      "type": [ {
        "coding": [ {
          "system": "http://snomed.info/sct",
          "code": "183452005"
        } ]
      } ],
      "subject": {
        "reference": "Patient/02cdc116-49ce-4277-ad9e-de6bc2a3274d"
      },
      "period": {
        "start": "2026-01-01T08:00:00.000+00:00",
        "end": "2026-02-05T08:15:00.000+00:00"
      }
    },
    "request": {
      "method": "PUT",
      "url": "Encounter/bec60b89-5ad5-416c-afb4-daf57d088ec4"
    }
  }, {
    "fullUrl": "https://madie.cms.gov/Procedure/9f251160-900e-421d-984e-36273179d2dd",
    "resource": {
      "resourceType": "Procedure",
      "id": "9f251160-900e-421d-984e-36273179d2dd",
      "meta": {
        "profile": [ "http://hl7.org/fhir/us/qicore/StructureDefinition/qicore-procedure" ]
      },
      "extension": [ {
        "url": "http://hl7.org/fhir/us/qicore/StructureDefinition/qicore-recorded",
        "valueDateTime": "2014-04-05T13:35:00.000+00:00"
      } ],
      "status": "completed",
      "code": {
        "coding": [ {
          "system": "http://snomed.info/sct",
          "code": "10745001"
        } ]
      },
      "subject": {
        "reference": "Patient/02cdc116-49ce-4277-ad9e-de6bc2a3274d"
      },
      "performedPeriod": {
        "start": "2026-01-01T08:00:00.000+00:00"
      }
    },
    "request": {
      "method": "PUT",
      "url": "Procedure/9f251160-900e-421d-984e-36273179d2dd"
    }
  }, {
    "fullUrl": "https://madie.cms.gov/Coverage/0e92a4db-6a6c-4c56-b9dd-2dfecc47df3a",
    "resource": {
      "resourceType": "Coverage",
      "id": "0e92a4db-6a6c-4c56-b9dd-2dfecc47df3a",
      "meta": {
        "profile": [ "http://hl7.org/fhir/us/qicore/StructureDefinition/qicore-coverage" ]
      },
      "status": "active",
      "subscriberId": "523435",
      "beneficiary": {
        "reference": "Patient/02cdc116-49ce-4277-ad9e-de6bc2a3274d"
      },
      "relationship": {
        "coding": [ {
          "system": "http://terminology.hl7.org/CodeSystem/subscriber-relationship",
          "code": "self"
        } ]
      },
      "payor": [ {
        "reference": "Organization/24013bec-0445-4338-a258-0816dbcd3eba"
      } ]
    },
    "request": {
      "method": "PUT",
      "url": "Coverage/0e92a4db-6a6c-4c56-b9dd-2dfecc47df3a"
    }
  }, {
    "fullUrl": "https://madie.cms.gov/Organization/24013bec-0445-4338-a258-0816dbcd3eba",
    "resource": {
      "resourceType": "Organization",
      "id": "24013bec-0445-4338-a258-0816dbcd3eba",
      "meta": {
        "profile": [ "http://hl7.org/fhir/us/qicore/StructureDefinition/qicore-organization" ]
      },
      "identifier": [ {
        "use": "temp",
        "system": "urn:oid:2.16.840.1.113883.4.4",
        "value": "21-3259825"
      } ],
      "active": true,
      "type": [ {
        "coding": [ {
          "system": "http://terminology.hl7.org/CodeSystem/organization-type",
          "code": "pay",
          "display": "Payer"
        } ]
      } ],
      "name": "Blue Cross Blue Shield of Texas",
      "telecom": [ {
        "system": "phone",
        "value": "(+1) 972-766-6900"
      } ],
      "address": [ {
        "use": "billing",
        "type": "postal",
        "line": [ "P.O. Box 660044" ],
        "city": "Dallas",
        "state": "TX",
        "postalCode": "75266-0044",
        "country": "USA"
      } ]
    },
    "request": {
      "method": "PUT",
      "url": "Organization/24013bec-0445-4338-a258-0816dbcd3eba"
    }
  }, {
    "fullUrl": "https://madie.cms.gov/Practitioner/f1c401f4-6ed4-494a-b070-3cb553e02982",
    "resource": {
      "resourceType": "Practitioner",
      "id": "f1c401f4-6ed4-494a-b070-3cb553e02982",
      "meta": {
        "profile": [ "http://hl7.org/fhir/us/qicore/StructureDefinition/qicore-practitioner" ]
      },
      "identifier": [ {
        "system": "http://hl7.org/fhir/sid/us-npi",
        "value": "1234567890"
      } ],
      "name": [ {
        "family": "Evil",
        "prefix": [ "Dr" ]
      } ]
    },
    "request": {
      "method": "PUT",
      "url": "Practitioner/f1c401f4-6ed4-494a-b070-3cb553e02982"
    }
  }, {
    "fullUrl": "https://madie.cms.gov/MeasureReport/6eff4aae-4c5a-43ba-98f1-1cde60740496",
    "resource": {
      "resourceType": "MeasureReport",
      "id": "6eff4aae-4c5a-43ba-98f1-1cde60740496",
      "meta": {
        "profile": [ "http://hl7.org/fhir/us/cqfmeasures/StructureDefinition/test-case-cqfm" ]
      },
      "contained": [ {
        "resourceType": "Parameters",
        "id": "64c77bee-fede-4da5-8c55-9efda8796ce5-parameters",
        "parameter": [ {
          "name": "subject",
          "valueString": "02cdc116-49ce-4277-ad9e-de6bc2a3274d"
        } ]
      } ],
      "extension": [ {
        "url": "http://hl7.org/fhir/StructureDefinition/cqf-inputParameters",
        "valueReference": {
          "reference": "#64c77bee-fede-4da5-8c55-9efda8796ce5-parameters"
        }
      }, {
        "url": "http://hl7.org/fhir/us/cqfmeasures/StructureDefinition/cqfm-testCaseDescription",
        "valueMarkdown": "Calculated EGA = 20 weeks and 1 day\n"
      } ],
      "modifierExtension": [ {
        "url": "http://hl7.org/fhir/us/cqfmeasures/StructureDefinition/cqfm-isTestCase",
        "valueBoolean": true
      } ],
      "status": "complete",
      "type": "individual",
      "measure": "https://madie.cms.gov/Measure/CMS1028FHIRPCSevereOBComps",
      "period": {
        "start": "2026-01-01",
        "end": "2026-12-31"
      },
      "group": [ {
        "id": "Group_1",
        "population": [ {
          "id": "InitialPopulation_1",
          "code": {
            "coding": [ {
              "system": "http://terminology.hl7.org/CodeSystem/measure-population",
              "code": "initial-population",
              "display": "Initial Population"
            } ]
          },
          "count": 1
        }, {
          "id": "Denominator_1",
          "code": {
            "coding": [ {
              "system": "http://terminology.hl7.org/CodeSystem/measure-population",
              "code": "denominator",
              "display": "Denominator"
            } ]
          },
          "count": 1
        }, {
          "id": "Numerator_1",
          "code": {
            "coding": [ {
              "system": "http://terminology.hl7.org/CodeSystem/measure-population",
              "code": "numerator",
              "display": "Numerator"
            } ]
          },
          "count": 0
        }, {
          "id": "NumeratorExclusion_1",
          "code": {
            "coding": [ {
              "system": "http://terminology.hl7.org/CodeSystem/measure-population",
              "code": "numerator-exclusion",
              "display": "Numerator Exclusion"
            } ]
          },
          "count": 0
        } ],
        "measureScore": {
          "value": 0.0
        }
      }, {
        "id": "Group_2",
        "population": [ {
          "id": "InitialPopulation_2",
          "code": {
            "coding": [ {
              "system": "http://terminology.hl7.org/CodeSystem/measure-population",
              "code": "initial-population",
              "display": "Initial Population"
            } ]
          },
          "count": 1
        }, {
          "id": "Denominator_2",
          "code": {
            "coding": [ {
              "system": "http://terminology.hl7.org/CodeSystem/measure-population",
              "code": "denominator",
              "display": "Denominator"
            } ]
          },
          "count": 1
        }, {
          "id": "Numerator_2",
          "code": {
            "coding": [ {
              "system": "http://terminology.hl7.org/CodeSystem/measure-population",
              "code": "numerator",
              "display": "Numerator"
            } ]
          },
          "count": 0
        }, {
          "id": "NumeratorExclusion_2",
          "code": {
            "coding": [ {
              "system": "http://terminology.hl7.org/CodeSystem/measure-population",
              "code": "numerator-exclusion",
              "display": "Numerator Exclusion"
            } ]
          },
          "count": 0
        } ],
        "measureScore": {
          "value": 0.0
        }
      } ],
      "evaluatedResource": [ {
        "reference": "Patient/02cdc116-49ce-4277-ad9e-de6bc2a3274d"
      }, {
        "reference": "Observation/6d962816-b48f-48ed-8a7b-3e8c0ef1d12b"
      }, {
        "reference": "Observation/4d6bda77-cde7-440c-85b9-a34666158f25"
      }, {
        "reference": "Encounter/bec60b89-5ad5-416c-afb4-daf57d088ec4"
      }, {
        "reference": "Procedure/9f251160-900e-421d-984e-36273179d2dd"
      }, {
        "reference": "Coverage/0e92a4db-6a6c-4c56-b9dd-2dfecc47df3a"
      }, {
        "reference": "Organization/24013bec-0445-4338-a258-0816dbcd3eba"
      }, {
        "reference": "Practitioner/f1c401f4-6ed4-494a-b070-3cb553e02982"
      } ]
    },
    "request": {
      "method": "PUT",
      "url": "MeasureReport/6eff4aae-4c5a-43ba-98f1-1cde60740496"
    }
  } ]
}