{
  "resourceType": "Bundle",
  "id": "612e6f8b02c62a011f2f239e",
  "type": "transaction",
  "entry": [ {
    "fullUrl": "https://madie.cms.gov/Patient/8de031c4-05db-42db-b0e5-902696c6e495",
    "resource": {
      "resourceType": "Patient",
      "id": "8de031c4-05db-42db-b0e5-902696c6e495",
      "meta": {
        "profile": [ "http://hl7.org/fhir/us/qicore/StructureDefinition/qicore-patient" ]
      },
      "text": {
        "status": "generated",
        "div": "<div xmlns=\"http://www.w3.org/1999/xhtml\"><div class=\"hapiHeaderText\">CMPerfRvltPerStartDayOfICUEndNULL<b>DENEXPASS </b></div><table class=\"hapiPropertyTable\"><tbody><tr><td>Identifier</td><td>2a65a26f9f7578ed1148174b365eff5a</td></tr><tr><td>Date of birth</td><td><span>03 March 1974</span></td></tr></tbody></table></div>"
      },
      "extension": [ {
        "url": "http://hl7.org/fhir/us/core/StructureDefinition/us-core-race",
        "extension": [ {
          "url": "ombCategory",
          "valueCoding": {
            "system": "urn:oid:2.16.840.1.113883.6.238",
            "code": "1002-5",
            "display": "American Indian or Alaska Native",
            "userSelected": true
          }
        }, {
          "url": "text",
          "valueString": "American Indian or Alaska Native"
        } ]
      }, {
        "url": "http://hl7.org/fhir/us/core/StructureDefinition/us-core-ethnicity",
        "extension": [ {
          "url": "ombCategory",
          "valueCoding": {
            "system": "urn:oid:2.16.840.1.113883.6.238",
            "code": "2135-2",
            "display": "Hispanic or Latino",
            "userSelected": true
          }
        }, {
          "url": "text",
          "valueString": "Hispanic or Latino"
        } ]
      } ],
      "identifier": [ {
        "type": {
          "coding": [ {
            "system": "http://terminology.hl7.org/CodeSystem/v2-0203",
            "code": "MR"
          } ]
        },
        "system": "https://bonnie-fhir.healthit.gov/",
        "value": "612e6f8b02c62a011f2f239e"
      } ],
      "active": true,
      "name": [ {
        "use": "usual",
        "family": "DENEXPass",
        "given": [ "CMPerfRvltPerStartDayOfICUEndNULL" ]
      } ],
      "gender": "female",
      "birthDate": "1975-03-03"
    },
    "request": {
      "method": "PUT",
      "url": "Patient/8de031c4-05db-42db-b0e5-902696c6e495"
    }
  }, {
    "fullUrl": "https://madie.cms.gov/Encounter/9ac6f982-9bab-40bb-80db-946ea6839cf9",
    "resource": {
      "resourceType": "Encounter",
      "id": "9ac6f982-9bab-40bb-80db-946ea6839cf9",
      "meta": {
        "profile": [ "http://hl7.org/fhir/us/qicore/StructureDefinition/qicore-encounter" ]
      },
      "status": "finished",
      "class": {
        "system": "http://terminology.hl7.org/CodeSystem/v3-ActCode",
        "code": "IMP",
        "display": "inpatient encounter"
      },
      "type": [ {
        "coding": [ {
          "system": "http://snomed.info/sct",
          "code": "8715000"
        } ]
      } ],
      "subject": {
        "reference": "Patient/8de031c4-05db-42db-b0e5-902696c6e495"
      },
      "period": {
        "start": "2026-12-04T08:00:00.000+00:00",
        "end": "2026-12-30T08:15:00.000+00:00"
      },
      "length": {
        "value": 26.0,
        "unit": "days"
      },
      "location": [ {
        "location": {
          "reference": "Location/aaee9e5a-cd22-4674-b6fc-e27ab2945a2f"
        },
        "period": {
          "start": "2026-12-06T08:00:00.000+00:00",
          "end": "2026-12-12T08:15:00.000+00:00"
        }
      } ]
    },
    "request": {
      "method": "PUT",
      "url": "Encounter/9ac6f982-9bab-40bb-80db-946ea6839cf9"
    }
  }, {
    "fullUrl": "https://madie.cms.gov/Procedure/242cdbcc-3636-40cb-9761-7cf38857135b",
    "resource": {
      "resourceType": "Procedure",
      "id": "242cdbcc-3636-40cb-9761-7cf38857135b",
      "meta": {
        "profile": [ "http://hl7.org/fhir/us/qicore/StructureDefinition/qicore-procedure" ]
      },
      "extension": [ {
        "url": "http://hl7.org/fhir/us/qicore/StructureDefinition/qicore-recorded",
        "valueDateTime": "2013-12-07T13:35:00.000+00:00"
      } ],
      "status": "completed",
      "code": {
        "coding": [ {
          "system": "http://snomed.info/sct",
          "code": "133918004",
          "display": "Comfort measures (regime/therapy)"
        } ]
      },
      "subject": {
        "reference": "Patient/8de031c4-05db-42db-b0e5-902696c6e495"
      },
      "performedPeriod": {
        "start": "2026-12-06T09:00:00.000+00:00"
      }
    },
    "request": {
      "method": "PUT",
      "url": "Procedure/242cdbcc-3636-40cb-9761-7cf38857135b"
    }
  }, {
    "fullUrl": "https://madie.cms.gov/Coverage/81e85b8d-063d-4aa6-ab68-38786f0b8314",
    "resource": {
      "resourceType": "Coverage",
      "id": "81e85b8d-063d-4aa6-ab68-38786f0b8314",
      "status": "active",
      "beneficiary": {
        "reference": "Patient/8de031c4-05db-42db-b0e5-902696c6e495"
      },
      "period": {
        "start": "1975-03-03T08:00:00.000+00:00"
      },
      "payor": [ {
        "reference": "Organization/9136d6fe-fb11-4640-9ba9-00f2ac7ecd27"
      } ]
    },
    "request": {
      "method": "PUT",
      "url": "Coverage/81e85b8d-063d-4aa6-ab68-38786f0b8314"
    }
  }, {
    "fullUrl": "https://madie.cms.gov/Location/aaee9e5a-cd22-4674-b6fc-e27ab2945a2f",
    "resource": {
      "resourceType": "Location",
      "id": "aaee9e5a-cd22-4674-b6fc-e27ab2945a2f",
      "meta": {
        "profile": [ "http://hl7.org/fhir/us/qicore/StructureDefinition/qicore-location" ]
      },
      "identifier": [ {
        "use": "usual",
        "system": "http://exampleoflocation.com",
        "value": "B1-S.F2"
      } ],
      "name": "Medical Surgical East, first floor",
      "type": [ {
        "coding": [ {
          "system": "https://www.cdc.gov/nhsn/cdaportal/terminology/codesystem/hsloc.html",
          "code": "1025-6",
          "display": "Trauma Critical Care",
          "userSelected": true
        } ]
      } ]
    },
    "request": {
      "method": "PUT",
      "url": "Location/aaee9e5a-cd22-4674-b6fc-e27ab2945a2f"
    }
  }, {
    "fullUrl": "https://madie.cms.gov/Organization/9136d6fe-fb11-4640-9ba9-00f2ac7ecd27",
    "resource": {
      "resourceType": "Organization",
      "id": "9136d6fe-fb11-4640-9ba9-00f2ac7ecd27",
      "meta": {
        "profile": [ "http://hl7.org/fhir/us/qicore/StructureDefinition/qicore-organization" ]
      },
      "identifier": [ {
        "use": "temp",
        "system": "urn:oid:2.16.840.1.113883.4.4",
        "value": "21-3259825"
      } ],
      "active": true,
      "type": [ {
        "coding": [ {
          "system": "http://terminology.hl7.org/CodeSystem/organization-type",
          "code": "pay",
          "display": "Payer"
        } ]
      } ],
      "name": "Blue Cross Blue Shield of Texas",
      "telecom": [ {
        "system": "phone",
        "value": "(+1) 972-766-6900"
      } ],
      "address": [ {
        "use": "billing",
        "type": "postal",
        "line": [ "P.O. Box 660044" ],
        "city": "Dallas",
        "state": "TX",
        "postalCode": "75266-0044",
        "country": "USA"
      } ]
    },
    "request": {
      "method": "PUT",
      "url": "Organization/9136d6fe-fb11-4640-9ba9-00f2ac7ecd27"
    }
  }, {
    "fullUrl": "https://madie.cms.gov/Practitioner/aaa22d47-7860-49c7-9c81-fccd740514ba",
    "resource": {
      "resourceType": "Practitioner",
      "id": "aaa22d47-7860-49c7-9c81-fccd740514ba",
      "identifier": [ {
        "system": "http://hl7.org/fhir/sid/us-npi",
        "value": "123456"
      } ],
      "name": [ {
        "family": "Evil",
        "prefix": [ "Dr" ]
      } ]
    },
    "request": {
      "method": "PUT",
      "url": "Practitioner/aaa22d47-7860-49c7-9c81-fccd740514ba"
    }
  }, {
    "fullUrl": "https://madie.cms.gov/MeasureReport/cecbf7f2-b442-436e-8801-f213815f65e0",
    "resource": {
      "resourceType": "MeasureReport",
      "id": "cecbf7f2-b442-436e-8801-f213815f65e0",
      "meta": {
        "profile": [ "http://hl7.org/fhir/us/cqfmeasures/StructureDefinition/test-case-cqfm" ]
      },
      "contained": [ {
        "resourceType": "Parameters",
        "id": "f11b3c46-27c9-4052-a1c0-9e4fcae55bfb-parameters",
        "parameter": [ {
          "name": "subject",
          "valueString": "8de031c4-05db-42db-b0e5-902696c6e495"
        } ]
      } ],
      "extension": [ {
        "url": "http://hl7.org/fhir/StructureDefinition/cqf-inputParameters",
        "valueReference": {
          "reference": "#f11b3c46-27c9-4052-a1c0-9e4fcae55bfb-parameters"
        }
      }, {
        "url": "http://hl7.org/fhir/us/cqfmeasures/StructureDefinition/cqfm-testCaseDescription",
        "valueMarkdown": "comfort measures Intervention Performed relevant period start time on day of ICU but and ends is null. The case passes\n"
      } ],
      "modifierExtension": [ {
        "url": "http://hl7.org/fhir/us/cqfmeasures/StructureDefinition/cqfm-isTestCase",
        "valueBoolean": true
      } ],
      "status": "complete",
      "type": "individual",
      "measure": "https://madie.cms.gov/Measure/CMS190FHIRVTEProphylaxisICU",
      "period": {
        "start": "2026-01-01",
        "end": "2026-12-31"
      },
      "group": [ {
        "id": "Group_1",
        "population": [ {
          "id": "InitialPopulation_1",
          "code": {
            "coding": [ {
              "system": "http://terminology.hl7.org/CodeSystem/measure-population",
              "code": "initial-population",
              "display": "Initial Population"
            } ]
          },
          "count": 1
        }, {
          "id": "Denominator_1",
          "code": {
            "coding": [ {
              "system": "http://terminology.hl7.org/CodeSystem/measure-population",
              "code": "denominator",
              "display": "Denominator"
            } ]
          },
          "count": 1
        }, {
          "id": "DenominatorExclusion_1",
          "code": {
            "coding": [ {
              "system": "http://terminology.hl7.org/CodeSystem/measure-population",
              "code": "denominator-exclusion",
              "display": "Denominator Exclusion"
            } ]
          },
          "count": 1
        }, {
          "id": "Numerator_1",
          "code": {
            "coding": [ {
              "system": "http://terminology.hl7.org/CodeSystem/measure-population",
              "code": "numerator",
              "display": "Numerator"
            } ]
          },
          "count": 0
        }, {
          "id": "DenominatorException_1",
          "code": {
            "coding": [ {
              "system": "http://terminology.hl7.org/CodeSystem/measure-population",
              "code": "denominator-exception",
              "display": "Denominator Exception"
            } ]
          },
          "count": 0
        } ],
        "measureScore": {
          "value": 0.0
        }
      } ],
      "evaluatedResource": [ {
        "reference": "Patient/8de031c4-05db-42db-b0e5-902696c6e495"
      }, {
        "reference": "Encounter/9ac6f982-9bab-40bb-80db-946ea6839cf9"
      }, {
        "reference": "Procedure/242cdbcc-3636-40cb-9761-7cf38857135b"
      }, {
        "reference": "Coverage/81e85b8d-063d-4aa6-ab68-38786f0b8314"
      }, {
        "reference": "Location/aaee9e5a-cd22-4674-b6fc-e27ab2945a2f"
      }, {
        "reference": "Organization/9136d6fe-fb11-4640-9ba9-00f2ac7ecd27"
      }, {
        "reference": "Practitioner/aaa22d47-7860-49c7-9c81-fccd740514ba"
      } ]
    },
    "request": {
      "method": "PUT",
      "url": "MeasureReport/cecbf7f2-b442-436e-8801-f213815f65e0"
    }
  } ]
}