{
  "resourceType": "Bundle",
  "id": "tests-NUMERPass-3Encounters3Harms-bundle",
  "type": "transaction",
  "entry": [ {
    "fullUrl": "https://madie.cms.gov/Encounter/0c2fced1-314c-4296-a666-fd451741993e",
    "resource": {
      "resourceType": "Encounter",
      "id": "0c2fced1-314c-4296-a666-fd451741993e",
      "meta": {
        "profile": [ "http://hl7.org/fhir/us/qicore/StructureDefinition/qicore-encounter" ]
      },
      "status": "finished",
      "class": {
        "system": "http://terminology.hl7.org/CodeSystem/v3-ActCode",
        "code": "IMP",
        "display": "Inpatient encounter"
      },
      "type": [ {
        "coding": [ {
          "system": "http://snomed.info/sct",
          "code": "183452005",
          "display": "Emergency hospital admission"
        } ]
      } ],
      "subject": {
        "reference": "Patient/213c6814-bde6-4401-b700-a35e429ac104"
      },
      "period": {
        "start": "2026-01-15T08:00:00.000Z",
        "end": "2026-01-18T08:15:00.000Z"
      }
    },
    "request": {
      "method": "PUT",
      "url": "Encounter/0c2fced1-314c-4296-a666-fd451741993e"
    }
  }, {
    "fullUrl": "https://madie.cms.gov/Encounter/0766b292-d513-4b2f-b9e0-a88042883f2f",
    "resource": {
      "resourceType": "Encounter",
      "id": "0766b292-d513-4b2f-b9e0-a88042883f2f",
      "meta": {
        "profile": [ "http://hl7.org/fhir/us/qicore/StructureDefinition/qicore-encounter" ]
      },
      "status": "finished",
      "class": {
        "system": "http://terminology.hl7.org/CodeSystem/v3-ActCode",
        "code": "IMP",
        "display": "Inpatient encounter"
      },
      "type": [ {
        "coding": [ {
          "system": "http://snomed.info/sct",
          "code": "183452005",
          "display": "Emergency hospital admission"
        } ]
      } ],
      "subject": {
        "reference": "Patient/213c6814-bde6-4401-b700-a35e429ac104"
      },
      "period": {
        "start": "2026-01-20T08:00:00.000Z",
        "end": "2026-01-25T08:15:00.000Z"
      }
    },
    "request": {
      "method": "PUT",
      "url": "Encounter/0766b292-d513-4b2f-b9e0-a88042883f2f"
    }
  }, {
    "fullUrl": "https://madie.cms.gov/Encounter/fe1b7401-1f9f-4749-9845-d86011f6bb66",
    "resource": {
      "resourceType": "Encounter",
      "id": "fe1b7401-1f9f-4749-9845-d86011f6bb66",
      "meta": {
        "profile": [ "http://hl7.org/fhir/us/qicore/StructureDefinition/qicore-encounter" ]
      },
      "status": "finished",
      "class": {
        "system": "http://terminology.hl7.org/CodeSystem/v3-ActCode",
        "code": "IMP",
        "display": "Inpatient encounter"
      },
      "type": [ {
        "coding": [ {
          "system": "http://snomed.info/sct",
          "code": "183452005",
          "display": "Emergency hospital admission"
        } ]
      } ],
      "subject": {
        "reference": "Patient/213c6814-bde6-4401-b700-a35e429ac104"
      },
      "period": {
        "start": "2026-01-27T08:00:00.000Z",
        "end": "2026-01-29T08:15:00.000Z"
      }
    },
    "request": {
      "method": "PUT",
      "url": "Encounter/fe1b7401-1f9f-4749-9845-d86011f6bb66"
    }
  }, {
    "fullUrl": "https://madie.cms.gov/MedicationAdministration/4595e562-46b8-4ecb-a728-5b7d8f60f459",
    "resource": {
      "resourceType": "MedicationAdministration",
      "id": "4595e562-46b8-4ecb-a728-5b7d8f60f459",
      "meta": {
        "profile": [ "http://hl7.org/fhir/us/qicore/StructureDefinition/qicore-medicationadministration" ]
      },
      "status": "completed",
      "medicationCodeableConcept": {
        "coding": [ {
          "system": "http://www.nlm.nih.gov/research/umls/rxnorm",
          "code": "1670021",
          "display": "3 ML insulin degludec 200 UNT/ML Pen Injector"
        } ]
      },
      "subject": {
        "reference": "Patient/213c6814-bde6-4401-b700-a35e429ac104"
      },
      "effectivePeriod": {
        "start": "2026-01-15T08:00:00.000Z",
        "end": "2026-01-18T08:15:00.000Z"
      }
    },
    "request": {
      "method": "PUT",
      "url": "MedicationAdministration/4595e562-46b8-4ecb-a728-5b7d8f60f459"
    }
  }, {
    "fullUrl": "https://madie.cms.gov/MedicationAdministration/191eec32-fa3d-4c5c-81b8-c84d8dad55c1",
    "resource": {
      "resourceType": "MedicationAdministration",
      "id": "191eec32-fa3d-4c5c-81b8-c84d8dad55c1",
      "meta": {
        "profile": [ "http://hl7.org/fhir/us/qicore/StructureDefinition/qicore-medicationadministration" ]
      },
      "status": "completed",
      "medicationCodeableConcept": {
        "coding": [ {
          "system": "http://www.nlm.nih.gov/research/umls/rxnorm",
          "code": "1731315",
          "display": "3 ML insulin, regular, human 500 UNT/ML Pen Injector"
        } ]
      },
      "subject": {
        "reference": "Patient/213c6814-bde6-4401-b700-a35e429ac104"
      },
      "effectivePeriod": {
        "start": "2026-01-20T09:00:00.000Z",
        "end": "2026-01-20T09:15:00.000Z"
      }
    },
    "request": {
      "method": "PUT",
      "url": "MedicationAdministration/191eec32-fa3d-4c5c-81b8-c84d8dad55c1"
    }
  }, {
    "fullUrl": "https://madie.cms.gov/MedicationAdministration/3a25d565-d068-4555-b7a0-46c47ee762d2",
    "resource": {
      "resourceType": "MedicationAdministration",
      "id": "3a25d565-d068-4555-b7a0-46c47ee762d2",
      "meta": {
        "profile": [ "http://hl7.org/fhir/us/qicore/StructureDefinition/qicore-medicationadministration" ]
      },
      "status": "completed",
      "medicationCodeableConcept": {
        "coding": [ {
          "system": "http://www.nlm.nih.gov/research/umls/rxnorm",
          "code": "1652644",
          "display": "3 ML insulin lispro 100 UNT/ML Cartridge"
        } ]
      },
      "subject": {
        "reference": "Patient/213c6814-bde6-4401-b700-a35e429ac104"
      },
      "effectivePeriod": {
        "start": "2026-01-27T09:00:00.000Z",
        "end": "2026-01-27T09:15:00.000Z"
      }
    },
    "request": {
      "method": "PUT",
      "url": "MedicationAdministration/3a25d565-d068-4555-b7a0-46c47ee762d2"
    }
  }, {
    "fullUrl": "https://madie.cms.gov/Observation/64cd4a4c-1554-43ae-b52a-7fdd7c1b9deb",
    "resource": {
      "resourceType": "Observation",
      "id": "64cd4a4c-1554-43ae-b52a-7fdd7c1b9deb",
      "meta": {
        "profile": [ "http://hl7.org/fhir/us/qicore/StructureDefinition/qicore-observation-lab" ]
      },
      "status": "final",
      "category": [ {
        "coding": [ {
          "system": "http://terminology.hl7.org/CodeSystem/observation-category",
          "code": "laboratory",
          "display": "Laboratory"
        } ],
        "text": "Laboratory"
      } ],
      "code": {
        "coding": [ {
          "system": "http://loinc.org",
          "code": "1556-0",
          "display": "Fasting glucose [Mass/volume] in Capillary blood"
        } ]
      },
      "subject": {
        "reference": "Patient/213c6814-bde6-4401-b700-a35e429ac104"
      },
      "effectivePeriod": {
        "start": "2026-01-15T09:00:00.000Z",
        "end": "2026-01-15T09:00:00.000Z"
      },
      "issued": "2026-01-15T09:00:00.000Z",
      "valueQuantity": {
        "value": 39,
        "unit": "mg/dL"
      }
    },
    "request": {
      "method": "PUT",
      "url": "Observation/64cd4a4c-1554-43ae-b52a-7fdd7c1b9deb"
    }
  }, {
    "fullUrl": "https://madie.cms.gov/Observation/a5085b22-2e00-469d-af37-e12d0c9f23f2",
    "resource": {
      "resourceType": "Observation",
      "id": "a5085b22-2e00-469d-af37-e12d0c9f23f2",
      "meta": {
        "profile": [ "http://hl7.org/fhir/us/qicore/StructureDefinition/qicore-observation-lab" ]
      },
      "status": "final",
      "category": [ {
        "coding": [ {
          "system": "http://terminology.hl7.org/CodeSystem/observation-category",
          "code": "laboratory",
          "display": "Laboratory"
        } ],
        "text": "Laboratory"
      } ],
      "code": {
        "coding": [ {
          "system": "http://loinc.org",
          "code": "1556-0",
          "display": "Fasting glucose [Mass/volume] in Capillary blood"
        } ]
      },
      "subject": {
        "reference": "Patient/213c6814-bde6-4401-b700-a35e429ac104"
      },
      "effectivePeriod": {
        "start": "2026-01-20T10:00:00.000Z",
        "end": "2026-01-20T10:00:00.000Z"
      },
      "issued": "2026-01-20T10:00:00.000Z",
      "valueQuantity": {
        "value": 30,
        "unit": "mg/dL"
      }
    },
    "request": {
      "method": "PUT",
      "url": "Observation/a5085b22-2e00-469d-af37-e12d0c9f23f2"
    }
  }, {
    "fullUrl": "https://madie.cms.gov/Observation/c633e575-4c9d-4c15-a520-a359ad8b8d2d",
    "resource": {
      "resourceType": "Observation",
      "id": "c633e575-4c9d-4c15-a520-a359ad8b8d2d",
      "meta": {
        "profile": [ "http://hl7.org/fhir/us/qicore/StructureDefinition/qicore-observation-lab" ]
      },
      "status": "final",
      "category": [ {
        "coding": [ {
          "system": "http://terminology.hl7.org/CodeSystem/observation-category",
          "code": "laboratory",
          "display": "Laboratory"
        } ],
        "text": "Laboratory"
      } ],
      "code": {
        "coding": [ {
          "system": "http://loinc.org",
          "code": "1556-0",
          "display": "Fasting glucose [Mass/volume] in Capillary blood"
        } ]
      },
      "subject": {
        "reference": "Patient/213c6814-bde6-4401-b700-a35e429ac104"
      },
      "effectivePeriod": {
        "start": "2026-01-27T10:00:00.000Z",
        "end": "2026-01-27T10:00:00.000Z"
      },
      "issued": "2026-01-27T10:00:00.000Z",
      "valueQuantity": {
        "value": 38,
        "unit": "mg/dL"
      }
    },
    "request": {
      "method": "PUT",
      "url": "Observation/c633e575-4c9d-4c15-a520-a359ad8b8d2d"
    }
  }, {
    "fullUrl": "https://madie.cms.gov/Patient/213c6814-bde6-4401-b700-a35e429ac104",
    "resource": {
      "resourceType": "Patient",
      "id": "213c6814-bde6-4401-b700-a35e429ac104",
      "meta": {
        "profile": [ "http://hl7.org/fhir/us/qicore/StructureDefinition/qicore-patient" ]
      },
      "extension": [ {
        "url": "http://hl7.org/fhir/us/core/StructureDefinition/us-core-race",
        "extension": [ {
          "url": "ombCategory",
          "valueCoding": {
            "system": "urn:oid:2.16.840.1.113883.6.238",
            "code": "2106-3",
            "display": "White"
          }
        }, {
          "url": "text",
          "valueString": "White"
        } ]
      }, {
        "url": "http://hl7.org/fhir/us/core/StructureDefinition/us-core-ethnicity",
        "extension": [ {
          "url": "ombCategory",
          "valueCoding": {
            "system": "urn:oid:2.16.840.1.113883.6.238",
            "code": "2135-2",
            "display": "Hispanic or Latino"
          }
        }, {
          "url": "text",
          "valueString": "Hispanic or Latino"
        } ]
      }, {
        "url": "http://hl7.org/fhir/us/core/StructureDefinition/us-core-sex",
        "valueCode": "248153007"
      } ],
      "identifier": [ {
        "system": "http://hospital.smarthealthit.org",
        "value": "999999999"
      } ],
      "name": [ {
        "family": "CMSNUMERPass",
        "given": [ "3Encounters3Harms" ]
      } ],
      "gender": "female",
      "birthDate": "2000-07-11"
    },
    "request": {
      "method": "PUT",
      "url": "Patient/213c6814-bde6-4401-b700-a35e429ac104"
    }
  }, {
    "fullUrl": "https://madie.cms.gov/MeasureReport/3049e542-7edf-49b1-bd79-f39aff2ebe16",
    "resource": {
      "resourceType": "MeasureReport",
      "id": "3049e542-7edf-49b1-bd79-f39aff2ebe16",
      "meta": {
        "profile": [ "http://hl7.org/fhir/us/cqfmeasures/StructureDefinition/test-case-cqfm" ]
      },
      "contained": [ {
        "resourceType": "Parameters",
        "id": "a8e614ed-efb5-4d61-978c-07ca6ec85cd2-parameters",
        "parameter": [ {
          "name": "subject",
          "valueString": "213c6814-bde6-4401-b700-a35e429ac104"
        } ]
      } ],
      "extension": [ {
        "url": "http://hl7.org/fhir/StructureDefinition/cqf-inputParameters",
        "valueReference": {
          "reference": "#a8e614ed-efb5-4d61-978c-07ca6ec85cd2-parameters"
        }
      }, {
        "url": "http://hl7.org/fhir/us/cqfmeasures/StructureDefinition/cqfm-testCaseDescription",
        "valueMarkdown": "3 different encounters, all have harm (meets numerator). IPP/Denom = 3, Numerator should = 3. \n\n(CMS #24)"
      } ],
      "modifierExtension": [ {
        "url": "http://hl7.org/fhir/us/cqfmeasures/StructureDefinition/cqfm-isTestCase",
        "valueBoolean": true
      } ],
      "status": "complete",
      "type": "individual",
      "measure": "https://madie.cms.gov/Measure/NHSNGlycemicControlHypoglycemiaInitialPopulation",
      "period": {
        "start": "2026-01-01",
        "end": "2026-12-31"
      },
      "group": [ {
        "id": "Group_1",
        "population": [ {
          "id": "InitialPopulation_1",
          "code": {
            "coding": [ {
              "system": "http://terminology.hl7.org/CodeSystem/measure-population",
              "code": "initial-population",
              "display": "Initial Population"
            } ]
          },
          "count": 3
        } ],
        "measureScore": {
          "value": 0.0
        }
      } ],
      "evaluatedResource": [ {
        "reference": "Encounter/0c2fced1-314c-4296-a666-fd451741993e"
      }, {
        "reference": "Encounter/0766b292-d513-4b2f-b9e0-a88042883f2f"
      }, {
        "reference": "Encounter/fe1b7401-1f9f-4749-9845-d86011f6bb66"
      }, {
        "reference": "MedicationAdministration/4595e562-46b8-4ecb-a728-5b7d8f60f459"
      }, {
        "reference": "MedicationAdministration/191eec32-fa3d-4c5c-81b8-c84d8dad55c1"
      }, {
        "reference": "MedicationAdministration/3a25d565-d068-4555-b7a0-46c47ee762d2"
      }, {
        "reference": "Observation/64cd4a4c-1554-43ae-b52a-7fdd7c1b9deb"
      }, {
        "reference": "Observation/a5085b22-2e00-469d-af37-e12d0c9f23f2"
      }, {
        "reference": "Observation/c633e575-4c9d-4c15-a520-a359ad8b8d2d"
      }, {
        "reference": "Patient/213c6814-bde6-4401-b700-a35e429ac104"
      } ]
    },
    "request": {
      "method": "PUT",
      "url": "MeasureReport/3049e542-7edf-49b1-bd79-f39aff2ebe16"
    }
  } ]
}