{
  "resourceType": "Bundle",
  "id": "6109658e98086b538055b9d0",
  "type": "collection",
  "entry": [ {
    "fullUrl": "https://madie.cms.gov/Patient/003b7002-84ee-4303-8030-8bc113f15e7e",
    "resource": {
      "resourceType": "Patient",
      "id": "003b7002-84ee-4303-8030-8bc113f15e7e",
      "meta": {
        "profile": [ "http://hl7.org/fhir/us/qicore/StructureDefinition/qicore-patient" ]
      },
      "extension": [ {
        "url": "http://hl7.org/fhir/us/core/StructureDefinition/us-core-race",
        "extension": [ {
          "url": "ombCategory",
          "valueCoding": {
            "system": "urn:oid:2.16.840.1.113883.6.238",
            "code": "2106-3",
            "display": "White",
            "userSelected": true
          }
        }, {
          "url": "text",
          "valueString": "White"
        } ]
      }, {
        "url": "http://hl7.org/fhir/us/core/StructureDefinition/us-core-ethnicity",
        "extension": [ {
          "url": "ombCategory",
          "valueCoding": {
            "system": "urn:oid:2.16.840.1.113883.6.238",
            "code": "2186-5",
            "display": "Not Hispanic or Latino",
            "userSelected": true
          }
        }, {
          "url": "text",
          "valueString": "Not Hispanic or Latino"
        } ]
      } ],
      "identifier": [ {
        "type": {
          "coding": [ {
            "system": "http://terminology.hl7.org/CodeSystem/v2-0203",
            "code": "MR"
          } ]
        },
        "system": "https://GoodHealthCare.com/",
        "value": "6109658e98086b538055b9d0"
      } ],
      "active": true,
      "name": [ {
        "use": "usual",
        "family": "NUMERPass",
        "given": [ "OpticExamsDuringPOAGEnc" ]
      } ],
      "gender": "female",
      "birthDate": "1972-02-01"
    }
  }, {
    "fullUrl": "https://madie.cms.gov/Condition/c0cc4a58-855e-42f5-80a3-138b677ae10b",
    "resource": {
      "resourceType": "Condition",
      "id": "c0cc4a58-855e-42f5-80a3-138b677ae10b",
      "meta": {
        "profile": [ "http://hl7.org/fhir/us/qicore/StructureDefinition/qicore-condition-problems-health-concerns" ]
      },
      "clinicalStatus": {
        "coding": [ {
          "system": "http://terminology.hl7.org/CodeSystem/condition-clinical",
          "code": "active",
          "display": "active",
          "userSelected": true
        } ]
      },
      "category": [ {
        "coding": [ {
          "system": "http://terminology.hl7.org/CodeSystem/condition-category",
          "code": "problem-list-item",
          "display": "Problem List Item",
          "userSelected": true
        } ]
      } ],
      "code": {
        "coding": [ {
          "system": "http://snomed.info/sct",
          "version": "http://snomed.info/sct/731000124108/version/20250301",
          "code": "50485007",
          "display": "Low tension glaucoma (disorder)"
        } ]
      },
      "subject": {
        "reference": "Patient/003b7002-84ee-4303-8030-8bc113f15e7e"
      },
      "onsetDateTime": "2023-01-14T08:30:00.000+00:00"
    }
  }, {
    "fullUrl": "https://madie.cms.gov/Observation/e367b085-a5fb-4724-97da-544994d8d1c7",
    "resource": {
      "resourceType": "Observation",
      "id": "e367b085-a5fb-4724-97da-544994d8d1c7",
      "meta": {
        "profile": [ "http://hl7.org/fhir/us/qicore/StructureDefinition/qicore-observation-clinical-result" ]
      },
      "status": "final",
      "category": [ {
        "coding": [ {
          "system": "http://terminology.hl7.org/CodeSystem/observation-category",
          "code": "laboratory",
          "display": "laboratory",
          "userSelected": true
        } ]
      }, {
        "coding": [ {
          "system": "http://terminology.hl7.org/CodeSystem/observation-category",
          "code": "survey"
        } ]
      } ],
      "code": {
        "coding": [ {
          "system": "http://loinc.org",
          "version": "2.73",
          "code": "71487-3"
        } ]
      },
      "subject": {
        "reference": "Patient/003b7002-84ee-4303-8030-8bc113f15e7e"
      },
      "effectiveDateTime": "2026-03-01T08:10:00.000+00:00",
      "valueQuantity": {
        "value": 0.8
      }
    }
  }, {
    "fullUrl": "https://madie.cms.gov/Observation/1793c63f-b480-4084-8f40-1d8e6be10be8",
    "resource": {
      "resourceType": "Observation",
      "id": "1793c63f-b480-4084-8f40-1d8e6be10be8",
      "meta": {
        "profile": [ "http://hl7.org/fhir/us/qicore/StructureDefinition/qicore-observation-clinical-result" ]
      },
      "status": "final",
      "category": [ {
        "coding": [ {
          "system": "http://terminology.hl7.org/CodeSystem/observation-category",
          "code": "laboratory",
          "display": "laboratory",
          "userSelected": true
        } ]
      }, {
        "coding": [ {
          "system": "http://terminology.hl7.org/CodeSystem/observation-category",
          "code": "survey"
        } ]
      } ],
      "code": {
        "coding": [ {
          "system": "http://loinc.org",
          "version": "2.73",
          "code": "71484-0"
        } ]
      },
      "subject": {
        "reference": "Patient/003b7002-84ee-4303-8030-8bc113f15e7e"
      },
      "effectiveDateTime": "2026-03-01T08:30:00.000+00:00",
      "valueQuantity": {
        "value": 0.6
      }
    }
  }, {
    "fullUrl": "https://madie.cms.gov/Encounter/1ee98823-f992-4caf-baa9-4706bc6b8c5e",
    "resource": {
      "resourceType": "Encounter",
      "id": "1ee98823-f992-4caf-baa9-4706bc6b8c5e",
      "meta": {
        "profile": [ "http://hl7.org/fhir/us/qicore/StructureDefinition/qicore-encounter" ]
      },
      "status": "finished",
      "class": {
        "system": "http://terminology.hl7.org/CodeSystem/v3-ActCode",
        "code": "AMB",
        "display": "ambulatory",
        "userSelected": true
      },
      "type": [ {
        "coding": [ {
          "system": "http://snomed.info/sct",
          "version": "http://snomed.info/sct/731000124108/version/20230301",
          "code": "78831002",
          "display": "Comprehensive eye examination (procedure)"
        } ]
      } ],
      "subject": {
        "reference": "Patient/003b7002-84ee-4303-8030-8bc113f15e7e"
      },
      "period": {
        "start": "2026-03-01T08:00:00.000+00:00",
        "end": "2026-03-01T08:45:00.000+00:00"
      },
      "length": {
        "value": 0.0,
        "unit": "days"
      }
    }
  }, {
    "fullUrl": "https://madie.cms.gov/MeasureReport/1035de4b-8485-4d94-8c4f-563a2f576ec6",
    "resource": {
      "resourceType": "MeasureReport",
      "id": "1035de4b-8485-4d94-8c4f-563a2f576ec6",
      "meta": {
        "profile": [ "http://hl7.org/fhir/us/cqfmeasures/StructureDefinition/test-case-cqfm" ]
      },
      "contained": [ {
        "resourceType": "Parameters",
        "id": "8d3ad86c-2b2d-43f6-a5c5-908cff1227c6-parameters",
        "parameter": [ {
          "name": "subject",
          "valueString": "003b7002-84ee-4303-8030-8bc113f15e7e"
        } ]
      } ],
      "extension": [ {
        "url": "http://hl7.org/fhir/StructureDefinition/cqf-inputParameters",
        "valueReference": {
          "reference": "#8d3ad86c-2b2d-43f6-a5c5-908cff1227c6-parameters"
        }
      }, {
        "url": "http://hl7.org/fhir/us/cqfmeasures/StructureDefinition/cqfm-testCaseDescription",
        "valueMarkdown": "Patient > 18 with POAG Encounter and Cup to Disc and Optic Nerve performed "
      } ],
      "modifierExtension": [ {
        "url": "http://hl7.org/fhir/us/cqfmeasures/StructureDefinition/cqfm-isTestCase",
        "valueBoolean": true
      } ],
      "status": "complete",
      "type": "individual",
      "measure": "https://madie.cms.gov/Measure/CMS143FHIRPOAGOpticNerveEval",
      "period": {
        "start": "2026-01-01",
        "end": "2026-12-31"
      },
      "group": [ {
        "id": "Group_1",
        "population": [ {
          "id": "InitialPopulation_1",
          "code": {
            "coding": [ {
              "system": "http://terminology.hl7.org/CodeSystem/measure-population",
              "code": "initial-population",
              "display": "Initial Population"
            } ]
          },
          "count": 1
        }, {
          "id": "Denominator_1",
          "code": {
            "coding": [ {
              "system": "http://terminology.hl7.org/CodeSystem/measure-population",
              "code": "denominator",
              "display": "Denominator"
            } ]
          },
          "count": 1
        }, {
          "id": "Numerator_1",
          "code": {
            "coding": [ {
              "system": "http://terminology.hl7.org/CodeSystem/measure-population",
              "code": "numerator",
              "display": "Numerator"
            } ]
          },
          "count": 1
        }, {
          "id": "DenominatorException_1",
          "code": {
            "coding": [ {
              "system": "http://terminology.hl7.org/CodeSystem/measure-population",
              "code": "denominator-exception",
              "display": "Denominator Exception"
            } ]
          },
          "count": 0
        } ],
        "measureScore": {
          "value": 1.0
        }
      } ],
      "evaluatedResource": [ {
        "reference": "Patient/003b7002-84ee-4303-8030-8bc113f15e7e"
      }, {
        "reference": "Condition/c0cc4a58-855e-42f5-80a3-138b677ae10b"
      }, {
        "reference": "Observation/e367b085-a5fb-4724-97da-544994d8d1c7"
      }, {
        "reference": "Observation/1793c63f-b480-4084-8f40-1d8e6be10be8"
      }, {
        "reference": "Encounter/1ee98823-f992-4caf-baa9-4706bc6b8c5e"
      } ]
    }
  } ]
}