{
  "resourceType": "Bundle",
  "id": "646461684986856546863",
  "type": "collection",
  "entry": [ {
    "fullUrl": "https://madie.cms.gov/Patient/b472b9b5-419f-4e40-81c7-2086b4b3962d",
    "resource": {
      "resourceType": "Patient",
      "id": "b472b9b5-419f-4e40-81c7-2086b4b3962d",
      "meta": {
        "profile": [ "http://hl7.org/fhir/us/qicore/StructureDefinition/qicore-patient" ]
      },
      "extension": [ {
        "url": "http://hl7.org/fhir/us/core/StructureDefinition/us-core-race",
        "extension": [ {
          "url": "ombCategory",
          "valueCoding": {
            "system": "urn:oid:2.16.840.1.113883.6.238",
            "code": "1002-5",
            "display": "American Indian or Alaska Native"
          }
        }, {
          "url": "text",
          "valueString": "American Indian or Alaska Native"
        } ]
      }, {
        "url": "http://hl7.org/fhir/us/core/StructureDefinition/us-core-ethnicity",
        "extension": [ {
          "url": "ombCategory",
          "valueCoding": {
            "system": "urn:oid:2.16.840.1.113883.6.238",
            "code": "2186-5",
            "display": "Not Hispanic or Latino"
          }
        }, {
          "url": "text",
          "valueString": "Not Hispanic or Latino"
        } ]
      } ],
      "identifier": [ {
        "type": {
          "coding": [ {
            "system": "http://terminology.hl7.org/CodeSystem/v2-0203",
            "code": "MR"
          } ]
        },
        "system": "https://bonnie-fhir.healthit.gov/",
        "value": "62d99a52aa9f5c6ec34ff3c2"
      } ],
      "active": true,
      "name": [ {
        "use": "usual",
        "family": "DENEXCEPPop1Fail",
        "given": [ "AtrioBlockCardiacPacerPx" ]
      } ],
      "gender": "female",
      "birthDate": "1983-06-28"
    }
  }, {
    "fullUrl": "https://madie.cms.gov/Encounter/1667c5a2-0e75-4010-9187-bb66ab7269f9",
    "resource": {
      "resourceType": "Encounter",
      "id": "1667c5a2-0e75-4010-9187-bb66ab7269f9",
      "meta": {
        "profile": [ "http://hl7.org/fhir/us/qicore/StructureDefinition/qicore-encounter" ]
      },
      "status": "finished",
      "class": {
        "system": "http://terminology.hl7.org/CodeSystem/v3-ActCode",
        "code": "AMB",
        "display": "ambulatory"
      },
      "type": [ {
        "coding": [ {
          "system": "http://www.ama-assn.org/go/cpt",
          "version": "2024",
          "code": "99205"
        } ]
      } ],
      "subject": {
        "reference": "Patient/b472b9b5-419f-4e40-81c7-2086b4b3962d"
      },
      "period": {
        "start": "2026-01-23T11:00:00.000+00:00",
        "end": "2026-01-23T11:15:00.000+00:00"
      }
    }
  }, {
    "fullUrl": "https://madie.cms.gov/Encounter/d17efff3-b09b-4991-9040-668c25bbe637",
    "resource": {
      "resourceType": "Encounter",
      "id": "d17efff3-b09b-4991-9040-668c25bbe637",
      "meta": {
        "profile": [ "http://hl7.org/fhir/us/qicore/StructureDefinition/qicore-encounter" ]
      },
      "status": "finished",
      "class": {
        "system": "http://terminology.hl7.org/CodeSystem/v3-ActCode",
        "code": "AMB",
        "display": "ambulatory"
      },
      "type": [ {
        "coding": [ {
          "system": "http://snomed.info/sct",
          "version": "http://snomed.info/sct/731000124108/version/20250301",
          "code": "185320006",
          "display": "Encounter by computer link (procedure)"
        } ]
      } ],
      "subject": {
        "reference": "Patient/b472b9b5-419f-4e40-81c7-2086b4b3962d"
      },
      "period": {
        "start": "2026-02-25T13:15:00.000+00:00",
        "end": "2026-02-25T14:15:00.000+00:00"
      }
    }
  }, {
    "fullUrl": "https://madie.cms.gov/Condition/251a9949-e335-4875-8250-403fa5162452",
    "resource": {
      "resourceType": "Condition",
      "id": "251a9949-e335-4875-8250-403fa5162452",
      "meta": {
        "profile": [ "http://hl7.org/fhir/us/qicore/StructureDefinition/qicore-condition-problems-health-concerns" ]
      },
      "clinicalStatus": {
        "coding": [ {
          "system": "http://terminology.hl7.org/CodeSystem/condition-clinical",
          "code": "active",
          "display": "Active"
        } ]
      },
      "verificationStatus": {
        "coding": [ {
          "system": "http://terminology.hl7.org/CodeSystem/condition-ver-status",
          "code": "confirmed",
          "display": "Confirmed"
        } ]
      },
      "category": [ {
        "coding": [ {
          "system": "http://terminology.hl7.org/CodeSystem/condition-category",
          "code": "problem-list-item",
          "display": "Problem List Item"
        } ]
      } ],
      "code": {
        "coding": [ {
          "system": "http://hl7.org/fhir/sid/icd-10-cm",
          "version": "2024",
          "code": "I44.1"
        } ]
      },
      "subject": {
        "reference": "Patient/b472b9b5-419f-4e40-81c7-2086b4b3962d"
      },
      "onsetPeriod": {
        "start": "2026-01-24T15:00:00.000+00:00"
      }
    }
  }, {
    "fullUrl": "https://madie.cms.gov/Observation/ba538250-8d35-40d0-b91f-ad9552dc1ccb",
    "resource": {
      "resourceType": "Observation",
      "id": "ba538250-8d35-40d0-b91f-ad9552dc1ccb",
      "meta": {
        "profile": [ "http://hl7.org/fhir/StructureDefinition/heartrate" ]
      },
      "status": "final",
      "category": [ {
        "coding": [ {
          "system": "http://terminology.hl7.org/CodeSystem/observation-category",
          "code": "vital-signs",
          "display": "Vital Signs"
        } ]
      }, {
        "coding": [ {
          "system": "http://terminology.hl7.org/CodeSystem/observation-category",
          "code": "survey"
        } ]
      } ],
      "code": {
        "coding": [ {
          "system": "http://loinc.org",
          "version": "2.76",
          "code": "8867-4"
        } ]
      },
      "subject": {
        "reference": "Patient/b472b9b5-419f-4e40-81c7-2086b4b3962d"
      },
      "effectiveDateTime": "2026-02-25T13:15:00.000+00:00",
      "valueQuantity": {
        "value": 25,
        "unit": "/min",
        "system": "http://unitsofmeasure.org",
        "code": "/min"
      }
    }
  }, {
    "fullUrl": "https://madie.cms.gov/Observation/f00af8a6-22e7-44c4-adba-f19c51f2825a",
    "resource": {
      "resourceType": "Observation",
      "id": "f00af8a6-22e7-44c4-adba-f19c51f2825a",
      "meta": {
        "profile": [ "http://hl7.org/fhir/StructureDefinition/heartrate" ]
      },
      "status": "final",
      "category": [ {
        "coding": [ {
          "system": "http://terminology.hl7.org/CodeSystem/observation-category",
          "code": "vital-signs",
          "display": "Vital Signs"
        } ]
      }, {
        "coding": [ {
          "system": "http://terminology.hl7.org/CodeSystem/observation-category",
          "code": "survey"
        } ]
      } ],
      "code": {
        "coding": [ {
          "system": "http://loinc.org",
          "version": "2.76",
          "code": "8867-4"
        } ]
      },
      "subject": {
        "reference": "Patient/b472b9b5-419f-4e40-81c7-2086b4b3962d"
      },
      "effectiveDateTime": "2026-02-25T18:15:00.000+00:00",
      "valueQuantity": {
        "value": 20,
        "unit": "/min",
        "system": "http://unitsofmeasure.org",
        "code": "/min"
      }
    }
  }, {
    "fullUrl": "https://madie.cms.gov/Condition/5364555e-4486-4cd4-9c1e-b96e4d218fa4",
    "resource": {
      "resourceType": "Condition",
      "id": "5364555e-4486-4cd4-9c1e-b96e4d218fa4",
      "meta": {
        "profile": [ "http://hl7.org/fhir/us/qicore/StructureDefinition/qicore-condition-problems-health-concerns" ]
      },
      "clinicalStatus": {
        "coding": [ {
          "system": "http://terminology.hl7.org/CodeSystem/condition-clinical",
          "code": "active",
          "display": "Active"
        } ]
      },
      "verificationStatus": {
        "coding": [ {
          "system": "http://terminology.hl7.org/CodeSystem/condition-ver-status",
          "code": "confirmed",
          "display": "Confirmed"
        } ]
      },
      "category": [ {
        "coding": [ {
          "system": "http://terminology.hl7.org/CodeSystem/condition-category",
          "code": "problem-list-item",
          "display": "Problem List Item"
        } ]
      } ],
      "code": {
        "coding": [ {
          "system": "http://snomed.info/sct",
          "version": "http://snomed.info/sct/731000124108/version/20250301",
          "code": "981000124106",
          "display": "Moderate left ventricular systolic dysfunction (disorder)"
        } ]
      },
      "subject": {
        "reference": "Patient/b472b9b5-419f-4e40-81c7-2086b4b3962d"
      },
      "onsetPeriod": {
        "start": "2026-01-05T17:00:00.000+00:00",
        "end": "2026-02-02T17:00:00.000+00:00"
      }
    }
  }, {
    "fullUrl": "https://madie.cms.gov/Condition/0c7c3682-31c7-40fa-bb2c-90ea6c70f7bc",
    "resource": {
      "resourceType": "Condition",
      "id": "0c7c3682-31c7-40fa-bb2c-90ea6c70f7bc",
      "meta": {
        "profile": [ "http://hl7.org/fhir/us/qicore/StructureDefinition/qicore-condition-problems-health-concerns" ]
      },
      "clinicalStatus": {
        "coding": [ {
          "system": "http://terminology.hl7.org/CodeSystem/condition-clinical",
          "code": "active",
          "display": "Active"
        } ]
      },
      "verificationStatus": {
        "coding": [ {
          "system": "http://terminology.hl7.org/CodeSystem/condition-ver-status",
          "code": "confirmed",
          "display": "Confirmed"
        } ]
      },
      "category": [ {
        "coding": [ {
          "system": "http://terminology.hl7.org/CodeSystem/condition-category",
          "code": "problem-list-item",
          "display": "Problem List Item"
        } ]
      } ],
      "code": {
        "coding": [ {
          "system": "http://snomed.info/sct",
          "version": "http://snomed.info/sct/731000124108/version/20250301",
          "code": "10365005",
          "display": "Right main coronary artery thrombosis (disorder)"
        } ]
      },
      "subject": {
        "reference": "Patient/b472b9b5-419f-4e40-81c7-2086b4b3962d"
      },
      "onsetDateTime": "2026-01-23T11:00:00.000+00:00"
    }
  }, {
    "fullUrl": "https://madie.cms.gov/Procedure/c7a0d2e5-76f8-4141-8fb7-5a7039b3942e",
    "resource": {
      "resourceType": "Procedure",
      "id": "c7a0d2e5-76f8-4141-8fb7-5a7039b3942e",
      "meta": {
        "profile": [ "http://hl7.org/fhir/us/qicore/StructureDefinition/qicore-procedure" ]
      },
      "extension": [ {
        "url": "http://hl7.org/fhir/us/qicore/StructureDefinition/qicore-recorded",
        "valueDateTime": "2026-01-22T08:00:00.000+00:00"
      } ],
      "status": "completed",
      "code": {
        "coding": [ {
          "system": "http://snomed.info/sct",
          "version": "http://snomed.info/sct/731000124108/version/20240301",
          "code": "1231779006",
          "display": "Implantation of leadless cardiac pacemaker (procedure)"
        } ]
      },
      "subject": {
        "reference": "Patient/b472b9b5-419f-4e40-81c7-2086b4b3962d"
      },
      "performedPeriod": {
        "start": "2026-01-22T08:00:00.000+00:00",
        "end": "2026-01-22T08:30:00.000+00:00"
      }
    }
  }, {
    "fullUrl": "https://madie.cms.gov/MeasureReport/dfd74cf2-15a0-4b9e-b50d-591bc593735d",
    "resource": {
      "resourceType": "MeasureReport",
      "id": "dfd74cf2-15a0-4b9e-b50d-591bc593735d",
      "meta": {
        "profile": [ "http://hl7.org/fhir/us/cqfmeasures/StructureDefinition/test-case-cqfm" ]
      },
      "contained": [ {
        "resourceType": "Parameters",
        "id": "68049e6f-9a30-4781-b954-b6354ab6da86-parameters",
        "parameter": [ {
          "name": "subject",
          "valueString": "b472b9b5-419f-4e40-81c7-2086b4b3962d"
        } ]
      } ],
      "extension": [ {
        "url": "http://hl7.org/fhir/StructureDefinition/cqf-inputParameters",
        "valueReference": {
          "reference": "#68049e6f-9a30-4781-b954-b6354ab6da86-parameters"
        }
      }, {
        "url": "http://hl7.org/fhir/us/cqfmeasures/StructureDefinition/cqfm-testCaseDescription",
        "valueMarkdown": "Pt > 18, 2 visits in MP, AV block onset after 1st visit b4 2nd visit, pulse of 25 bpm during 2nd visit, a pulse of 20 bpm after 2nd visit, moderate LVSD onset b4 1st visit, CAD Dx onset during 2nd visit, and Cardiac Pacer Px during MP b4 1st visit"
      } ],
      "modifierExtension": [ {
        "url": "http://hl7.org/fhir/us/cqfmeasures/StructureDefinition/cqfm-isTestCase",
        "valueBoolean": true
      } ],
      "status": "complete",
      "type": "individual",
      "measure": "https://madie.cms.gov/Measure/CMS145FHIRCADBBlockerTPMIorLVSD",
      "period": {
        "start": "2026-01-01",
        "end": "2026-12-31"
      },
      "group": [ {
        "id": "Group_1",
        "population": [ {
          "id": "InitialPopulation_1",
          "code": {
            "coding": [ {
              "system": "http://terminology.hl7.org/CodeSystem/measure-population",
              "code": "initial-population",
              "display": "Initial Population"
            } ]
          },
          "count": 1
        }, {
          "id": "Denominator_1",
          "code": {
            "coding": [ {
              "system": "http://terminology.hl7.org/CodeSystem/measure-population",
              "code": "denominator",
              "display": "Denominator"
            } ]
          },
          "count": 1
        }, {
          "id": "Numerator_1",
          "code": {
            "coding": [ {
              "system": "http://terminology.hl7.org/CodeSystem/measure-population",
              "code": "numerator",
              "display": "Numerator"
            } ]
          },
          "count": 0
        }, {
          "id": "DenominatorException_1",
          "code": {
            "coding": [ {
              "system": "http://terminology.hl7.org/CodeSystem/measure-population",
              "code": "denominator-exception",
              "display": "Denominator Exception"
            } ]
          },
          "count": 0
        } ],
        "measureScore": {
          "value": 1.0
        }
      }, {
        "id": "Group_2",
        "population": [ {
          "id": "InitialPopulation_2",
          "code": {
            "coding": [ {
              "system": "http://terminology.hl7.org/CodeSystem/measure-population",
              "code": "initial-population",
              "display": "Initial Population"
            } ]
          },
          "count": 1
        }, {
          "id": "Denominator_2",
          "code": {
            "coding": [ {
              "system": "http://terminology.hl7.org/CodeSystem/measure-population",
              "code": "denominator",
              "display": "Denominator"
            } ]
          },
          "count": 0
        }, {
          "id": "Numerator_2",
          "code": {
            "coding": [ {
              "system": "http://terminology.hl7.org/CodeSystem/measure-population",
              "code": "numerator",
              "display": "Numerator"
            } ]
          },
          "count": 0
        }, {
          "id": "DenominatorException_2",
          "code": {
            "coding": [ {
              "system": "http://terminology.hl7.org/CodeSystem/measure-population",
              "code": "denominator-exception",
              "display": "Denominator Exception"
            } ]
          },
          "count": 0
        } ],
        "measureScore": {
          "value": 1.0
        }
      } ],
      "evaluatedResource": [ {
        "reference": "Patient/b472b9b5-419f-4e40-81c7-2086b4b3962d"
      }, {
        "reference": "Encounter/1667c5a2-0e75-4010-9187-bb66ab7269f9"
      }, {
        "reference": "Encounter/d17efff3-b09b-4991-9040-668c25bbe637"
      }, {
        "reference": "Condition/251a9949-e335-4875-8250-403fa5162452"
      }, {
        "reference": "Observation/ba538250-8d35-40d0-b91f-ad9552dc1ccb"
      }, {
        "reference": "Observation/f00af8a6-22e7-44c4-adba-f19c51f2825a"
      }, {
        "reference": "Condition/5364555e-4486-4cd4-9c1e-b96e4d218fa4"
      }, {
        "reference": "Condition/0c7c3682-31c7-40fa-bb2c-90ea6c70f7bc"
      }, {
        "reference": "Procedure/c7a0d2e5-76f8-4141-8fb7-5a7039b3942e"
      } ]
    }
  } ]
}