{
  "resourceType": "Bundle",
  "id": "tests-IPPFail-NoHypoglycemicGiven-bundle",
  "type": "transaction",
  "entry": [ {
    "fullUrl": "https://madie.cms.gov/Encounter/68363df7-96e8-4d1c-b23a-6f466071d317",
    "resource": {
      "resourceType": "Encounter",
      "id": "68363df7-96e8-4d1c-b23a-6f466071d317",
      "meta": {
        "profile": [ "http://hl7.org/fhir/us/qicore/StructureDefinition/qicore-encounter" ]
      },
      "status": "finished",
      "class": {
        "system": "http://terminology.hl7.org/CodeSystem/v3-ActCode",
        "code": "IMP",
        "display": "Inpatient encounter"
      },
      "type": [ {
        "coding": [ {
          "system": "http://snomed.info/sct",
          "code": "183452005",
          "display": "Emergency hospital admission (procedure)"
        } ]
      } ],
      "subject": {
        "reference": "Patient/63011803-dd5d-4a7b-a823-34d311f2ab67"
      },
      "period": {
        "start": "2026-01-11T08:00:00.000Z",
        "end": "2026-01-16T21:00:00.000Z"
      }
    },
    "request": {
      "method": "PUT",
      "url": "Encounter/68363df7-96e8-4d1c-b23a-6f466071d317"
    }
  }, {
    "fullUrl": "https://madie.cms.gov/Patient/63011803-dd5d-4a7b-a823-34d311f2ab67",
    "resource": {
      "resourceType": "Patient",
      "id": "63011803-dd5d-4a7b-a823-34d311f2ab67",
      "meta": {
        "profile": [ "http://hl7.org/fhir/us/qicore/StructureDefinition/qicore-patient" ]
      },
      "extension": [ {
        "url": "http://hl7.org/fhir/us/core/StructureDefinition/us-core-race",
        "extension": [ {
          "url": "ombCategory",
          "valueCoding": {
            "system": "urn:oid:2.16.840.1.113883.6.238",
            "code": "2106-3",
            "display": "White"
          }
        }, {
          "url": "text",
          "valueString": "White"
        } ]
      }, {
        "url": "http://hl7.org/fhir/us/core/StructureDefinition/us-core-ethnicity",
        "extension": [ {
          "url": "ombCategory",
          "valueCoding": {
            "system": "urn:oid:2.16.840.1.113883.6.238",
            "code": "2135-2",
            "display": "Hispanic or Latino"
          }
        }, {
          "url": "text",
          "valueString": "Hispanic or Latino"
        } ]
      }, {
        "url": "http://hl7.org/fhir/us/core/StructureDefinition/us-core-sex",
        "valueCode": "248153007"
      } ],
      "identifier": [ {
        "system": "http://hospital.smarthealthit.org",
        "value": "999999999"
      } ],
      "name": [ {
        "family": "CMSIPPFail",
        "given": [ "NoHypoglycemicGiven" ]
      } ],
      "gender": "female",
      "birthDate": "2000-07-11"
    },
    "request": {
      "method": "PUT",
      "url": "Patient/63011803-dd5d-4a7b-a823-34d311f2ab67"
    }
  }, {
    "fullUrl": "https://madie.cms.gov/MeasureReport/52c35ba0-3c62-4320-96b5-46a9316fd681",
    "resource": {
      "resourceType": "MeasureReport",
      "id": "52c35ba0-3c62-4320-96b5-46a9316fd681",
      "meta": {
        "profile": [ "http://hl7.org/fhir/us/cqfmeasures/StructureDefinition/test-case-cqfm" ]
      },
      "contained": [ {
        "resourceType": "Parameters",
        "id": "827a2bdf-563c-4d0c-9fd8-738a014d3758-parameters",
        "parameter": [ {
          "name": "subject",
          "valueString": "63011803-dd5d-4a7b-a823-34d311f2ab67"
        } ]
      } ],
      "extension": [ {
        "url": "http://hl7.org/fhir/StructureDefinition/cqf-inputParameters",
        "valueReference": {
          "reference": "#827a2bdf-563c-4d0c-9fd8-738a014d3758-parameters"
        }
      }, {
        "url": "http://hl7.org/fhir/us/cqfmeasures/StructureDefinition/cqfm-testCaseDescription",
        "valueMarkdown": "Inpatient encounter with no hypoglycemic medication administered. Med is required to meet IPP.\n\n(CMS #13)"
      } ],
      "modifierExtension": [ {
        "url": "http://hl7.org/fhir/us/cqfmeasures/StructureDefinition/cqfm-isTestCase",
        "valueBoolean": true
      } ],
      "status": "complete",
      "type": "individual",
      "measure": "https://madie.cms.gov/Measure/NHSNGlycemicControlHypoglycemiaInitialPopulation",
      "period": {
        "start": "2026-01-01",
        "end": "2026-12-31"
      },
      "group": [ {
        "id": "Group_1",
        "population": [ {
          "id": "InitialPopulation_1",
          "code": {
            "coding": [ {
              "system": "http://terminology.hl7.org/CodeSystem/measure-population",
              "code": "initial-population",
              "display": "Initial Population"
            } ]
          },
          "count": 0
        } ],
        "measureScore": {
          "value": 0.0
        }
      } ],
      "evaluatedResource": [ {
        "reference": "Encounter/68363df7-96e8-4d1c-b23a-6f466071d317"
      }, {
        "reference": "Patient/63011803-dd5d-4a7b-a823-34d311f2ab67"
      } ]
    },
    "request": {
      "method": "PUT",
      "url": "MeasureReport/52c35ba0-3c62-4320-96b5-46a9316fd681"
    }
  } ]
}