{
  "resourceType": "Bundle",
  "id": "63487c2f0968f80122540193",
  "type": "transaction",
  "entry": [ {
    "fullUrl": "https://madie.cms.gov/Patient/55667be7-f623-43bd-889f-9ca7f28252d1",
    "resource": {
      "resourceType": "Patient",
      "id": "55667be7-f623-43bd-889f-9ca7f28252d1",
      "meta": {
        "profile": [ "http://hl7.org/fhir/us/qicore/StructureDefinition/qicore-patient" ]
      },
      "text": {
        "status": "generated",
        "div": "<div xmlns=\"http://www.w3.org/1999/xhtml\"><div class=\"hapiHeaderText\">AssessPreTerm0RelDateTime42wksand1minB4DelivDateTime<b>DENOMFail</b></div><table class=\"hapiPropertyTable\"><tbody><tr><td>Identifier</td><td>422c2dba3b85e09cc57593562310cdd8d8e31fe2380a4241b6ce60d5e444f4c4</td></tr><tr><td>Date of birth</td><td><span>14 February 1985</span></td></tr></tbody></table></div>"
      },
      "extension": [ {
        "url": "http://hl7.org/fhir/us/core/StructureDefinition/us-core-race",
        "extension": [ {
          "url": "ombCategory",
          "valueCoding": {
            "system": "urn:oid:2.16.840.1.113883.6.238",
            "code": "1002-5",
            "display": "American Indian or Alaska Native",
            "userSelected": true
          }
        }, {
          "url": "text",
          "valueString": "American Indian or Alaska Native"
        } ]
      }, {
        "url": "http://hl7.org/fhir/us/core/StructureDefinition/us-core-ethnicity",
        "extension": [ {
          "url": "ombCategory",
          "valueCoding": {
            "system": "urn:oid:2.16.840.1.113883.6.238",
            "code": "2135-2",
            "display": "Hispanic or Latino",
            "userSelected": true
          }
        }, {
          "url": "text",
          "valueString": "Hispanic or Latino"
        } ]
      } ],
      "identifier": [ {
        "type": {
          "coding": [ {
            "system": "http://terminology.hl7.org/CodeSystem/v2-0203",
            "code": "MR"
          } ]
        },
        "system": "https://bonnie-fhir.healthit.gov/",
        "value": "63487c2f0968f80122540193"
      } ],
      "active": true,
      "name": [ {
        "use": "usual",
        "family": "DENOMFail",
        "given": [ "AssessPreTerm0RelDateTime42wksand1minB4DelivDateTime" ]
      } ],
      "gender": "female",
      "birthDate": "1998-02-14"
    },
    "request": {
      "method": "PUT",
      "url": "Patient/55667be7-f623-43bd-889f-9ca7f28252d1"
    }
  }, {
    "fullUrl": "https://madie.cms.gov/Observation/fbdec8a9-af93-43b5-b501-115cfbc4d65d",
    "resource": {
      "resourceType": "Observation",
      "id": "fbdec8a9-af93-43b5-b501-115cfbc4d65d",
      "meta": {
        "profile": [ "http://hl7.org/fhir/us/qicore/StructureDefinition/qicore-simple-observation" ]
      },
      "status": "final",
      "category": [ {
        "coding": [ {
          "system": "http://terminology.hl7.org/CodeSystem/observation-category",
          "code": "exam",
          "display": "exam",
          "userSelected": true
        } ]
      } ],
      "code": {
        "coding": [ {
          "system": "http://loinc.org",
          "code": "11637-6"
        } ]
      },
      "subject": {
        "reference": "Patient/55667be7-f623-43bd-889f-9ca7f28252d1"
      },
      "effectiveDateTime": "2025-08-11T19:59:00.000+00:00",
      "valueInteger": 0
    },
    "request": {
      "method": "PUT",
      "url": "Observation/fbdec8a9-af93-43b5-b501-115cfbc4d65d"
    }
  }, {
    "fullUrl": "https://madie.cms.gov/Observation/b1a15ff1-ca9f-4010-b770-33c1f1088999",
    "resource": {
      "resourceType": "Observation",
      "id": "b1a15ff1-ca9f-4010-b770-33c1f1088999",
      "meta": {
        "profile": [ "http://hl7.org/fhir/us/qicore/StructureDefinition/qicore-simple-observation" ]
      },
      "status": "final",
      "category": [ {
        "coding": [ {
          "system": "http://terminology.hl7.org/CodeSystem/observation-category",
          "code": "exam",
          "display": "exam",
          "userSelected": true
        } ]
      } ],
      "code": {
        "coding": [ {
          "system": "http://loinc.org",
          "code": "11639-2"
        } ]
      },
      "subject": {
        "reference": "Patient/55667be7-f623-43bd-889f-9ca7f28252d1"
      },
      "effectiveDateTime": "2025-09-19T09:00:00.000+00:00",
      "valueInteger": 0
    },
    "request": {
      "method": "PUT",
      "url": "Observation/b1a15ff1-ca9f-4010-b770-33c1f1088999"
    }
  }, {
    "fullUrl": "https://madie.cms.gov/Observation/c2172094-2644-4420-bf4b-d5d89ea6a867",
    "resource": {
      "resourceType": "Observation",
      "id": "c2172094-2644-4420-bf4b-d5d89ea6a867",
      "meta": {
        "profile": [ "http://hl7.org/fhir/us/qicore/StructureDefinition/qicore-simple-observation" ]
      },
      "status": "final",
      "category": [ {
        "coding": [ {
          "system": "http://terminology.hl7.org/CodeSystem/observation-category",
          "code": "exam",
          "display": "exam",
          "userSelected": true
        } ]
      } ],
      "code": {
        "coding": [ {
          "system": "http://loinc.org",
          "code": "11884-4"
        } ]
      },
      "subject": {
        "reference": "Patient/55667be7-f623-43bd-889f-9ca7f28252d1"
      },
      "effectiveDateTime": "2026-06-08T20:00:00.000+00:00",
      "valueQuantity": {
        "value": 37,
        "system": "http://unitsofmeasure.org",
        "code": "wk"
      }
    },
    "request": {
      "method": "PUT",
      "url": "Observation/c2172094-2644-4420-bf4b-d5d89ea6a867"
    }
  }, {
    "fullUrl": "https://madie.cms.gov/Observation/66c3cb87-d7dd-468d-bd9a-728b198f119b",
    "resource": {
      "resourceType": "Observation",
      "id": "66c3cb87-d7dd-468d-bd9a-728b198f119b",
      "meta": {
        "profile": [ "http://hl7.org/fhir/us/qicore/StructureDefinition/qicore-simple-observation" ]
      },
      "status": "final",
      "category": [ {
        "coding": [ {
          "system": "http://terminology.hl7.org/CodeSystem/observation-category",
          "code": "exam",
          "display": "exam",
          "userSelected": true
        } ]
      } ],
      "code": {
        "coding": [ {
          "system": "http://loinc.org",
          "code": "93857-1"
        } ]
      },
      "subject": {
        "reference": "Patient/55667be7-f623-43bd-889f-9ca7f28252d1"
      },
      "effectiveDateTime": "2026-06-08T20:00:00.000+00:00",
      "valueDateTime": "2026-06-08T20:00:00.000+00:00"
    },
    "request": {
      "method": "PUT",
      "url": "Observation/66c3cb87-d7dd-468d-bd9a-728b198f119b"
    }
  }, {
    "fullUrl": "https://madie.cms.gov/Encounter/b7576091-11c4-4211-a43e-b34afdd04a1e",
    "resource": {
      "resourceType": "Encounter",
      "id": "b7576091-11c4-4211-a43e-b34afdd04a1e",
      "meta": {
        "profile": [ "http://hl7.org/fhir/us/qicore/StructureDefinition/qicore-encounter" ]
      },
      "status": "finished",
      "class": {
        "system": "http://terminology.hl7.org/CodeSystem/v3-ActCode",
        "code": "IMP",
        "display": "inpatient encounter"
      },
      "type": [ {
        "coding": [ {
          "system": "http://snomed.info/sct",
          "code": "8715000"
        } ]
      } ],
      "subject": {
        "reference": "Patient/55667be7-f623-43bd-889f-9ca7f28252d1"
      },
      "period": {
        "start": "2026-06-08T08:00:00.000+00:00",
        "end": "2026-06-10T08:15:00.000+00:00"
      },
      "length": {
        "value": 2,
        "unit": "days"
      },
      "reasonReference": [ {
        "reference": "Condition/c6fd43cf-337d-4d9b-9e55-51e9e647d34b"
      } ]
    },
    "request": {
      "method": "PUT",
      "url": "Encounter/b7576091-11c4-4211-a43e-b34afdd04a1e"
    }
  }, {
    "fullUrl": "https://madie.cms.gov/Procedure/e113e3a6-8a41-4cc4-b298-ec0efe98d2cc",
    "resource": {
      "resourceType": "Procedure",
      "id": "e113e3a6-8a41-4cc4-b298-ec0efe98d2cc",
      "meta": {
        "profile": [ "http://hl7.org/fhir/us/qicore/StructureDefinition/qicore-procedure" ]
      },
      "extension": [ {
        "url": "http://hl7.org/fhir/us/qicore/StructureDefinition/qicore-recorded",
        "valueDateTime": "2014-04-05T13:35:00.000+00:00"
      } ],
      "status": "completed",
      "code": {
        "coding": [ {
          "system": "http://www.cms.gov/Medicare/Coding/ICD10",
          "code": "10D00Z0"
        }, {
          "system": "http://snomed.info/sct",
          "code": "4504004"
        }, {
          "system": "http://www.icd10data.com/icd10pcs",
          "code": "10D00Z0",
          "userSelected": true
        } ]
      },
      "subject": {
        "reference": "Patient/55667be7-f623-43bd-889f-9ca7f28252d1"
      },
      "performedPeriod": {
        "start": "2026-06-08T20:00:00.000+00:00",
        "end": "2026-06-08T20:15:00.000+00:00"
      }
    },
    "request": {
      "method": "PUT",
      "url": "Procedure/e113e3a6-8a41-4cc4-b298-ec0efe98d2cc"
    }
  }, {
    "fullUrl": "https://madie.cms.gov/Condition/c6fd43cf-337d-4d9b-9e55-51e9e647d34b",
    "resource": {
      "resourceType": "Condition",
      "id": "c6fd43cf-337d-4d9b-9e55-51e9e647d34b",
      "meta": {
        "profile": [ "http://hl7.org/fhir/us/qicore/StructureDefinition/qicore-condition-encounter-diagnosis" ]
      },
      "category": [ {
        "coding": [ {
          "system": "http://terminology.hl7.org/CodeSystem/condition-category",
          "code": "encounter-diagnosis",
          "display": "Encounter Diagnosis"
        } ]
      } ],
      "code": {
        "coding": [ {
          "system": "http://snomed.info/sct",
          "version": "2022-09",
          "code": "169826009",
          "display": "Single live birth from singleton pregnancy (finding)",
          "userSelected": true
        } ]
      },
      "subject": {
        "reference": "Patient/55667be7-f623-43bd-889f-9ca7f28252d1"
      },
      "encounter": {
        "reference": "Encounter/b7576091-11c4-4211-a43e-b34afdd04a1e"
      },
      "recordedDate": "2026-10-21T08:00:00.000+00:00"
    },
    "request": {
      "method": "PUT",
      "url": "Condition/c6fd43cf-337d-4d9b-9e55-51e9e647d34b"
    }
  }, {
    "fullUrl": "https://madie.cms.gov/Coverage/e8e80b8f-e523-4473-86de-3a081355595f",
    "resource": {
      "resourceType": "Coverage",
      "id": "e8e80b8f-e523-4473-86de-3a081355595f",
      "meta": {
        "profile": [ "http://hl7.org/fhir/us/qicore/StructureDefinition/qicore-coverage" ]
      },
      "status": "active",
      "subscriberId": "523435",
      "beneficiary": {
        "reference": "Patient/55667be7-f623-43bd-889f-9ca7f28252d1"
      },
      "relationship": {
        "coding": [ {
          "system": "http://terminology.hl7.org/CodeSystem/subscriber-relationship",
          "code": "self"
        } ]
      },
      "payor": [ {
        "reference": "Organization/97935030-8162-43f8-a0d7-ca47169584ba"
      } ]
    },
    "request": {
      "method": "PUT",
      "url": "Coverage/e8e80b8f-e523-4473-86de-3a081355595f"
    }
  }, {
    "fullUrl": "https://madie.cms.gov/Organization/97935030-8162-43f8-a0d7-ca47169584ba",
    "resource": {
      "resourceType": "Organization",
      "id": "97935030-8162-43f8-a0d7-ca47169584ba",
      "meta": {
        "profile": [ "http://hl7.org/fhir/us/qicore/StructureDefinition/qicore-organization" ]
      },
      "identifier": [ {
        "use": "temp",
        "system": "urn:oid:2.16.840.1.113883.4.4",
        "value": "21-3259825"
      } ],
      "active": true,
      "type": [ {
        "coding": [ {
          "system": "http://terminology.hl7.org/CodeSystem/organization-type",
          "code": "pay",
          "display": "Payer"
        } ]
      } ],
      "name": "Blue Cross Blue Shield of Texas",
      "telecom": [ {
        "system": "phone",
        "value": "(+1) 972-766-6900"
      } ],
      "address": [ {
        "use": "billing",
        "type": "postal",
        "line": [ "P.O. Box 660044" ],
        "city": "Dallas",
        "state": "TX",
        "postalCode": "75266-0044",
        "country": "USA"
      } ]
    },
    "request": {
      "method": "PUT",
      "url": "Organization/97935030-8162-43f8-a0d7-ca47169584ba"
    }
  }, {
    "fullUrl": "https://madie.cms.gov/Practitioner/2ea574d4-6bfd-4183-98a7-cfd75c5cbbc5",
    "resource": {
      "resourceType": "Practitioner",
      "id": "2ea574d4-6bfd-4183-98a7-cfd75c5cbbc5",
      "meta": {
        "profile": [ "http://hl7.org/fhir/us/qicore/StructureDefinition/qicore-practitioner" ]
      },
      "identifier": [ {
        "system": "http://hl7.org/fhir/sid/us-npi",
        "value": "1234567890"
      } ],
      "name": [ {
        "family": "Evil",
        "prefix": [ "Dr" ]
      } ]
    },
    "request": {
      "method": "PUT",
      "url": "Practitioner/2ea574d4-6bfd-4183-98a7-cfd75c5cbbc5"
    }
  }, {
    "fullUrl": "https://madie.cms.gov/MeasureReport/4be10203-dce9-4455-b952-86af40a2de42",
    "resource": {
      "resourceType": "MeasureReport",
      "id": "4be10203-dce9-4455-b952-86af40a2de42",
      "meta": {
        "profile": [ "http://hl7.org/fhir/us/cqfmeasures/StructureDefinition/test-case-cqfm" ]
      },
      "contained": [ {
        "resourceType": "Parameters",
        "id": "bf2baa95-abd2-4b8b-8d19-7c83efa1de09-parameters",
        "parameter": [ {
          "name": "subject",
          "valueString": "55667be7-f623-43bd-889f-9ca7f28252d1"
        } ]
      } ],
      "extension": [ {
        "url": "http://hl7.org/fhir/StructureDefinition/cqf-inputParameters",
        "valueReference": {
          "reference": "#bf2baa95-abd2-4b8b-8d19-7c83efa1de09-parameters"
        }
      }, {
        "url": "http://hl7.org/fhir/us/cqfmeasures/StructureDefinition/cqfm-testCaseDescription",
        "valueMarkdown": "Preterm Births=0, relevant date  42weeks  and 1 min before Asse delivery date/time\n"
      } ],
      "modifierExtension": [ {
        "url": "http://hl7.org/fhir/us/cqfmeasures/StructureDefinition/cqfm-isTestCase",
        "valueBoolean": true
      } ],
      "status": "complete",
      "type": "individual",
      "measure": "https://madie.cms.gov/Measure/CMS0334FHIRPCCesareanBirth",
      "period": {
        "start": "2026-01-01",
        "end": "2026-12-31"
      },
      "group": [ {
        "id": "Group_1",
        "population": [ {
          "id": "InitialPopulation_1",
          "code": {
            "coding": [ {
              "system": "http://terminology.hl7.org/CodeSystem/measure-population",
              "code": "initial-population",
              "display": "Initial Population"
            } ]
          },
          "count": 1
        }, {
          "id": "Denominator_1",
          "code": {
            "coding": [ {
              "system": "http://terminology.hl7.org/CodeSystem/measure-population",
              "code": "denominator",
              "display": "Denominator"
            } ]
          },
          "count": 0
        }, {
          "id": "DenominatorExclusion_1",
          "code": {
            "coding": [ {
              "system": "http://terminology.hl7.org/CodeSystem/measure-population",
              "code": "denominator-exclusion",
              "display": "Denominator Exclusion"
            } ]
          },
          "count": 0
        }, {
          "id": "Numerator_1",
          "code": {
            "coding": [ {
              "system": "http://terminology.hl7.org/CodeSystem/measure-population",
              "code": "numerator",
              "display": "Numerator"
            } ]
          },
          "count": 0
        } ],
        "measureScore": {
          "value": 0.0
        }
      } ],
      "evaluatedResource": [ {
        "reference": "Patient/55667be7-f623-43bd-889f-9ca7f28252d1"
      }, {
        "reference": "Observation/fbdec8a9-af93-43b5-b501-115cfbc4d65d"
      }, {
        "reference": "Observation/b1a15ff1-ca9f-4010-b770-33c1f1088999"
      }, {
        "reference": "Observation/c2172094-2644-4420-bf4b-d5d89ea6a867"
      }, {
        "reference": "Observation/66c3cb87-d7dd-468d-bd9a-728b198f119b"
      }, {
        "reference": "Encounter/b7576091-11c4-4211-a43e-b34afdd04a1e"
      }, {
        "reference": "Procedure/e113e3a6-8a41-4cc4-b298-ec0efe98d2cc"
      }, {
        "reference": "Condition/c6fd43cf-337d-4d9b-9e55-51e9e647d34b"
      }, {
        "reference": "Coverage/e8e80b8f-e523-4473-86de-3a081355595f"
      }, {
        "reference": "Organization/97935030-8162-43f8-a0d7-ca47169584ba"
      }, {
        "reference": "Practitioner/2ea574d4-6bfd-4183-98a7-cfd75c5cbbc5"
      } ]
    },
    "request": {
      "method": "PUT",
      "url": "MeasureReport/4be10203-dce9-4455-b952-86af40a2de42"
    }
  } ]
}