{
  "resourceType": "Bundle",
  "id": "tests-NUMERFail-LabTest2Equals81Exactly5MinBasedOnRelDateTime-bundle",
  "type": "transaction",
  "entry": [ {
    "fullUrl": "https://madie.cms.gov/Encounter/69ac1f36-7ba3-46d0-b073-dffe77a66f20",
    "resource": {
      "resourceType": "Encounter",
      "id": "69ac1f36-7ba3-46d0-b073-dffe77a66f20",
      "meta": {
        "profile": [ "http://hl7.org/fhir/us/qicore/StructureDefinition/qicore-encounter" ]
      },
      "status": "finished",
      "class": {
        "system": "http://terminology.hl7.org/CodeSystem/v3-ActCode",
        "code": "IMP",
        "display": "Inpatient encounter"
      },
      "type": [ {
        "coding": [ {
          "system": "http://snomed.info/sct",
          "code": "183452005",
          "display": "Inpatient encounter"
        } ]
      } ],
      "period": {
        "start": "2026-07-11T08:00:00.000+00:00",
        "end": "2026-07-16T21:00:00.000+00:00"
      }
    },
    "request": {
      "method": "PUT",
      "url": "Encounter/69ac1f36-7ba3-46d0-b073-dffe77a66f20"
    }
  }, {
    "fullUrl": "https://madie.cms.gov/MedicationAdministration/25ab5a6d-103e-4302-b940-b96cf036a3cf",
    "resource": {
      "resourceType": "MedicationAdministration",
      "id": "25ab5a6d-103e-4302-b940-b96cf036a3cf",
      "meta": {
        "profile": [ "http://hl7.org/fhir/us/qicore/StructureDefinition/qicore-medicationadministration" ]
      },
      "status": "completed",
      "medicationCodeableConcept": {
        "coding": [ {
          "system": "http://www.nlm.nih.gov/research/umls/rxnorm",
          "code": "1653202",
          "display": "Hypoglycemics Severe Hypoglycemia"
        } ]
      },
      "subject": {
        "reference": "Patient/6bc18290-1925-4239-81d7-0118bd062225"
      },
      "effectivePeriod": {
        "start": "2026-07-11T08:00:00.000+00:00",
        "end": "2026-07-11T09:00:00.000+00:00"
      }
    },
    "request": {
      "method": "PUT",
      "url": "MedicationAdministration/25ab5a6d-103e-4302-b940-b96cf036a3cf"
    }
  }, {
    "fullUrl": "https://madie.cms.gov/Observation/ee6d5a6f-8a11-494d-939b-ccb827253009",
    "resource": {
      "resourceType": "Observation",
      "id": "ee6d5a6f-8a11-494d-939b-ccb827253009",
      "meta": {
        "profile": [ "http://hl7.org/fhir/us/qicore/StructureDefinition/qicore-observation-lab" ]
      },
      "status": "final",
      "code": {
        "coding": [ {
          "system": "http://loinc.org",
          "code": "1556-0",
          "display": "Glucose Lab Test Mass Per Volume"
        } ]
      },
      "subject": {
        "reference": "Patient/6bc18290-1925-4239-81d7-0118bd062225"
      },
      "effectivePeriod": {
        "start": "2026-07-11T08:00:00.000+00:00",
        "end": "2026-07-11T08:00:00.000+00:00"
      },
      "issued": "2026-07-11T08:00:00.000+00:00",
      "valueQuantity": {
        "value": 35,
        "unit": "mg/dL"
      }
    },
    "request": {
      "method": "PUT",
      "url": "Observation/ee6d5a6f-8a11-494d-939b-ccb827253009"
    }
  }, {
    "fullUrl": "https://madie.cms.gov/Observation/9000dfe2-cf65-45f3-be93-4e5fa9ff07d1",
    "resource": {
      "resourceType": "Observation",
      "id": "9000dfe2-cf65-45f3-be93-4e5fa9ff07d1",
      "meta": {
        "profile": [ "http://hl7.org/fhir/us/qicore/StructureDefinition/qicore-observation-lab" ]
      },
      "status": "final",
      "code": {
        "coding": [ {
          "system": "http://loinc.org",
          "code": "1556-0",
          "display": "Glucose Lab Test Mass Per Volume"
        } ]
      },
      "subject": {
        "reference": "Patient/6bc18290-1925-4239-81d7-0118bd062225"
      },
      "effectivePeriod": {
        "start": "2026-07-11T08:05:00.000+00:00",
        "end": "2026-07-11T08:05:00.000+00:00"
      },
      "issued": "2026-07-11T08:05:00.000+00:00",
      "valueQuantity": {
        "value": 81,
        "unit": "mg/dL"
      }
    },
    "request": {
      "method": "PUT",
      "url": "Observation/9000dfe2-cf65-45f3-be93-4e5fa9ff07d1"
    }
  }, {
    "fullUrl": "https://madie.cms.gov/Patient/6bc18290-1925-4239-81d7-0118bd062225",
    "resource": {
      "resourceType": "Patient",
      "id": "6bc18290-1925-4239-81d7-0118bd062225",
      "meta": {
        "profile": [ "http://hl7.org/fhir/us/qicore/StructureDefinition/qicore-patient" ]
      },
      "extension": [ {
        "url": "http://hl7.org/fhir/us/core/StructureDefinition/us-core-race",
        "extension": [ {
          "url": "ombCategory",
          "valueCoding": {
            "system": "urn:oid:2.16.840.1.113883.6.238",
            "code": "2106-3",
            "display": "White"
          }
        }, {
          "url": "text",
          "valueString": "White"
        } ]
      }, {
        "url": "http://hl7.org/fhir/us/core/StructureDefinition/us-core-ethnicity",
        "extension": [ {
          "url": "ombCategory",
          "valueCoding": {
            "system": "urn:oid:2.16.840.1.113883.6.238",
            "code": "2135-2",
            "display": "Hispanic or Latino"
          }
        }, {
          "url": "text",
          "valueString": "Hispanic or Latino"
        } ]
      }, {
        "url": "http://hl7.org/fhir/us/core/StructureDefinition/us-core-sex",
        "valueCode": "248153007"
      } ],
      "identifier": [ {
        "system": "http://hospital.smarthealthit.org",
        "value": "999999999"
      } ],
      "name": [ {
        "family": "Example",
        "given": [ "Patient" ]
      } ],
      "gender": "female",
      "birthDate": "2000-07-11"
    },
    "request": {
      "method": "PUT",
      "url": "Patient/6bc18290-1925-4239-81d7-0118bd062225"
    }
  }, {
    "fullUrl": "https://madie.cms.gov/MeasureReport/1e896d30-3808-482a-b8a3-51198a58d4a6",
    "resource": {
      "resourceType": "MeasureReport",
      "id": "1e896d30-3808-482a-b8a3-51198a58d4a6",
      "meta": {
        "profile": [ "http://hl7.org/fhir/us/cqfmeasures/StructureDefinition/test-case-cqfm" ]
      },
      "contained": [ {
        "resourceType": "Parameters",
        "id": "d7f821aa-aa4a-4d67-9345-81d53814cada-parameters",
        "parameter": [ {
          "name": "subject",
          "valueString": "6bc18290-1925-4239-81d7-0118bd062225"
        } ]
      } ],
      "extension": [ {
        "url": "http://hl7.org/fhir/StructureDefinition/cqf-inputParameters",
        "valueReference": {
          "reference": "#d7f821aa-aa4a-4d67-9345-81d53814cada-parameters"
        }
      }, {
        "url": "http://hl7.org/fhir/us/cqfmeasures/StructureDefinition/cqfm-testCaseDescription",
        "valueMarkdown": "Encounter, meds administered, lab test 1 = 35, lab 2  exactly 5 minutes after with result = 81 so does not meet Numerator. Timing is based on rel datetime of first test to second test."
      } ],
      "modifierExtension": [ {
        "url": "http://hl7.org/fhir/us/cqfmeasures/StructureDefinition/cqfm-isTestCase",
        "valueBoolean": true
      } ],
      "status": "complete",
      "type": "individual",
      "measure": "https://madie.cms.gov/Measure/CMS816FHIRHHHypo",
      "period": {
        "start": "2026-01-01",
        "end": "2026-12-31"
      },
      "group": [ {
        "id": "Group_1",
        "population": [ {
          "id": "InitialPopulation_1",
          "code": {
            "coding": [ {
              "system": "http://terminology.hl7.org/CodeSystem/measure-population",
              "code": "initial-population",
              "display": "Initial Population"
            } ]
          },
          "count": 1
        }, {
          "id": "Denominator_1",
          "code": {
            "coding": [ {
              "system": "http://terminology.hl7.org/CodeSystem/measure-population",
              "code": "denominator",
              "display": "Denominator"
            } ]
          },
          "count": 1
        }, {
          "id": "Numerator_1",
          "code": {
            "coding": [ {
              "system": "http://terminology.hl7.org/CodeSystem/measure-population",
              "code": "numerator",
              "display": "Numerator"
            } ]
          },
          "count": 0
        } ],
        "measureScore": {
          "value": 0.0
        }
      } ],
      "evaluatedResource": [ {
        "reference": "Encounter/69ac1f36-7ba3-46d0-b073-dffe77a66f20"
      }, {
        "reference": "MedicationAdministration/25ab5a6d-103e-4302-b940-b96cf036a3cf"
      }, {
        "reference": "Observation/ee6d5a6f-8a11-494d-939b-ccb827253009"
      }, {
        "reference": "Observation/9000dfe2-cf65-45f3-be93-4e5fa9ff07d1"
      }, {
        "reference": "Patient/6bc18290-1925-4239-81d7-0118bd062225"
      } ]
    },
    "request": {
      "method": "PUT",
      "url": "MeasureReport/1e896d30-3808-482a-b8a3-51198a58d4a6"
    }
  } ]
}