{
  "resourceType": "Bundle",
  "id": "657cbdc9b4f1f0343662347a",
  "type": "transaction",
  "entry": [ {
    "fullUrl": "https://madie.cms.gov/Patient/62f50a3d-3fd0-4e3c-a163-3bc6f35ce8da",
    "resource": {
      "resourceType": "Patient",
      "id": "62f50a3d-3fd0-4e3c-a163-3bc6f35ce8da",
      "meta": {
        "profile": [ "http://hl7.org/fhir/us/qicore/StructureDefinition/qicore-patient" ]
      },
      "extension": [ {
        "url": "http://hl7.org/fhir/us/core/StructureDefinition/us-core-race",
        "extension": [ {
          "url": "ombCategory",
          "valueCoding": {
            "system": "urn:oid:2.16.840.1.113883.6.238",
            "code": "2106-3",
            "display": "White",
            "userSelected": true
          }
        }, {
          "url": "text",
          "valueString": "White"
        } ]
      }, {
        "url": "http://hl7.org/fhir/us/core/StructureDefinition/us-core-ethnicity",
        "extension": [ {
          "url": "ombCategory",
          "valueCoding": {
            "system": "urn:oid:2.16.840.1.113883.6.238",
            "code": "2186-5",
            "display": "Not Hispanic or Latino",
            "userSelected": true
          }
        }, {
          "url": "text",
          "valueString": "Not Hispanic or Latino"
        } ]
      } ],
      "identifier": [ {
        "type": {
          "coding": [ {
            "system": "http://terminology.hl7.org/CodeSystem/v2-0203",
            "code": "MR"
          } ]
        },
        "system": "https://bonnie-fhir.healthit.gov/",
        "value": "657cbdc9b4f1f0343662347a"
      } ],
      "name": [ {
        "family": "IPOPPass",
        "given": [ "InptEncClassInpatientEncounter" ]
      } ],
      "gender": "female",
      "birthDate": "2008-01-01"
    },
    "request": {
      "method": "PUT",
      "url": "Patient/62f50a3d-3fd0-4e3c-a163-3bc6f35ce8da"
    }
  }, {
    "fullUrl": "https://madie.cms.gov/Encounter/66c8698f-f236-4e1f-82ad-d21f5c61afc2",
    "resource": {
      "resourceType": "Encounter",
      "id": "66c8698f-f236-4e1f-82ad-d21f5c61afc2",
      "meta": {
        "profile": [ "http://hl7.org/fhir/us/qicore/StructureDefinition/qicore-encounter" ]
      },
      "status": "entered-in-error",
      "class": {
        "system": "http://terminology.hl7.org/CodeSystem/v3-ActCode",
        "code": "IMP",
        "display": "inpatient encounter"
      },
      "type": [ {
        "coding": [ {
          "system": "http://snomed.info/sct",
          "version": "2024",
          "code": "32485007",
          "display": "Hospital admission (procedure)",
          "userSelected": true
        } ]
      } ],
      "subject": {
        "reference": "Patient/62f50a3d-3fd0-4e3c-a163-3bc6f35ce8da"
      },
      "period": {
        "start": "2026-01-01T08:00:00.000Z",
        "end": "2026-01-02T09:15:00.000Z"
      },
      "location": [ {
        "location": {
          "reference": "Location/a56033fd-12eb-4a67-99bd-122dd49a0b6b"
        },
        "period": {
          "start": "2026-01-01T00:00:00.000Z",
          "end": "2026-01-01T10:01:00.000Z"
        }
      } ]
    },
    "request": {
      "method": "PUT",
      "url": "Encounter/66c8698f-f236-4e1f-82ad-d21f5c61afc2"
    }
  }, {
    "fullUrl": "https://madie.cms.gov/Location/a56033fd-12eb-4a67-99bd-122dd49a0b6b",
    "resource": {
      "resourceType": "Location",
      "id": "a56033fd-12eb-4a67-99bd-122dd49a0b6b",
      "meta": {
        "profile": [ "http://hl7.org/fhir/us/qicore/StructureDefinition/qicore-location" ]
      },
      "identifier": [ {
        "use": "usual",
        "system": "http://exampleoflocation.com",
        "value": "B1-S.F2"
      } ],
      "name": "Medical Surgical East, first floor",
      "type": [ {
        "coding": [ {
          "system": "https://www.cdc.gov/nhsn/cdaportal/terminology/codesystem/hsloc.html",
          "code": "1025-6",
          "display": "Trauma Critical Care",
          "userSelected": true
        } ]
      } ]
    },
    "request": {
      "method": "PUT",
      "url": "Location/a56033fd-12eb-4a67-99bd-122dd49a0b6b"
    }
  }, {
    "fullUrl": "https://madie.cms.gov/MedicationAdministration/8b937401-7c2b-41b4-b249-66ef373993f9",
    "resource": {
      "resourceType": "MedicationAdministration",
      "id": "8b937401-7c2b-41b4-b249-66ef373993f9",
      "meta": {
        "profile": [ "http://hl7.org/fhir/us/qicore/StructureDefinition/qicore-medicationadministration" ]
      },
      "status": "completed",
      "medicationCodeableConcept": {
        "coding": [ {
          "system": "http://www.nlm.nih.gov/research/umls/rxnorm",
          "code": "1007184",
          "display": "insulin aspart protamine, human / insulin aspart, human"
        } ]
      },
      "subject": {
        "reference": "Patient/62f50a3d-3fd0-4e3c-a163-3bc6f35ce8da"
      },
      "effectivePeriod": {
        "start": "2026-01-01T08:00:00.000Z",
        "end": "2026-01-01T08:15:00.000Z"
      }
    },
    "request": {
      "method": "PUT",
      "url": "MedicationAdministration/8b937401-7c2b-41b4-b249-66ef373993f9"
    }
  }, {
    "fullUrl": "https://madie.cms.gov/Coverage/e53077a1-30bb-4a9d-8714-92a9c7d9b296",
    "resource": {
      "resourceType": "Coverage",
      "id": "e53077a1-30bb-4a9d-8714-92a9c7d9b296",
      "meta": {
        "profile": [ "http://hl7.org/fhir/us/qicore/StructureDefinition/qicore-coverage" ]
      },
      "identifier": [ {
        "system": "http://benefitsinc.com/certificate",
        "value": "12345"
      } ],
      "status": "active",
      "type": {
        "coding": [ {
          "system": "https://nahdo.org/sopt",
          "version": "1.0.1",
          "code": "1",
          "display": "MEDICARE",
          "userSelected": true
        } ]
      },
      "subscriberId": "AB9876",
      "beneficiary": {
        "reference": "Patient/62f50a3d-3fd0-4e3c-a163-3bc6f35ce8da"
      },
      "relationship": {
        "coding": [ {
          "system": "http://terminology.hl7.org/CodeSystem/subscriber-relationship",
          "code": "self"
        } ]
      },
      "payor": [ {
        "reference": "Organization/f1caedb8-ab1a-46d2-b285-98a9f7b6ecc0"
      } ]
    },
    "request": {
      "method": "PUT",
      "url": "Coverage/e53077a1-30bb-4a9d-8714-92a9c7d9b296"
    }
  }, {
    "fullUrl": "https://madie.cms.gov/Organization/f1caedb8-ab1a-46d2-b285-98a9f7b6ecc0",
    "resource": {
      "resourceType": "Organization",
      "id": "f1caedb8-ab1a-46d2-b285-98a9f7b6ecc0",
      "meta": {
        "profile": [ "http://hl7.org/fhir/us/qicore/StructureDefinition/qicore-organization" ]
      },
      "identifier": [ {
        "use": "temp",
        "system": "urn:oid:2.16.840.1.113883.4.4",
        "value": "21-3259825"
      } ],
      "active": true,
      "type": [ {
        "coding": [ {
          "system": "http://terminology.hl7.org/CodeSystem/organization-type",
          "code": "pay",
          "display": "Payer"
        } ]
      } ],
      "name": "Blue Cross Blue Shield of Texas",
      "telecom": [ {
        "system": "phone",
        "value": "(+1) 972-766-6900"
      } ],
      "address": [ {
        "use": "billing",
        "type": "postal",
        "line": [ "P.O. Box 660044" ],
        "city": "Dallas",
        "state": "TX",
        "postalCode": "75266-0044",
        "country": "USA"
      } ]
    },
    "request": {
      "method": "PUT",
      "url": "Organization/f1caedb8-ab1a-46d2-b285-98a9f7b6ecc0"
    }
  }, {
    "fullUrl": "https://madie.cms.gov/Practitioner/fd77d65d-b15c-418d-be25-afdb8157b36c",
    "resource": {
      "resourceType": "Practitioner",
      "id": "fd77d65d-b15c-418d-be25-afdb8157b36c",
      "meta": {
        "profile": [ "http://hl7.org/fhir/us/qicore/StructureDefinition/qicore-practitioner" ]
      },
      "identifier": [ {
        "system": "http://hl7.org/fhir/sid/us-npi",
        "value": "0723660813"
      } ],
      "name": [ {
        "family": "Evil",
        "prefix": [ "Dr" ]
      } ]
    },
    "request": {
      "method": "PUT",
      "url": "Practitioner/fd77d65d-b15c-418d-be25-afdb8157b36c"
    }
  }, {
    "fullUrl": "https://madie.cms.gov/MeasureReport/15b70768-a4f9-409a-b2b4-2f4ff3773753",
    "resource": {
      "resourceType": "MeasureReport",
      "id": "15b70768-a4f9-409a-b2b4-2f4ff3773753",
      "meta": {
        "profile": [ "http://hl7.org/fhir/us/cqfmeasures/StructureDefinition/test-case-cqfm" ]
      },
      "contained": [ {
        "resourceType": "Parameters",
        "id": "4a2f29b7-eb4c-4e6a-9924-c3f82ce4580b-parameters",
        "parameter": [ {
          "name": "subject",
          "valueString": "62f50a3d-3fd0-4e3c-a163-3bc6f35ce8da"
        } ]
      } ],
      "extension": [ {
        "url": "http://hl7.org/fhir/StructureDefinition/cqf-inputParameters",
        "valueReference": {
          "reference": "#4a2f29b7-eb4c-4e6a-9924-c3f82ce4580b-parameters"
        }
      }, {
        "url": "http://hl7.org/fhir/us/cqfmeasures/StructureDefinition/cqfm-testCaseDescription",
        "valueMarkdown": "Inpatient encounter with diabetic medication administration - class inpatient encounter"
      } ],
      "modifierExtension": [ {
        "url": "http://hl7.org/fhir/us/cqfmeasures/StructureDefinition/cqfm-isTestCase",
        "valueBoolean": true
      } ],
      "status": "complete",
      "type": "individual",
      "measure": "https://madie.cms.gov/Measure/NHSNGlycemicControlHypoglycemiaInitialPopulation",
      "period": {
        "start": "2026-01-01",
        "end": "2026-12-31"
      },
      "group": [ {
        "id": "Group_1",
        "population": [ {
          "id": "InitialPopulation_1",
          "code": {
            "coding": [ {
              "system": "http://terminology.hl7.org/CodeSystem/measure-population",
              "code": "initial-population",
              "display": "Initial Population"
            } ]
          },
          "count": 1
        } ],
        "measureScore": {
          "value": 0.0
        }
      } ],
      "evaluatedResource": [ {
        "reference": "Patient/62f50a3d-3fd0-4e3c-a163-3bc6f35ce8da"
      }, {
        "reference": "Encounter/66c8698f-f236-4e1f-82ad-d21f5c61afc2"
      }, {
        "reference": "Location/a56033fd-12eb-4a67-99bd-122dd49a0b6b"
      }, {
        "reference": "MedicationAdministration/8b937401-7c2b-41b4-b249-66ef373993f9"
      }, {
        "reference": "Coverage/e53077a1-30bb-4a9d-8714-92a9c7d9b296"
      }, {
        "reference": "Organization/f1caedb8-ab1a-46d2-b285-98a9f7b6ecc0"
      }, {
        "reference": "Practitioner/fd77d65d-b15c-418d-be25-afdb8157b36c"
      } ]
    },
    "request": {
      "method": "PUT",
      "url": "MeasureReport/15b70768-a4f9-409a-b2b4-2f4ff3773753"
    }
  } ]
}