{
  "resourceType": "Bundle",
  "id": "NUMPass-AutonomousEyeExamJan1OfMP",
  "type": "transaction",
  "entry": [ {
    "fullUrl": "https://madie.cms.gov/Patient/0fa877b4-bbbe-4a5b-814d-57c1472b923b",
    "resource": {
      "resourceType": "Patient",
      "id": "0fa877b4-bbbe-4a5b-814d-57c1472b923b",
      "meta": {
        "profile": [ "http://hl7.org/fhir/us/qicore/StructureDefinition/qicore-patient" ]
      },
      "extension": [ {
        "url": "http://hl7.org/fhir/us/core/StructureDefinition/us-core-race",
        "extension": [ {
          "url": "ombCategory",
          "valueCoding": {
            "system": "urn:oid:2.16.840.1.113883.6.238",
            "code": "2028-9",
            "display": "Asian",
            "userSelected": true
          }
        }, {
          "url": "text",
          "valueString": "Asian"
        } ]
      }, {
        "url": "http://hl7.org/fhir/us/core/StructureDefinition/us-core-ethnicity",
        "extension": [ {
          "url": "ombCategory",
          "valueCoding": {
            "system": "urn:oid:2.16.840.1.113883.6.238",
            "code": "2135-2",
            "display": "Hispanic or Latino",
            "userSelected": true
          }
        }, {
          "url": "text",
          "valueString": "Hispanic or Latino"
        } ]
      } ],
      "identifier": [ {
        "type": {
          "coding": [ {
            "system": "http://terminology.hl7.org/CodeSystem/v2-0203",
            "code": "MR"
          } ]
        },
        "system": "http://hospital.smarthealthit.org",
        "value": "999999995"
      } ],
      "name": [ {
        "family": "Bertha",
        "given": [ "Betty" ]
      } ],
      "gender": "female",
      "birthDate": "2007-12-31"
    },
    "request": {
      "method": "PUT",
      "url": "Patient/0fa877b4-bbbe-4a5b-814d-57c1472b923b"
    }
  }, {
    "fullUrl": "https://madie.cms.gov/Encounter/79b87b16-4fe5-45ca-a42f-c46877c15c03",
    "resource": {
      "resourceType": "Encounter",
      "id": "79b87b16-4fe5-45ca-a42f-c46877c15c03",
      "meta": {
        "profile": [ "http://hl7.org/fhir/us/qicore/StructureDefinition/qicore-encounter" ]
      },
      "status": "finished",
      "class": {
        "system": "http://terminology.hl7.org/CodeSystem/v3-ActCode",
        "code": "AMB",
        "display": "ambulatory"
      },
      "type": [ {
        "coding": [ {
          "system": "http://snomed.info/sct",
          "code": "185463005",
          "display": "Visit out of hours (procedure)"
        } ]
      } ],
      "subject": {
        "reference": "Patient/0fa877b4-bbbe-4a5b-814d-57c1472b923b"
      },
      "period": {
        "start": "2026-01-01T00:00:00.000+00:00",
        "end": "2026-01-01T00:00:00.000+00:00"
      }
    },
    "request": {
      "method": "PUT",
      "url": "Encounter/79b87b16-4fe5-45ca-a42f-c46877c15c03"
    }
  }, {
    "fullUrl": "https://madie.cms.gov/Condition/ac7709fd-e55e-4e56-993f-b6c7421fb3b4",
    "resource": {
      "resourceType": "Condition",
      "id": "ac7709fd-e55e-4e56-993f-b6c7421fb3b4",
      "meta": {
        "profile": [ "http://hl7.org/fhir/us/qicore/StructureDefinition/qicore-condition-encounter-diagnosis" ]
      },
      "clinicalStatus": {
        "coding": [ {
          "system": "http://terminology.hl7.org/CodeSystem/condition-clinical",
          "code": "active"
        } ]
      },
      "category": [ {
        "coding": [ {
          "system": "http://terminology.hl7.org/CodeSystem/condition-category",
          "code": "encounter-diagnosis",
          "display": "Encounter Diagnosis"
        } ]
      } ],
      "code": {
        "coding": [ {
          "system": "http://snomed.info/sct",
          "code": "102781000119107",
          "display": "Sensory neuropathy due to type 1 diabetes mellitus (disorder)"
        } ]
      },
      "subject": {
        "reference": "Patient/0fa877b4-bbbe-4a5b-814d-57c1472b923b"
      },
      "onsetDateTime": "2026-01-01T00:00:00.000+00:00"
    },
    "request": {
      "method": "PUT",
      "url": "Condition/ac7709fd-e55e-4e56-993f-b6c7421fb3b4"
    }
  }, {
    "fullUrl": "https://madie.cms.gov/Observation/0ae5cae7-029e-4009-8363-7bda2cd04892",
    "resource": {
      "resourceType": "Observation",
      "id": "0ae5cae7-029e-4009-8363-7bda2cd04892",
      "meta": {
        "profile": [ "http://hl7.org/fhir/us/qicore/StructureDefinition/qicore-observation-clinical-result" ]
      },
      "status": "final",
      "category": [ {
        "coding": [ {
          "system": "http://terminology.hl7.org/CodeSystem/observation-category",
          "code": "exam"
        } ]
      } ],
      "code": {
        "coding": [ {
          "system": "http://loinc.org",
          "code": "71490-7",
          "display": "Left eye Diabetic retinopathy severity level by Ophthalmoscopy"
        } ]
      },
      "subject": {
        "reference": "Patient/0fa877b4-bbbe-4a5b-814d-57c1472b923b"
      },
      "effectivePeriod": {
        "start": "2026-01-01T00:00:00.000+00:00",
        "end": "2026-01-01T00:00:00.000+00:00"
      },
      "valueCodeableConcept": {
        "coding": [ {
          "system": "http://loinc.org",
          "code": "LA18645-4",
          "display": "Moderate non-proliferative retinopathy"
        } ]
      }
    },
    "request": {
      "method": "PUT",
      "url": "Observation/0ae5cae7-029e-4009-8363-7bda2cd04892"
    }
  }, {
    "fullUrl": "https://madie.cms.gov/Observation/eddaab80-9bb5-4d09-a06d-9f6ee34ed073",
    "resource": {
      "resourceType": "Observation",
      "id": "eddaab80-9bb5-4d09-a06d-9f6ee34ed073",
      "meta": {
        "profile": [ "http://hl7.org/fhir/us/qicore/StructureDefinition/qicore-observation-clinical-result" ]
      },
      "status": "final",
      "category": [ {
        "coding": [ {
          "system": "http://terminology.hl7.org/CodeSystem/observation-category",
          "code": "exam"
        } ]
      } ],
      "code": {
        "coding": [ {
          "system": "http://loinc.org",
          "code": "71491-5",
          "display": "Right eye Diabetic retinopathy severity level by Ophthalmoscopy"
        } ]
      },
      "subject": {
        "reference": "Patient/0fa877b4-bbbe-4a5b-814d-57c1472b923b"
      },
      "effectivePeriod": {
        "start": "2025-01-01T00:00:00.000+00:00",
        "end": "2025-01-01T00:00:00.000+00:00"
      },
      "valueCodeableConcept": {
        "coding": [ {
          "system": "http://loinc.org",
          "code": "LA18643-9",
          "display": "No apparent retinopathy"
        } ]
      }
    },
    "request": {
      "method": "PUT",
      "url": "Observation/eddaab80-9bb5-4d09-a06d-9f6ee34ed073"
    }
  }, {
    "fullUrl": "https://madie.cms.gov/MeasureReport/fd6f4722-a10b-41e6-a393-e8be4d496592",
    "resource": {
      "resourceType": "MeasureReport",
      "id": "fd6f4722-a10b-41e6-a393-e8be4d496592",
      "meta": {
        "profile": [ "http://hl7.org/fhir/us/cqfmeasures/StructureDefinition/test-case-cqfm" ]
      },
      "contained": [ {
        "resourceType": "Parameters",
        "id": "d42d41df-837f-4119-bb78-3e4183f6f6fa-parameters",
        "parameter": [ {
          "name": "subject",
          "valueString": "0fa877b4-bbbe-4a5b-814d-57c1472b923b"
        } ]
      } ],
      "extension": [ {
        "url": "http://hl7.org/fhir/StructureDefinition/cqf-inputParameters",
        "valueReference": {
          "reference": "#d42d41df-837f-4119-bb78-3e4183f6f6fa-parameters"
        }
      }, {
        "url": "http://hl7.org/fhir/us/cqfmeasures/StructureDefinition/cqfm-testCaseDescription",
        "valueMarkdown": "Retinal exam finding of retinopathy in left eye on 1/1 of MP"
      } ],
      "modifierExtension": [ {
        "url": "http://hl7.org/fhir/us/cqfmeasures/StructureDefinition/cqfm-isTestCase",
        "valueBoolean": true
      } ],
      "status": "complete",
      "type": "individual",
      "measure": "https://madie.cms.gov/Measure/CMS131FHIRDiabetesEyeExam",
      "period": {
        "start": "2026-01-01",
        "end": "2026-12-31"
      },
      "group": [ {
        "id": "Group_1",
        "population": [ {
          "id": "InitialPopulation_1",
          "code": {
            "coding": [ {
              "system": "http://terminology.hl7.org/CodeSystem/measure-population",
              "code": "initial-population",
              "display": "Initial Population"
            } ]
          },
          "count": 1
        }, {
          "id": "Denominator_1",
          "code": {
            "coding": [ {
              "system": "http://terminology.hl7.org/CodeSystem/measure-population",
              "code": "denominator",
              "display": "Denominator"
            } ]
          },
          "count": 1
        }, {
          "id": "DenominatorExclusion_1",
          "code": {
            "coding": [ {
              "system": "http://terminology.hl7.org/CodeSystem/measure-population",
              "code": "denominator-exclusion",
              "display": "Denominator Exclusion"
            } ]
          },
          "count": 0
        }, {
          "id": "Numerator_1",
          "code": {
            "coding": [ {
              "system": "http://terminology.hl7.org/CodeSystem/measure-population",
              "code": "numerator",
              "display": "Numerator"
            } ]
          },
          "count": 1
        } ],
        "measureScore": {
          "value": 1.0
        }
      } ],
      "evaluatedResource": [ {
        "reference": "Patient/0fa877b4-bbbe-4a5b-814d-57c1472b923b"
      }, {
        "reference": "Encounter/79b87b16-4fe5-45ca-a42f-c46877c15c03"
      }, {
        "reference": "Condition/ac7709fd-e55e-4e56-993f-b6c7421fb3b4"
      }, {
        "reference": "Observation/0ae5cae7-029e-4009-8363-7bda2cd04892"
      }, {
        "reference": "Observation/eddaab80-9bb5-4d09-a06d-9f6ee34ed073"
      } ]
    },
    "request": {
      "method": "PUT",
      "url": "MeasureReport/fd6f4722-a10b-41e6-a393-e8be4d496592"
    }
  } ]
}