{
  "resourceType": "Bundle",
  "id": "60f82c2d98086b570510e24c",
  "type": "transaction",
  "entry": [ {
    "fullUrl": "https://madie.cms.gov/Patient/0eecd949-77bf-4ded-bb95-40e11c2116c7",
    "resource": {
      "resourceType": "Patient",
      "id": "0eecd949-77bf-4ded-bb95-40e11c2116c7",
      "meta": {
        "profile": [ "http://hl7.org/fhir/us/qicore/StructureDefinition/qicore-patient" ]
      },
      "text": {
        "status": "generated",
        "div": "<div xmlns=\"http://www.w3.org/1999/xhtml\"><div class=\"hapiHeaderText\">Age=18onDayOfAdmission <b>IPPPASS </b></div><table class=\"hapiPropertyTable\"><tbody><tr><td>Identifier</td><td>a8dee96dd5484d5021ff771f00e38f96</td></tr><tr><td>Date of birth</td><td><span>21 August 1994</span></td></tr></tbody></table></div>"
      },
      "extension": [ {
        "url": "http://hl7.org/fhir/us/core/StructureDefinition/us-core-race",
        "extension": [ {
          "url": "ombCategory",
          "valueCoding": {
            "system": "urn:oid:2.16.840.1.113883.6.238",
            "code": "1002-5",
            "display": "American Indian or Alaska Native",
            "userSelected": true
          }
        }, {
          "url": "text",
          "valueString": "American Indian or Alaska Native"
        } ]
      }, {
        "url": "http://hl7.org/fhir/us/core/StructureDefinition/us-core-ethnicity",
        "extension": [ {
          "url": "ombCategory",
          "valueCoding": {
            "system": "urn:oid:2.16.840.1.113883.6.238",
            "code": "2186-5",
            "display": "Not Hispanic or Latino",
            "userSelected": true
          }
        }, {
          "url": "text",
          "valueString": "Not Hispanic or Latino"
        } ]
      } ],
      "identifier": [ {
        "type": {
          "coding": [ {
            "system": "http://terminology.hl7.org/CodeSystem/v2-0203",
            "code": "MR"
          } ]
        },
        "system": "https://bonnie-fhir.healthit.gov/",
        "value": "60f82c2d98086b570510e24c"
      } ],
      "active": true,
      "name": [ {
        "use": "usual",
        "family": "IPPPass",
        "given": [ "Age18onDayOfAdmission" ]
      } ],
      "gender": "male",
      "birthDate": "1995-08-21"
    },
    "request": {
      "method": "PUT",
      "url": "Patient/0eecd949-77bf-4ded-bb95-40e11c2116c7"
    }
  }, {
    "fullUrl": "https://madie.cms.gov/Encounter/407f8c7c-54a3-4a36-9979-1f77c3200245",
    "resource": {
      "resourceType": "Encounter",
      "id": "407f8c7c-54a3-4a36-9979-1f77c3200245",
      "meta": {
        "profile": [ "http://hl7.org/fhir/us/qicore/StructureDefinition/qicore-encounter" ]
      },
      "status": "finished",
      "class": {
        "system": "http://terminology.hl7.org/CodeSystem/v3-ActCode",
        "code": "IMP",
        "display": "inpatient encounter"
      },
      "type": [ {
        "coding": [ {
          "system": "http://snomed.info/sct",
          "code": "32485007"
        } ]
      } ],
      "subject": {
        "reference": "Patient/0eecd949-77bf-4ded-bb95-40e11c2116c7"
      },
      "period": {
        "start": "2026-08-21T00:00:00.000+00:00",
        "end": "2026-12-19T08:15:00.000+00:00"
      },
      "length": {
        "value": 120,
        "unit": "days"
      },
      "reasonReference": [ {
        "reference": "Condition/a7fcb838-b232-4d9c-9c43-dc31df9e5b4f"
      } ]
    },
    "request": {
      "method": "PUT",
      "url": "Encounter/407f8c7c-54a3-4a36-9979-1f77c3200245"
    }
  }, {
    "fullUrl": "https://madie.cms.gov/Coverage/1fd80646-101c-459a-af5c-5fbc01a437b5",
    "resource": {
      "resourceType": "Coverage",
      "id": "1fd80646-101c-459a-af5c-5fbc01a437b5",
      "status": "active",
      "beneficiary": {
        "reference": "Patient/0eecd949-77bf-4ded-bb95-40e11c2116c7"
      },
      "period": {
        "start": "1995-08-21T07:00:00.000+00:00"
      },
      "payor": [ {
        "reference": "Organization/6bab0ca4-d604-4bfb-b5e5-89df266ad250"
      } ]
    },
    "request": {
      "method": "PUT",
      "url": "Coverage/1fd80646-101c-459a-af5c-5fbc01a437b5"
    }
  }, {
    "fullUrl": "https://madie.cms.gov/Condition/a7fcb838-b232-4d9c-9c43-dc31df9e5b4f",
    "resource": {
      "resourceType": "Condition",
      "id": "a7fcb838-b232-4d9c-9c43-dc31df9e5b4f",
      "meta": {
        "profile": [ "http://hl7.org/fhir/us/qicore/StructureDefinition/qicore-condition-encounter-diagnosis" ]
      },
      "clinicalStatus": {
        "coding": [ {
          "system": "http://terminology.hl7.org/CodeSystem/condition-clinical",
          "code": "active"
        } ]
      },
      "verificationStatus": {
        "coding": [ {
          "system": "http://terminology.hl7.org/CodeSystem/condition-ver-status",
          "code": "confirmed"
        } ]
      },
      "category": [ {
        "coding": [ {
          "system": "http://terminology.hl7.org/CodeSystem/condition-category",
          "code": "encounter-diagnosis",
          "display": "Encounter Diagnosis"
        } ]
      } ],
      "code": {
        "coding": [ {
          "system": "http://snomed.info/sct",
          "version": "2020-09",
          "code": "111297002",
          "display": "Nonparalytic stroke (disorder)",
          "userSelected": true
        } ]
      },
      "subject": {
        "reference": "Patient/0eecd949-77bf-4ded-bb95-40e11c2116c7"
      },
      "encounter": {
        "reference": "Encounter/407f8c7c-54a3-4a36-9979-1f77c3200245"
      },
      "recordedDate": "2026-08-16T08:00:00.000+00:00"
    },
    "request": {
      "method": "PUT",
      "url": "Condition/a7fcb838-b232-4d9c-9c43-dc31df9e5b4f"
    }
  }, {
    "fullUrl": "https://madie.cms.gov/claim/5ca62962b8484628b8de1ec5",
    "resource": {
      "resourceType": "Claim",
      "id": "5ca62962b8484628b8de1ec5",
      "meta": {
        "profile": [ "http://hl7.org/fhir/us/qicore/StructureDefinition/qicore-claim" ]
      },
      "status": "active",
      "type": {
        "coding": [ {
          "system": "http://terminology.hl7.org/CodeSystem/claim-type",
          "code": "institutional"
        } ]
      },
      "use": "claim",
      "patient": {
        "reference": "Patient/d170a0a8-b5ad-4303-b6df-e304dd5f92ad"
      },
      "created": "2026-12-01",
      "provider": {
        "reference": "Practitioner/7002fbfd-8e34-45a4-989d-dc03b07390d1"
      },
      "priority": {
        "coding": [ {
          "system": "http://terminology.hl7.org/CodeSystem/processpriority",
          "code": "normal"
        } ]
      },
      "diagnosis": [ {
        "sequence": 1,
        "diagnosisCodeableConcept": {
          "coding": [ {
            "system": "http://hl7.org/fhir/sid/icd-10-cm",
            "code": "I63.00"
          } ]
        },
        "type": [ {
          "coding": [ {
            "system": "http://terminology.hl7.org/CodeSystem/ex-diagnosistype",
            "code": "principal"
          } ]
        } ]
      } ],
      "insurance": [ {
        "sequence": 1,
        "focal": true,
        "coverage": {
          "reference": "Coverage/5fa041661c76ba66d9959367"
        }
      } ],
      "item": [ {
        "sequence": 1,
        "diagnosisSequence": [ 1 ],
        "productOrService": {
          "coding": [ {
            "system": "http://terminology.hl7.org/CodeSystem/ex-USCLS",
            "code": "99555"
          } ]
        },
        "encounter": [ {
          "reference": "Encounter/407f8c7c-54a3-4a36-9979-1f77c3200245"
        } ]
      } ]
    },
    "request": {
      "method": "PUT",
      "url": "Claim/5ca62962b8484628b8de1ec5"
    }
  }, {
    "fullUrl": "https://madie.cms.gov/Organization/6bab0ca4-d604-4bfb-b5e5-89df266ad250",
    "resource": {
      "resourceType": "Organization",
      "id": "6bab0ca4-d604-4bfb-b5e5-89df266ad250",
      "meta": {
        "profile": [ "http://hl7.org/fhir/us/qicore/StructureDefinition/qicore-organization" ]
      },
      "identifier": [ {
        "use": "temp",
        "system": "urn:oid:2.16.840.1.113883.4.4",
        "value": "21-3259825"
      } ],
      "active": true,
      "type": [ {
        "coding": [ {
          "system": "http://terminology.hl7.org/CodeSystem/organization-type",
          "code": "pay",
          "display": "Payer"
        } ]
      } ],
      "name": "Blue Cross Blue Shield of Texas",
      "telecom": [ {
        "system": "phone",
        "value": "(+1) 972-766-6900"
      } ],
      "address": [ {
        "use": "billing",
        "type": "postal",
        "line": [ "P.O. Box 660044" ],
        "city": "Dallas",
        "state": "TX",
        "postalCode": "75266-0044",
        "country": "USA"
      } ]
    },
    "request": {
      "method": "PUT",
      "url": "Organization/6bab0ca4-d604-4bfb-b5e5-89df266ad250"
    }
  }, {
    "fullUrl": "https://madie.cms.gov/Practitioner/7002fbfd-8e34-45a4-989d-dc03b07390d1",
    "resource": {
      "resourceType": "Practitioner",
      "id": "7002fbfd-8e34-45a4-989d-dc03b07390d1",
      "identifier": [ {
        "system": "http://hl7.org/fhir/sid/us-npi",
        "value": "123456"
      } ],
      "name": [ {
        "family": "Evil",
        "prefix": [ "Dr" ]
      } ]
    },
    "request": {
      "method": "PUT",
      "url": "Practitioner/7002fbfd-8e34-45a4-989d-dc03b07390d1"
    }
  }, {
    "fullUrl": "https://madie.cms.gov/MeasureReport/ba8d59fb-db90-4270-9b00-4c4c7ddc76e9",
    "resource": {
      "resourceType": "MeasureReport",
      "id": "ba8d59fb-db90-4270-9b00-4c4c7ddc76e9",
      "meta": {
        "profile": [ "http://hl7.org/fhir/us/cqfmeasures/StructureDefinition/test-case-cqfm" ]
      },
      "contained": [ {
        "resourceType": "Parameters",
        "id": "a06953b6-b1a9-44d4-b449-320fedf431f7-parameters",
        "parameter": [ {
          "name": "subject",
          "valueString": "0eecd949-77bf-4ded-bb95-40e11c2116c7"
        } ]
      } ],
      "extension": [ {
        "url": "http://hl7.org/fhir/StructureDefinition/cqf-inputParameters",
        "valueReference": {
          "reference": "#a06953b6-b1a9-44d4-b449-320fedf431f7-parameters"
        }
      }, {
        "url": "http://hl7.org/fhir/us/cqfmeasures/StructureDefinition/cqfm-testCaseDescription",
        "valueMarkdown": "Patient turns 18 day of admission , age=18\n"
      } ],
      "modifierExtension": [ {
        "url": "http://hl7.org/fhir/us/cqfmeasures/StructureDefinition/cqfm-isTestCase",
        "valueBoolean": true
      } ],
      "status": "complete",
      "type": "individual",
      "measure": "https://madie.cms.gov/Measure/CMS72FHIRSTKAntithromboticDay2",
      "period": {
        "start": "2026-01-01",
        "end": "2026-12-31"
      },
      "group": [ {
        "id": "Group_1",
        "population": [ {
          "id": "InitialPopulation_1",
          "code": {
            "coding": [ {
              "system": "http://terminology.hl7.org/CodeSystem/measure-population",
              "code": "initial-population",
              "display": "Initial Population"
            } ]
          },
          "count": 1
        }, {
          "id": "Denominator_1",
          "code": {
            "coding": [ {
              "system": "http://terminology.hl7.org/CodeSystem/measure-population",
              "code": "denominator",
              "display": "Denominator"
            } ]
          },
          "count": 1
        }, {
          "id": "DenominatorExclusion_1",
          "code": {
            "coding": [ {
              "system": "http://terminology.hl7.org/CodeSystem/measure-population",
              "code": "denominator-exclusion",
              "display": "Denominator Exclusion"
            } ]
          },
          "count": 0
        }, {
          "id": "Numerator_1",
          "code": {
            "coding": [ {
              "system": "http://terminology.hl7.org/CodeSystem/measure-population",
              "code": "numerator",
              "display": "Numerator"
            } ]
          },
          "count": 0
        }, {
          "id": "DenominatorException_1",
          "code": {
            "coding": [ {
              "system": "http://terminology.hl7.org/CodeSystem/measure-population",
              "code": "denominator-exception",
              "display": "Denominator Exception"
            } ]
          },
          "count": 0
        } ],
        "measureScore": {
          "value": 0.0
        }
      } ],
      "evaluatedResource": [ {
        "reference": "Patient/0eecd949-77bf-4ded-bb95-40e11c2116c7"
      }, {
        "reference": "Encounter/407f8c7c-54a3-4a36-9979-1f77c3200245"
      }, {
        "reference": "Coverage/1fd80646-101c-459a-af5c-5fbc01a437b5"
      }, {
        "reference": "Condition/a7fcb838-b232-4d9c-9c43-dc31df9e5b4f"
      }, {
        "reference": "Claim/5ca62962b8484628b8de1ec5"
      }, {
        "reference": "Organization/6bab0ca4-d604-4bfb-b5e5-89df266ad250"
      }, {
        "reference": "Practitioner/7002fbfd-8e34-45a4-989d-dc03b07390d1"
      } ]
    },
    "request": {
      "method": "PUT",
      "url": "MeasureReport/ba8d59fb-db90-4270-9b00-4c4c7ddc76e9"
    }
  } ]
}