{
  "resourceType": "Bundle",
  "id": "633b3f9f0968f80122503ce3",
  "type": "transaction",
  "entry": [ {
    "fullUrl": "https://madie.cms.gov/Patient/f538dfbc-b3d0-48c5-aed5-76a2e2515f2d",
    "resource": {
      "resourceType": "Patient",
      "id": "f538dfbc-b3d0-48c5-aed5-76a2e2515f2d",
      "meta": {
        "profile": [ "http://hl7.org/fhir/us/qicore/StructureDefinition/qicore-patient" ]
      },
      "text": {
        "status": "generated",
        "div": "<div xmlns=\"http://www.w3.org/1999/xhtml\"><div class=\"hapiHeaderText\">LastAssPrfEGAResultQuantityEQ19wk<b>DENOMFAIL</b></div><table class=\"hapiPropertyTable\"><tbody><tr><td>Date of birth</td><td><span>01 February 2004</span></td></tr></tbody></table></div>"
      },
      "extension": [ {
        "url": "http://hl7.org/fhir/us/core/StructureDefinition/us-core-race",
        "extension": [ {
          "url": "ombCategory",
          "valueCoding": {
            "system": "urn:oid:2.16.840.1.113883.6.238",
            "code": "1002-5",
            "display": "American Indian or Alaska Native",
            "userSelected": true
          }
        }, {
          "url": "text",
          "valueString": "American Indian or Alaska Native"
        } ]
      }, {
        "url": "http://hl7.org/fhir/us/core/StructureDefinition/us-core-ethnicity",
        "extension": [ {
          "url": "ombCategory",
          "valueCoding": {
            "system": "urn:oid:2.16.840.1.113883.6.238",
            "code": "2135-2",
            "display": "Hispanic or Latino",
            "userSelected": true
          }
        }, {
          "url": "text",
          "valueString": "Hispanic or Latino"
        } ]
      } ],
      "identifier": [ {
        "type": {
          "coding": [ {
            "system": "http://terminology.hl7.org/CodeSystem/v2-0203",
            "code": "MR"
          } ]
        },
        "system": "https://bonnie-fhir.healthit.gov/",
        "value": "633b3f9f0968f80122503ce3"
      } ],
      "active": true,
      "name": [ {
        "use": "usual",
        "family": "DENOMFail",
        "given": [ "LastAssPrfEGAResultQuantityEQ19wk" ]
      } ],
      "gender": "female",
      "birthDate": "2005-02-01"
    },
    "request": {
      "method": "PUT",
      "url": "Patient/f538dfbc-b3d0-48c5-aed5-76a2e2515f2d"
    }
  }, {
    "fullUrl": "https://madie.cms.gov/Observation/abf9016e-2d06-42a3-9485-cc16d786183b",
    "resource": {
      "resourceType": "Observation",
      "id": "abf9016e-2d06-42a3-9485-cc16d786183b",
      "meta": {
        "profile": [ "http://hl7.org/fhir/us/qicore/StructureDefinition/qicore-simple-observation" ]
      },
      "status": "final",
      "category": [ {
        "coding": [ {
          "system": "http://terminology.hl7.org/CodeSystem/observation-category",
          "code": "exam",
          "display": "exam",
          "userSelected": true
        } ]
      } ],
      "code": {
        "coding": [ {
          "system": "http://loinc.org",
          "code": "93857-1"
        } ]
      },
      "subject": {
        "reference": "Patient/f538dfbc-b3d0-48c5-aed5-76a2e2515f2d"
      },
      "effectiveDateTime": "2026-02-01T08:00:00.000+00:00",
      "performer": [ {
        "reference": "Organization/example1",
        "display": "Hendricks Country Hospital"
      } ],
      "valueDateTime": "2026-02-01T08:00:00.000+00:00"
    },
    "request": {
      "method": "PUT",
      "url": "Observation/abf9016e-2d06-42a3-9485-cc16d786183b"
    }
  }, {
    "fullUrl": "https://madie.cms.gov/Observation/5489a630-a9b3-45b7-8300-0e41e5a52409",
    "resource": {
      "resourceType": "Observation",
      "id": "5489a630-a9b3-45b7-8300-0e41e5a52409",
      "meta": {
        "profile": [ "http://hl7.org/fhir/us/qicore/StructureDefinition/qicore-simple-observation" ]
      },
      "status": "final",
      "category": [ {
        "coding": [ {
          "system": "http://terminology.hl7.org/CodeSystem/observation-category",
          "code": "exam",
          "display": "exam",
          "userSelected": true
        } ]
      } ],
      "code": {
        "coding": [ {
          "system": "http://loinc.org",
          "code": "11884-4"
        } ]
      },
      "subject": {
        "reference": "Patient/f538dfbc-b3d0-48c5-aed5-76a2e2515f2d"
      },
      "effectiveDateTime": "2026-02-01T07:00:00.000+00:00",
      "performer": [ {
        "reference": "Organization/example1",
        "display": "Hendricks Country Hospital"
      } ],
      "valueQuantity": {
        "value": 20,
        "unit": "wk"
      }
    },
    "request": {
      "method": "PUT",
      "url": "Observation/5489a630-a9b3-45b7-8300-0e41e5a52409"
    }
  }, {
    "fullUrl": "https://madie.cms.gov/Observation/9aef1ccd-eaee-4cae-b6da-312d3f3df46b",
    "resource": {
      "resourceType": "Observation",
      "id": "9aef1ccd-eaee-4cae-b6da-312d3f3df46b",
      "meta": {
        "profile": [ "http://hl7.org/fhir/us/qicore/StructureDefinition/qicore-simple-observation" ]
      },
      "status": "final",
      "category": [ {
        "coding": [ {
          "system": "http://terminology.hl7.org/CodeSystem/observation-category",
          "code": "exam",
          "display": "exam",
          "userSelected": true
        } ]
      } ],
      "code": {
        "coding": [ {
          "system": "http://loinc.org",
          "code": "11884-4"
        } ]
      },
      "subject": {
        "reference": "Patient/f538dfbc-b3d0-48c5-aed5-76a2e2515f2d"
      },
      "effectiveDateTime": "2026-02-01T08:00:00.000+00:00",
      "performer": [ {
        "reference": "Organization/example1",
        "display": "Hendricks Country Hospital"
      } ],
      "valueQuantity": {
        "value": 19,
        "unit": "wk"
      }
    },
    "request": {
      "method": "PUT",
      "url": "Observation/9aef1ccd-eaee-4cae-b6da-312d3f3df46b"
    }
  }, {
    "fullUrl": "https://madie.cms.gov/Encounter/9b2c3f31-4f04-423f-9fa8-eeff9d83f786",
    "resource": {
      "resourceType": "Encounter",
      "id": "9b2c3f31-4f04-423f-9fa8-eeff9d83f786",
      "meta": {
        "profile": [ "http://hl7.org/fhir/us/qicore/StructureDefinition/qicore-encounter" ]
      },
      "status": "finished",
      "class": {
        "system": "http://terminology.hl7.org/CodeSystem/v3-ActCode",
        "code": "IMP",
        "display": "inpatient encounter"
      },
      "type": [ {
        "coding": [ {
          "system": "http://snomed.info/sct",
          "code": "183452005"
        } ]
      } ],
      "subject": {
        "reference": "Patient/f538dfbc-b3d0-48c5-aed5-76a2e2515f2d"
      },
      "period": {
        "start": "2026-02-01T08:00:00.000+00:00",
        "end": "2026-02-05T08:15:00.000+00:00"
      },
      "reasonCode": [ {
        "coding": [ {
          "system": "http://snomed.info/sct",
          "code": "169826009",
          "display": "Single live birth from singleton pregnancy (finding)"
        } ]
      } ]
    },
    "request": {
      "method": "PUT",
      "url": "Encounter/9b2c3f31-4f04-423f-9fa8-eeff9d83f786"
    }
  }, {
    "fullUrl": "https://madie.cms.gov/Coverage/0d61a508-f37d-4ad5-af52-05f3f178f862",
    "resource": {
      "resourceType": "Coverage",
      "id": "0d61a508-f37d-4ad5-af52-05f3f178f862",
      "status": "active",
      "subscriberId": "523435",
      "beneficiary": {
        "reference": "Patient/f538dfbc-b3d0-48c5-aed5-76a2e2515f2d"
      },
      "relationship": {
        "coding": [ {
          "system": "http://terminology.hl7.org/CodeSystem/subscriber-relationship",
          "code": "self"
        } ]
      },
      "period": {
        "start": "2005-02-01T08:00:00.000+00:00"
      },
      "payor": [ {
        "reference": "Organization/23167e2d-26d3-4405-9564-0610bb7a4ebd"
      } ]
    },
    "request": {
      "method": "PUT",
      "url": "Coverage/0d61a508-f37d-4ad5-af52-05f3f178f862"
    }
  }, {
    "fullUrl": "https://madie.cms.gov/Procedure/7d657469-c9c0-447d-85fb-2330a19fd110",
    "resource": {
      "resourceType": "Procedure",
      "id": "7d657469-c9c0-447d-85fb-2330a19fd110",
      "meta": {
        "profile": [ "http://hl7.org/fhir/us/qicore/StructureDefinition/qicore-procedure" ]
      },
      "extension": [ {
        "url": "http://hl7.org/fhir/us/qicore/StructureDefinition/qicore-recorded",
        "valueDateTime": "2014-04-05T13:35:00.000+00:00"
      } ],
      "status": "completed",
      "code": {
        "coding": [ {
          "system": "http://snomed.info/sct",
          "code": "10745001"
        } ]
      },
      "subject": {
        "reference": "Patient/f538dfbc-b3d0-48c5-aed5-76a2e2515f2d"
      },
      "performedPeriod": {
        "start": "2026-02-01T08:00:00.000+00:00",
        "end": "2026-02-05T08:15:00.000+00:00"
      }
    },
    "request": {
      "method": "PUT",
      "url": "Procedure/7d657469-c9c0-447d-85fb-2330a19fd110"
    }
  }, {
    "fullUrl": "https://madie.cms.gov/Organization/23167e2d-26d3-4405-9564-0610bb7a4ebd",
    "resource": {
      "resourceType": "Organization",
      "id": "23167e2d-26d3-4405-9564-0610bb7a4ebd",
      "meta": {
        "profile": [ "http://hl7.org/fhir/us/qicore/StructureDefinition/qicore-organization" ]
      },
      "identifier": [ {
        "use": "temp",
        "system": "urn:oid:2.16.840.1.113883.4.4",
        "value": "21-3259825"
      } ],
      "active": true,
      "type": [ {
        "coding": [ {
          "system": "http://terminology.hl7.org/CodeSystem/organization-type",
          "code": "pay",
          "display": "Payer"
        } ]
      } ],
      "name": "Blue Cross Blue Shield of Texas",
      "telecom": [ {
        "system": "phone",
        "value": "(+1) 972-766-6900"
      } ],
      "address": [ {
        "use": "billing",
        "type": "postal",
        "line": [ "P.O. Box 660044" ],
        "city": "Dallas",
        "state": "TX",
        "postalCode": "75266-0044",
        "country": "USA"
      } ]
    },
    "request": {
      "method": "PUT",
      "url": "Organization/23167e2d-26d3-4405-9564-0610bb7a4ebd"
    }
  }, {
    "fullUrl": "https://madie.cms.gov/Practitioner/6a18692a-5dec-4bea-855c-d5e9ef6bedcd",
    "resource": {
      "resourceType": "Practitioner",
      "id": "6a18692a-5dec-4bea-855c-d5e9ef6bedcd",
      "meta": {
        "profile": [ "http://hl7.org/fhir/us/qicore/StructureDefinition/qicore-practitioner" ]
      },
      "identifier": [ {
        "system": "http://hl7.org/fhir/sid/us-npi",
        "value": "1234567890"
      } ],
      "name": [ {
        "family": "Evil",
        "prefix": [ "Dr" ]
      } ]
    },
    "request": {
      "method": "PUT",
      "url": "Practitioner/6a18692a-5dec-4bea-855c-d5e9ef6bedcd"
    }
  }, {
    "fullUrl": "https://madie.cms.gov/MeasureReport/19e14040-12ad-4365-9203-734d9a899e99",
    "resource": {
      "resourceType": "MeasureReport",
      "id": "19e14040-12ad-4365-9203-734d9a899e99",
      "meta": {
        "profile": [ "http://hl7.org/fhir/us/cqfmeasures/StructureDefinition/test-case-cqfm" ]
      },
      "contained": [ {
        "resourceType": "Parameters",
        "id": "aaa53410-7363-45c3-80a4-c38995b95d89-parameters",
        "parameter": [ {
          "name": "subject",
          "valueString": "f538dfbc-b3d0-48c5-aed5-76a2e2515f2d"
        } ]
      } ],
      "extension": [ {
        "url": "http://hl7.org/fhir/StructureDefinition/cqf-inputParameters",
        "valueReference": {
          "reference": "#aaa53410-7363-45c3-80a4-c38995b95d89-parameters"
        }
      }, {
        "url": "http://hl7.org/fhir/us/cqfmeasures/StructureDefinition/cqfm-testCaseDescription",
        "valueMarkdown": "Last Assessment Performed EGA = 19 weeks\n"
      } ],
      "modifierExtension": [ {
        "url": "http://hl7.org/fhir/us/cqfmeasures/StructureDefinition/cqfm-isTestCase",
        "valueBoolean": true
      } ],
      "status": "complete",
      "type": "individual",
      "measure": "https://madie.cms.gov/Measure/CMS1028FHIRPCSevereOBComps",
      "period": {
        "start": "2026-01-01",
        "end": "2026-12-31"
      },
      "group": [ {
        "id": "Group_1",
        "population": [ {
          "id": "InitialPopulation_1",
          "code": {
            "coding": [ {
              "system": "http://terminology.hl7.org/CodeSystem/measure-population",
              "code": "initial-population",
              "display": "Initial Population"
            } ]
          },
          "count": 1
        }, {
          "id": "Denominator_1",
          "code": {
            "coding": [ {
              "system": "http://terminology.hl7.org/CodeSystem/measure-population",
              "code": "denominator",
              "display": "Denominator"
            } ]
          },
          "count": 0
        }, {
          "id": "Numerator_1",
          "code": {
            "coding": [ {
              "system": "http://terminology.hl7.org/CodeSystem/measure-population",
              "code": "numerator",
              "display": "Numerator"
            } ]
          },
          "count": 0
        }, {
          "id": "NumeratorExclusion_1",
          "code": {
            "coding": [ {
              "system": "http://terminology.hl7.org/CodeSystem/measure-population",
              "code": "numerator-exclusion",
              "display": "Numerator Exclusion"
            } ]
          },
          "count": 0
        } ],
        "measureScore": {
          "value": 0.0
        }
      }, {
        "id": "Group_2",
        "population": [ {
          "id": "InitialPopulation_2",
          "code": {
            "coding": [ {
              "system": "http://terminology.hl7.org/CodeSystem/measure-population",
              "code": "initial-population",
              "display": "Initial Population"
            } ]
          },
          "count": 1
        }, {
          "id": "Denominator_2",
          "code": {
            "coding": [ {
              "system": "http://terminology.hl7.org/CodeSystem/measure-population",
              "code": "denominator",
              "display": "Denominator"
            } ]
          },
          "count": 0
        }, {
          "id": "Numerator_2",
          "code": {
            "coding": [ {
              "system": "http://terminology.hl7.org/CodeSystem/measure-population",
              "code": "numerator",
              "display": "Numerator"
            } ]
          },
          "count": 0
        }, {
          "id": "NumeratorExclusion_2",
          "code": {
            "coding": [ {
              "system": "http://terminology.hl7.org/CodeSystem/measure-population",
              "code": "numerator-exclusion",
              "display": "Numerator Exclusion"
            } ]
          },
          "count": 0
        } ],
        "measureScore": {
          "value": 0.0
        }
      } ],
      "evaluatedResource": [ {
        "reference": "Patient/f538dfbc-b3d0-48c5-aed5-76a2e2515f2d"
      }, {
        "reference": "Observation/abf9016e-2d06-42a3-9485-cc16d786183b"
      }, {
        "reference": "Observation/5489a630-a9b3-45b7-8300-0e41e5a52409"
      }, {
        "reference": "Observation/9aef1ccd-eaee-4cae-b6da-312d3f3df46b"
      }, {
        "reference": "Encounter/9b2c3f31-4f04-423f-9fa8-eeff9d83f786"
      }, {
        "reference": "Coverage/0d61a508-f37d-4ad5-af52-05f3f178f862"
      }, {
        "reference": "Procedure/7d657469-c9c0-447d-85fb-2330a19fd110"
      }, {
        "reference": "Organization/23167e2d-26d3-4405-9564-0610bb7a4ebd"
      }, {
        "reference": "Practitioner/6a18692a-5dec-4bea-855c-d5e9ef6bedcd"
      } ]
    },
    "request": {
      "method": "PUT",
      "url": "MeasureReport/19e14040-12ad-4365-9203-734d9a899e99"
    }
  } ]
}