{
  "resourceType": "Bundle",
  "id": "62c880ec0111a60120dc2201",
  "type": "transaction",
  "entry": [ {
    "fullUrl": "https://madie.cms.gov/Patient/be20e6d8-f2f2-49d9-abc1-39e93ba36a1c",
    "resource": {
      "resourceType": "Patient",
      "id": "be20e6d8-f2f2-49d9-abc1-39e93ba36a1c",
      "meta": {
        "profile": [ "http://hl7.org/fhir/us/qicore/StructureDefinition/qicore-patient" ]
      },
      "text": {
        "status": "generated",
        "div": "<div xmlns=\"http://www.w3.org/1999/xhtml\"><div class=\"hapiHeaderText\">OVEncAndChemoAfterMP<b>IPPFAILPOP1</b></div><table class=\"hapiPropertyTable\"><tbody><tr><td>Identifier</td><td>ac1da6e0409af00bfb044b9882b4de26</td></tr><tr><td>Date of birth</td><td><span>12 March 1981</span></td></tr></tbody></table></div>"
      },
      "extension": [ {
        "url": "http://hl7.org/fhir/us/core/StructureDefinition/us-core-race",
        "extension": [ {
          "url": "ombCategory",
          "valueCoding": {
            "system": "urn:oid:2.16.840.1.113883.6.238",
            "code": "1002-5",
            "display": "American Indian or Alaska Native",
            "userSelected": true
          }
        }, {
          "url": "text",
          "valueString": "American Indian or Alaska Native"
        } ]
      }, {
        "url": "http://hl7.org/fhir/us/core/StructureDefinition/us-core-ethnicity",
        "extension": [ {
          "url": "ombCategory",
          "valueCoding": {
            "system": "urn:oid:2.16.840.1.113883.6.238",
            "code": "2135-2",
            "display": "Hispanic or Latino",
            "userSelected": true
          }
        }, {
          "url": "text",
          "valueString": "Hispanic or Latino"
        } ]
      } ],
      "identifier": [ {
        "type": {
          "coding": [ {
            "system": "http://terminology.hl7.org/CodeSystem/v2-0203",
            "code": "MR"
          } ]
        },
        "system": "https://bonnie-fhir.healthit.gov/",
        "value": "62c880ec0111a60120dc2201"
      } ],
      "active": true,
      "name": [ {
        "use": "usual",
        "family": "IPPFailPop1",
        "given": [ "EncAfterMP" ]
      } ],
      "gender": "female",
      "birthDate": "1982-03-12"
    },
    "request": {
      "method": "PUT",
      "url": "Patient/be20e6d8-f2f2-49d9-abc1-39e93ba36a1c"
    }
  }, {
    "fullUrl": "https://madie.cms.gov/Condition/d0738116-bb9e-4eb5-b144-842892e6d98f",
    "resource": {
      "resourceType": "Condition",
      "id": "d0738116-bb9e-4eb5-b144-842892e6d98f",
      "meta": {
        "profile": [ "http://hl7.org/fhir/us/qicore/StructureDefinition/qicore-condition-problems-health-concerns" ]
      },
      "clinicalStatus": {
        "coding": [ {
          "system": "http://terminology.hl7.org/CodeSystem/condition-clinical",
          "code": "remission",
          "display": "remission"
        } ]
      },
      "verificationStatus": {
        "coding": [ {
          "system": "http://terminology.hl7.org/CodeSystem/condition-ver-status",
          "code": "confirmed",
          "display": "Confirmed"
        } ]
      },
      "category": [ {
        "coding": [ {
          "system": "http://terminology.hl7.org/CodeSystem/condition-category",
          "code": "problem-list-item",
          "display": "Problem List Item"
        } ]
      } ],
      "code": {
        "coding": [ {
          "system": "http://snomed.info/sct",
          "code": "271323007"
        } ]
      },
      "subject": {
        "reference": "Patient/be20e6d8-f2f2-49d9-abc1-39e93ba36a1c"
      },
      "onsetDateTime": "2026-12-21T13:30:00.000+00:00",
      "abatementDateTime": "2026-12-30T14:15:00.000+00:00"
    },
    "request": {
      "method": "PUT",
      "url": "Condition/d0738116-bb9e-4eb5-b144-842892e6d98f"
    }
  }, {
    "fullUrl": "https://madie.cms.gov/Encounter/8f83e2d8-f32c-40ac-8ee6-fbfeb8c87069",
    "resource": {
      "resourceType": "Encounter",
      "id": "8f83e2d8-f32c-40ac-8ee6-fbfeb8c87069",
      "meta": {
        "profile": [ "http://hl7.org/fhir/us/qicore/StructureDefinition/qicore-encounter" ]
      },
      "status": "finished",
      "class": {
        "system": "http://terminology.hl7.org/CodeSystem/v3-ActCode",
        "code": "AMB",
        "display": "ambulatory",
        "userSelected": true
      },
      "type": [ {
        "coding": [ {
          "system": "http://www.ama-assn.org/go/cpt",
          "code": "99205"
        } ]
      } ],
      "subject": {
        "reference": "Patient/be20e6d8-f2f2-49d9-abc1-39e93ba36a1c"
      },
      "period": {
        "start": "2026-01-02T14:30:00.000+00:00",
        "end": "2026-01-02T14:30:00.000+00:00"
      }
    },
    "request": {
      "method": "PUT",
      "url": "Encounter/8f83e2d8-f32c-40ac-8ee6-fbfeb8c87069"
    }
  }, {
    "fullUrl": "https://madie.cms.gov/Coverage/04983782-7760-443a-acf9-d3ef77838de0",
    "resource": {
      "resourceType": "Coverage",
      "id": "04983782-7760-443a-acf9-d3ef77838de0",
      "meta": {
        "profile": [ "http://hl7.org/fhir/us/qicore/StructureDefinition/qicore-coverage" ]
      },
      "status": "active",
      "beneficiary": {
        "reference": "Patient/be20e6d8-f2f2-49d9-abc1-39e93ba36a1c"
      },
      "period": {
        "start": "1982-03-12T08:00:00.000+00:00"
      },
      "payor": [ {
        "reference": "Organization/326a2eaf-fd68-4db7-bae1-591f755ed85f"
      } ]
    },
    "request": {
      "method": "PUT",
      "url": "Coverage/04983782-7760-443a-acf9-d3ef77838de0"
    }
  }, {
    "fullUrl": "https://madie.cms.gov/Procedure/299a0951-8b1f-445a-9679-fa392c879fa7",
    "resource": {
      "resourceType": "Procedure",
      "id": "299a0951-8b1f-445a-9679-fa392c879fa7",
      "meta": {
        "profile": [ "http://hl7.org/fhir/us/qicore/StructureDefinition/qicore-procedure" ]
      },
      "extension": [ {
        "url": "http://hl7.org/fhir/us/qicore/StructureDefinition/qicore-recorded",
        "valueDateTime": "2026-12-22T14:50:00.000+00:00"
      } ],
      "status": "completed",
      "code": {
        "coding": [ {
          "system": "http://www.ama-assn.org/go/cpt",
          "code": "96405"
        } ]
      },
      "subject": {
        "reference": "Patient/be20e6d8-f2f2-49d9-abc1-39e93ba36a1c"
      },
      "performedPeriod": {
        "start": "2026-12-22T14:45:00.000+00:00",
        "end": "2026-12-22T14:45:00.000+00:00"
      }
    },
    "request": {
      "method": "PUT",
      "url": "Procedure/299a0951-8b1f-445a-9679-fa392c879fa7"
    }
  }, {
    "fullUrl": "https://madie.cms.gov/Procedure/5c43e9f9-4964-420a-8037-a73c0ece5649",
    "resource": {
      "resourceType": "Procedure",
      "id": "5c43e9f9-4964-420a-8037-a73c0ece5649",
      "meta": {
        "profile": [ "http://hl7.org/fhir/us/qicore/StructureDefinition/qicore-procedure" ]
      },
      "extension": [ {
        "url": "http://hl7.org/fhir/us/qicore/StructureDefinition/qicore-recorded",
        "valueDateTime": "2026-01-03T15:35:00.000+00:00"
      } ],
      "status": "completed",
      "code": {
        "coding": [ {
          "system": "http://www.ama-assn.org/go/cpt",
          "code": "96405"
        } ]
      },
      "subject": {
        "reference": "Patient/be20e6d8-f2f2-49d9-abc1-39e93ba36a1c"
      },
      "performedPeriod": {
        "start": "2026-01-03T15:00:00.000+00:00",
        "end": "2026-01-03T15:00:00.000+00:00"
      }
    },
    "request": {
      "method": "PUT",
      "url": "Procedure/5c43e9f9-4964-420a-8037-a73c0ece5649"
    }
  }, {
    "fullUrl": "https://madie.cms.gov/Organization/326a2eaf-fd68-4db7-bae1-591f755ed85f",
    "resource": {
      "resourceType": "Organization",
      "id": "326a2eaf-fd68-4db7-bae1-591f755ed85f",
      "meta": {
        "profile": [ "http://hl7.org/fhir/us/qicore/StructureDefinition/qicore-organization" ]
      },
      "identifier": [ {
        "use": "temp",
        "system": "urn:oid:2.16.840.1.113883.4.4",
        "value": "21-3259825"
      } ],
      "active": true,
      "type": [ {
        "coding": [ {
          "system": "http://terminology.hl7.org/CodeSystem/organization-type",
          "code": "pay",
          "display": "Payer"
        } ]
      } ],
      "name": "Blue Cross Blue Shield of Texas",
      "telecom": [ {
        "system": "phone",
        "value": "(+1) 972-766-6900"
      } ],
      "address": [ {
        "use": "billing",
        "type": "postal",
        "line": [ "P.O. Box 660044" ],
        "city": "Dallas",
        "state": "TX",
        "postalCode": "75266-0044",
        "country": "USA"
      } ]
    },
    "request": {
      "method": "PUT",
      "url": "Organization/326a2eaf-fd68-4db7-bae1-591f755ed85f"
    }
  }, {
    "fullUrl": "https://madie.cms.gov/Practitioner/e70a06e8-d5ae-4ea5-8106-8c4f1501923a",
    "resource": {
      "resourceType": "Practitioner",
      "id": "e70a06e8-d5ae-4ea5-8106-8c4f1501923a",
      "meta": {
        "profile": [ "http://hl7.org/fhir/us/qicore/StructureDefinition/qicore-practitioner" ]
      },
      "identifier": [ {
        "system": "http://hl7.org/fhir/sid/us-npi",
        "value": "123456"
      } ],
      "name": [ {
        "family": "Evil",
        "prefix": [ "Dr" ]
      } ]
    },
    "request": {
      "method": "PUT",
      "url": "Practitioner/e70a06e8-d5ae-4ea5-8106-8c4f1501923a"
    }
  }, {
    "fullUrl": "https://madie.cms.gov/MeasureReport/264ed660-c8d6-416a-8212-68d5f0a192b5",
    "resource": {
      "resourceType": "MeasureReport",
      "id": "264ed660-c8d6-416a-8212-68d5f0a192b5",
      "meta": {
        "profile": [ "http://hl7.org/fhir/us/cqfmeasures/StructureDefinition/test-case-cqfm" ]
      },
      "contained": [ {
        "resourceType": "Parameters",
        "id": "96960f35-a089-4fe9-a23c-ab11b3ac3621-parameters",
        "parameter": [ {
          "name": "subject",
          "valueString": "be20e6d8-f2f2-49d9-abc1-39e93ba36a1c"
        } ]
      } ],
      "extension": [ {
        "url": "http://hl7.org/fhir/StructureDefinition/cqf-inputParameters",
        "valueReference": {
          "reference": "#96960f35-a089-4fe9-a23c-ab11b3ac3621-parameters"
        }
      }, {
        "url": "http://hl7.org/fhir/us/cqfmeasures/StructureDefinition/cqfm-testCaseDescription",
        "valueMarkdown": "Patient with cancer diagnosis that overlaps the office visit. Office visit occurs after the measurement period."
      } ],
      "modifierExtension": [ {
        "url": "http://hl7.org/fhir/us/cqfmeasures/StructureDefinition/cqfm-isTestCase",
        "valueBoolean": true
      } ],
      "status": "complete",
      "type": "individual",
      "measure": "https://madie.cms.gov/Measure/CMS157FHIRPainIntensityQuantified",
      "period": {
        "start": "2026-01-01",
        "end": "2026-12-31"
      },
      "group": [ {
        "id": "Group_1",
        "population": [ {
          "id": "InitialPopulation_1",
          "code": {
            "coding": [ {
              "system": "http://terminology.hl7.org/CodeSystem/measure-population",
              "code": "initial-population",
              "display": "Initial Population"
            } ]
          },
          "count": 0
        }, {
          "id": "Denominator_1",
          "code": {
            "coding": [ {
              "system": "http://terminology.hl7.org/CodeSystem/measure-population",
              "code": "denominator",
              "display": "Denominator"
            } ]
          },
          "count": 0
        }, {
          "id": "Numerator_1",
          "code": {
            "coding": [ {
              "system": "http://terminology.hl7.org/CodeSystem/measure-population",
              "code": "numerator",
              "display": "Numerator"
            } ]
          },
          "count": 0
        } ],
        "measureScore": {
          "value": 0.0
        }
      }, {
        "id": "Group_2",
        "population": [ {
          "id": "InitialPopulation_2",
          "code": {
            "coding": [ {
              "system": "http://terminology.hl7.org/CodeSystem/measure-population",
              "code": "initial-population",
              "display": "Initial Population"
            } ]
          },
          "count": 0
        }, {
          "id": "Denominator_2",
          "code": {
            "coding": [ {
              "system": "http://terminology.hl7.org/CodeSystem/measure-population",
              "code": "denominator",
              "display": "Denominator"
            } ]
          },
          "count": 0
        }, {
          "id": "Numerator_2",
          "code": {
            "coding": [ {
              "system": "http://terminology.hl7.org/CodeSystem/measure-population",
              "code": "numerator",
              "display": "Numerator"
            } ]
          },
          "count": 0
        } ],
        "measureScore": {
          "value": 0.0
        }
      } ],
      "evaluatedResource": [ {
        "reference": "Patient/be20e6d8-f2f2-49d9-abc1-39e93ba36a1c"
      }, {
        "reference": "Condition/d0738116-bb9e-4eb5-b144-842892e6d98f"
      }, {
        "reference": "Encounter/8f83e2d8-f32c-40ac-8ee6-fbfeb8c87069"
      }, {
        "reference": "Coverage/04983782-7760-443a-acf9-d3ef77838de0"
      }, {
        "reference": "Procedure/299a0951-8b1f-445a-9679-fa392c879fa7"
      }, {
        "reference": "Procedure/5c43e9f9-4964-420a-8037-a73c0ece5649"
      }, {
        "reference": "Organization/326a2eaf-fd68-4db7-bae1-591f755ed85f"
      }, {
        "reference": "Practitioner/e70a06e8-d5ae-4ea5-8106-8c4f1501923a"
      } ]
    },
    "request": {
      "method": "PUT",
      "url": "MeasureReport/264ed660-c8d6-416a-8212-68d5f0a192b5"
    }
  } ]
}