{
  "resourceType": "Bundle",
  "id": "DENEXFail-InpatientEncNoHospiceDischarge",
  "type": "transaction",
  "entry": [ {
    "fullUrl": "https://madie.cms.gov/Patient/8a395e33-8019-4ffe-8e40-7df6dff818b0",
    "resource": {
      "resourceType": "Patient",
      "id": "8a395e33-8019-4ffe-8e40-7df6dff818b0",
      "meta": {
        "profile": [ "http://hl7.org/fhir/us/qicore/StructureDefinition/qicore-patient" ]
      },
      "extension": [ {
        "url": "http://hl7.org/fhir/us/core/StructureDefinition/us-core-race",
        "extension": [ {
          "url": "ombCategory",
          "valueCoding": {
            "system": "urn:oid:2.16.840.1.113883.6.238",
            "code": "2028-9",
            "display": "Asian"
          }
        }, {
          "url": "text",
          "valueString": "Asian"
        } ]
      }, {
        "url": "http://hl7.org/fhir/us/core/StructureDefinition/us-core-ethnicity",
        "extension": [ {
          "url": "ombCategory",
          "valueCoding": {
            "system": "urn:oid:2.16.840.1.113883.6.238",
            "code": "2135-2",
            "display": "Hispanic or Latino"
          }
        }, {
          "url": "text",
          "valueString": "Hispanic or Latino"
        } ]
      } ],
      "identifier": [ {
        "system": "http://hospital.smarthealthit.org",
        "value": "999999995"
      } ],
      "name": [ {
        "family": "Bertha",
        "given": [ "Betty" ]
      } ],
      "gender": "female",
      "birthDate": "2017-12-31"
    },
    "request": {
      "method": "PUT",
      "url": "Patient/8a395e33-8019-4ffe-8e40-7df6dff818b0"
    }
  }, {
    "fullUrl": "https://madie.cms.gov/Encounter/441806b1-6cff-41f6-a534-6a116cdcddcd",
    "resource": {
      "resourceType": "Encounter",
      "id": "441806b1-6cff-41f6-a534-6a116cdcddcd",
      "meta": {
        "profile": [ "http://hl7.org/fhir/us/qicore/StructureDefinition/qicore-encounter" ]
      },
      "status": "finished",
      "class": {
        "system": "http://terminology.hl7.org/CodeSystem/v3-ActCode",
        "code": "AMB",
        "display": "ambulatory"
      },
      "type": [ {
        "coding": [ {
          "system": "http://snomed.info/sct",
          "code": "185464004",
          "display": "Out of hours visit - not night visit (procedure)"
        } ]
      } ],
      "subject": {
        "reference": "Patient/8a395e33-8019-4ffe-8e40-7df6dff818b0"
      },
      "period": {
        "start": "2026-01-01T00:00:00.000+00:00",
        "end": "2026-01-01T01:00:00.000+00:00"
      }
    },
    "request": {
      "method": "PUT",
      "url": "Encounter/441806b1-6cff-41f6-a534-6a116cdcddcd"
    }
  }, {
    "fullUrl": "https://madie.cms.gov/MedicationRequest/cf569701-200c-451b-b79c-d0e1950fcf78",
    "resource": {
      "resourceType": "MedicationRequest",
      "id": "cf569701-200c-451b-b79c-d0e1950fcf78",
      "meta": {
        "profile": [ "http://hl7.org/fhir/us/qicore/StructureDefinition/qicore-medicationrequest" ]
      },
      "status": "completed",
      "intent": "order",
      "medicationCodeableConcept": {
        "coding": [ {
          "system": "http://www.nlm.nih.gov/research/umls/rxnorm",
          "code": "884173",
          "display": "clonidine hydrochloride 0.1 MG Oral Tablet"
        } ]
      },
      "subject": {
        "reference": "Patient/8a395e33-8019-4ffe-8e40-7df6dff818b0"
      },
      "authoredOn": "2026-01-01T00:00:00.000+00:00",
      "requester": {
        "reference": "Practitioner/example"
      },
      "dosageInstruction": [ {
        "timing": {
          "repeat": {
            "boundsPeriod": {
              "start": "2026-01-01T00:00:00.000+00:00",
              "end": "2026-03-31T23:59:59.000+00:00"
            }
          }
        }
      } ],
      "dispenseRequest": {
        "expectedSupplyDuration": {
          "value": 90,
          "system": "http://unitsofmeasure.org",
          "code": "d"
        }
      }
    },
    "request": {
      "method": "PUT",
      "url": "MedicationRequest/cf569701-200c-451b-b79c-d0e1950fcf78"
    }
  }, {
    "fullUrl": "https://madie.cms.gov/Encounter/ad4a2982-0de3-4137-96d1-d45fe3a13d6e",
    "resource": {
      "resourceType": "Encounter",
      "id": "ad4a2982-0de3-4137-96d1-d45fe3a13d6e",
      "meta": {
        "profile": [ "http://hl7.org/fhir/us/qicore/StructureDefinition/qicore-encounter" ]
      },
      "status": "finished",
      "class": {
        "system": "http://terminology.hl7.org/CodeSystem/v3-ActCode",
        "code": "AMB",
        "display": "ambulatory"
      },
      "type": [ {
        "coding": [ {
          "system": "http://snomed.info/sct",
          "code": "32485007",
          "display": "Hospital admission (procedure)"
        } ]
      } ],
      "subject": {
        "reference": "Patient/8a395e33-8019-4ffe-8e40-7df6dff818b0"
      },
      "period": {
        "start": "2025-12-31T23:59:59.000+00:00",
        "end": "2026-01-01T01:00:00.000+00:00"
      }
    },
    "request": {
      "method": "PUT",
      "url": "Encounter/ad4a2982-0de3-4137-96d1-d45fe3a13d6e"
    }
  }, {
    "fullUrl": "https://madie.cms.gov/MeasureReport/c8691218-e97a-4ed4-84a7-f64d7225d09a",
    "resource": {
      "resourceType": "MeasureReport",
      "id": "c8691218-e97a-4ed4-84a7-f64d7225d09a",
      "meta": {
        "profile": [ "http://hl7.org/fhir/us/cqfmeasures/StructureDefinition/test-case-cqfm" ]
      },
      "contained": [ {
        "resourceType": "Parameters",
        "id": "4cd06033-ca2c-4fe4-8845-bb39b0814a2a-parameters",
        "parameter": [ {
          "name": "subject",
          "valueString": "8a395e33-8019-4ffe-8e40-7df6dff818b0"
        } ]
      } ],
      "extension": [ {
        "url": "http://hl7.org/fhir/StructureDefinition/cqf-inputParameters",
        "valueReference": {
          "reference": "#4cd06033-ca2c-4fe4-8845-bb39b0814a2a-parameters"
        }
      }, {
        "url": "http://hl7.org/fhir/us/cqfmeasures/StructureDefinition/cqfm-testCaseDescription",
        "valueMarkdown": "Inpatient encounter no hospice discharge"
      } ],
      "modifierExtension": [ {
        "url": "http://hl7.org/fhir/us/cqfmeasures/StructureDefinition/cqfm-isTestCase",
        "valueBoolean": true
      } ],
      "status": "complete",
      "type": "individual",
      "measure": "https://madie.cms.gov/Measure/CMS136FHIRChildADHDMedFollowUp",
      "period": {
        "start": "2026-01-01",
        "end": "2026-12-31"
      },
      "group": [ {
        "id": "Group_1",
        "population": [ {
          "id": "InitialPopulation_1",
          "code": {
            "coding": [ {
              "system": "http://terminology.hl7.org/CodeSystem/measure-population",
              "code": "initial-population",
              "display": "Initial Population"
            } ]
          },
          "count": 1
        }, {
          "id": "Denominator_1",
          "code": {
            "coding": [ {
              "system": "http://terminology.hl7.org/CodeSystem/measure-population",
              "code": "denominator",
              "display": "Denominator"
            } ]
          },
          "count": 1
        }, {
          "id": "DenominatorExclusion_1",
          "code": {
            "coding": [ {
              "system": "http://terminology.hl7.org/CodeSystem/measure-population",
              "code": "denominator-exclusion",
              "display": "Denominator Exclusion"
            } ]
          },
          "count": 0
        }, {
          "id": "Numerator_1",
          "code": {
            "coding": [ {
              "system": "http://terminology.hl7.org/CodeSystem/measure-population",
              "code": "numerator",
              "display": "Numerator"
            } ]
          },
          "count": 0
        } ],
        "measureScore": {
          "value": 1.0
        }
      }, {
        "id": "Group_2",
        "population": [ {
          "id": "InitialPopulation_2",
          "code": {
            "coding": [ {
              "system": "http://terminology.hl7.org/CodeSystem/measure-population",
              "code": "initial-population",
              "display": "Initial Population"
            } ]
          },
          "count": 0
        }, {
          "id": "Denominator_2",
          "code": {
            "coding": [ {
              "system": "http://terminology.hl7.org/CodeSystem/measure-population",
              "code": "denominator",
              "display": "Denominator"
            } ]
          },
          "count": 0
        }, {
          "id": "DenominatorExclusion_2",
          "code": {
            "coding": [ {
              "system": "http://terminology.hl7.org/CodeSystem/measure-population",
              "code": "denominator-exclusion",
              "display": "Denominator Exclusion"
            } ]
          },
          "count": 0
        }, {
          "id": "Numerator_2",
          "code": {
            "coding": [ {
              "system": "http://terminology.hl7.org/CodeSystem/measure-population",
              "code": "numerator",
              "display": "Numerator"
            } ]
          },
          "count": 0
        } ],
        "measureScore": {
          "value": 1.0
        }
      } ],
      "evaluatedResource": [ {
        "reference": "Patient/8a395e33-8019-4ffe-8e40-7df6dff818b0"
      }, {
        "reference": "Encounter/441806b1-6cff-41f6-a534-6a116cdcddcd"
      }, {
        "reference": "MedicationRequest/cf569701-200c-451b-b79c-d0e1950fcf78"
      }, {
        "reference": "Encounter/ad4a2982-0de3-4137-96d1-d45fe3a13d6e"
      } ]
    },
    "request": {
      "method": "PUT",
      "url": "MeasureReport/c8691218-e97a-4ed4-84a7-f64d7225d09a"
    }
  } ]
}