{
  "resourceType": "Bundle",
  "id": "60f82c2f98086b570510e2ad",
  "type": "transaction",
  "entry": [ {
    "fullUrl": "https://madie.cms.gov/Patient/9843e92a-751f-4b3c-86b8-50397a64c8fd",
    "resource": {
      "resourceType": "Patient",
      "id": "9843e92a-751f-4b3c-86b8-50397a64c8fd",
      "meta": {
        "profile": [ "http://hl7.org/fhir/us/qicore/StructureDefinition/qicore-patient" ]
      },
      "text": {
        "status": "generated",
        "div": "<div xmlns=\"http://www.w3.org/1999/xhtml\"><div class=\"hapiHeaderText\">INRDayOfObs_ED&lt;1hrDayOfObs&lt;1hrDayAftBFEncDayAft <b>DENEXCEPASS </b></div><table class=\"hapiPropertyTable\"><tbody><tr><td>Identifier</td><td>e43c076b9afcb907f634df4ae6afd4d155fdd8ea59212e07cc71af3a9ba2e49c</td></tr><tr><td>Date of birth</td><td><span>26 September 1975</span></td></tr></tbody></table></div>"
      },
      "extension": [ {
        "url": "http://hl7.org/fhir/us/core/StructureDefinition/us-core-race",
        "extension": [ {
          "url": "ombCategory",
          "valueCoding": {
            "system": "urn:oid:2.16.840.1.113883.6.238",
            "code": "2054-5",
            "display": "Black or African American",
            "userSelected": true
          }
        }, {
          "url": "text",
          "valueString": "Black or African American"
        } ]
      }, {
        "url": "http://hl7.org/fhir/us/core/StructureDefinition/us-core-ethnicity",
        "extension": [ {
          "url": "ombCategory",
          "valueCoding": {
            "system": "urn:oid:2.16.840.1.113883.6.238",
            "code": "2186-5",
            "display": "Not Hispanic or Latino",
            "userSelected": true
          }
        }, {
          "url": "text",
          "valueString": "Not Hispanic or Latino"
        } ]
      } ],
      "identifier": [ {
        "type": {
          "coding": [ {
            "system": "http://terminology.hl7.org/CodeSystem/v2-0203",
            "code": "MR"
          } ]
        },
        "system": "https://bonnie-fhir.healthit.gov/",
        "value": "60f82c2f98086b570510e2ad"
      } ],
      "active": true,
      "name": [ {
        "use": "usual",
        "family": "DENEXCEPass",
        "given": [ "INRDayOfObs_ED<1hrDayOfObs<1hrDayAftBFEncDayAft" ]
      } ],
      "gender": "female",
      "birthDate": "1976-09-26"
    },
    "request": {
      "method": "PUT",
      "url": "Patient/9843e92a-751f-4b3c-86b8-50397a64c8fd"
    }
  }, {
    "fullUrl": "https://madie.cms.gov/Encounter/1f9d302a-c1f8-4dc6-8436-798dde3767ed",
    "resource": {
      "resourceType": "Encounter",
      "id": "1f9d302a-c1f8-4dc6-8436-798dde3767ed",
      "meta": {
        "profile": [ "http://hl7.org/fhir/us/qicore/StructureDefinition/qicore-encounter" ]
      },
      "status": "finished",
      "class": {
        "system": "http://terminology.hl7.org/CodeSystem/v3-ActCode",
        "code": "EMER",
        "display": "emergency",
        "userSelected": true
      },
      "type": [ {
        "coding": [ {
          "system": "http://snomed.info/sct",
          "code": "4525004"
        } ]
      } ],
      "subject": {
        "reference": "Patient/9843e92a-751f-4b3c-86b8-50397a64c8fd"
      },
      "period": {
        "start": "2026-10-10T06:15:00.000+00:00",
        "end": "2026-10-10T23:59:00.000+00:00"
      },
      "length": {
        "value": 0,
        "unit": "days"
      }
    },
    "request": {
      "method": "PUT",
      "url": "Encounter/1f9d302a-c1f8-4dc6-8436-798dde3767ed"
    }
  }, {
    "fullUrl": "https://madie.cms.gov/Encounter/0b28519f-de9e-4d0e-a32a-41f60bf02d3c",
    "resource": {
      "resourceType": "Encounter",
      "id": "0b28519f-de9e-4d0e-a32a-41f60bf02d3c",
      "meta": {
        "profile": [ "http://hl7.org/fhir/us/qicore/StructureDefinition/qicore-encounter" ]
      },
      "status": "finished",
      "class": {
        "system": "http://terminology.hl7.org/CodeSystem/v3-ActCode",
        "code": "OBSENC",
        "display": "observation encounter",
        "userSelected": true
      },
      "type": [ {
        "coding": [ {
          "system": "http://snomed.info/sct",
          "code": "448851000124103"
        } ]
      } ],
      "subject": {
        "reference": "Patient/9843e92a-751f-4b3c-86b8-50397a64c8fd"
      },
      "period": {
        "start": "2026-10-11T00:00:00.000+00:00",
        "end": "2026-10-11T00:59:00.000+00:00"
      },
      "length": {
        "value": 0,
        "unit": "days"
      }
    },
    "request": {
      "method": "PUT",
      "url": "Encounter/0b28519f-de9e-4d0e-a32a-41f60bf02d3c"
    }
  }, {
    "fullUrl": "https://madie.cms.gov/Encounter/66d26bc5-87a7-42d0-bed1-73d0c072b570",
    "resource": {
      "resourceType": "Encounter",
      "id": "66d26bc5-87a7-42d0-bed1-73d0c072b570",
      "meta": {
        "profile": [ "http://hl7.org/fhir/us/qicore/StructureDefinition/qicore-encounter" ]
      },
      "status": "finished",
      "class": {
        "system": "http://terminology.hl7.org/CodeSystem/v3-ActCode",
        "code": "IMP",
        "display": "inpatient encounter",
        "userSelected": true
      },
      "type": [ {
        "coding": [ {
          "system": "http://snomed.info/sct",
          "code": "32485007"
        } ]
      } ],
      "subject": {
        "reference": "Patient/9843e92a-751f-4b3c-86b8-50397a64c8fd"
      },
      "period": {
        "start": "2026-10-11T01:00:00.000+00:00",
        "end": "2026-10-15T11:30:00.000+00:00"
      },
      "length": {
        "value": 4,
        "unit": "days"
      },
      "reasonReference": [ {
        "reference": "Condition/689ea5e1-4df5-45e1-87a3-2d4e852938cb"
      } ]
    },
    "request": {
      "method": "PUT",
      "url": "Encounter/66d26bc5-87a7-42d0-bed1-73d0c072b570"
    }
  }, {
    "fullUrl": "https://madie.cms.gov/claim/5ca62962b8484628b8de1ec5",
    "resource": {
      "resourceType": "Claim",
      "id": "5ca62962b8484628b8de1ec5",
      "meta": {
        "profile": [ "http://hl7.org/fhir/us/qicore/StructureDefinition/qicore-claim" ]
      },
      "status": "active",
      "type": {
        "coding": [ {
          "system": "http://terminology.hl7.org/CodeSystem/claim-type",
          "code": "institutional"
        } ]
      },
      "use": "claim",
      "patient": {
        "reference": "Patient/d170a0a8-b5ad-4303-b6df-e304dd5f92ad"
      },
      "created": "2026-12-01",
      "provider": {
        "reference": "Practitioner/practitioner-123456"
      },
      "priority": {
        "coding": [ {
          "system": "http://terminology.hl7.org/CodeSystem/processpriority",
          "code": "normal"
        } ]
      },
      "diagnosis": [ {
        "sequence": 1,
        "diagnosisCodeableConcept": {
          "coding": [ {
            "system": "http://hl7.org/fhir/sid/icd-10-cm",
            "code": "I63.00"
          } ]
        },
        "type": [ {
          "coding": [ {
            "system": "http://terminology.hl7.org/CodeSystem/ex-diagnosistype",
            "code": "principal"
          } ]
        } ]
      } ],
      "insurance": [ {
        "sequence": 1,
        "focal": true,
        "coverage": {
          "reference": "Coverage/5fa041661c76ba66d9959367"
        }
      } ],
      "item": [ {
        "sequence": 1,
        "diagnosisSequence": [ 1 ],
        "productOrService": {
          "coding": [ {
            "system": "http://terminology.hl7.org/CodeSystem/ex-USCLS",
            "code": "99555"
          } ]
        },
        "encounter": [ {
          "reference": "Encounter/66d26bc5-87a7-42d0-bed1-73d0c072b570"
        } ]
      } ]
    },
    "request": {
      "method": "PUT",
      "url": "Claim/5ca62962b8484628b8de1ec5"
    }
  }, {
    "fullUrl": "https://madie.cms.gov/Observation/c7e80721-0e04-4e65-a6e1-9cb55ffc1319",
    "resource": {
      "resourceType": "Observation",
      "id": "c7e80721-0e04-4e65-a6e1-9cb55ffc1319",
      "meta": {
        "profile": [ "http://hl7.org/fhir/us/qicore/StructureDefinition/qicore-observation-lab" ]
      },
      "status": "final",
      "category": [ {
        "coding": [ {
          "system": "http://terminology.hl7.org/CodeSystem/observation-category",
          "code": "laboratory",
          "display": "Laboratory"
        } ]
      } ],
      "code": {
        "coding": [ {
          "system": "http://loinc.org",
          "code": "34714-6"
        } ]
      },
      "subject": {
        "reference": "Patient/9843e92a-751f-4b3c-86b8-50397a64c8fd"
      },
      "effectivePeriod": {
        "start": "2026-10-11T08:00:00.000+00:00"
      },
      "issued": "2026-10-11T00:01:00.000+00:00",
      "valueQuantity": {
        "value": 3.6
      }
    },
    "request": {
      "method": "PUT",
      "url": "Observation/c7e80721-0e04-4e65-a6e1-9cb55ffc1319"
    }
  }, {
    "fullUrl": "https://madie.cms.gov/Coverage/c955b65f-8cb7-4eeb-8509-301030576dd1",
    "resource": {
      "resourceType": "Coverage",
      "id": "c955b65f-8cb7-4eeb-8509-301030576dd1",
      "status": "active",
      "subscriberId": "523435",
      "beneficiary": {
        "reference": "Patient/9843e92a-751f-4b3c-86b8-50397a64c8fd"
      },
      "relationship": {
        "coding": [ {
          "system": "http://terminology.hl7.org/CodeSystem/subscriber-relationship",
          "code": "self"
        } ]
      },
      "period": {
        "start": "1976-09-26T08:00:00.000+00:00"
      },
      "payor": [ {
        "reference": "Organization/4b0b2ec2-bdde-4ab6-853b-36ca5bc0e4e3"
      } ]
    },
    "request": {
      "method": "PUT",
      "url": "Coverage/c955b65f-8cb7-4eeb-8509-301030576dd1"
    }
  }, {
    "fullUrl": "https://madie.cms.gov/Condition/689ea5e1-4df5-45e1-87a3-2d4e852938cb",
    "resource": {
      "resourceType": "Condition",
      "id": "689ea5e1-4df5-45e1-87a3-2d4e852938cb",
      "meta": {
        "profile": [ "http://hl7.org/fhir/us/qicore/StructureDefinition/qicore-condition-encounter-diagnosis" ]
      },
      "clinicalStatus": {
        "coding": [ {
          "system": "http://terminology.hl7.org/CodeSystem/condition-clinical",
          "code": "active"
        } ]
      },
      "verificationStatus": {
        "coding": [ {
          "system": "http://terminology.hl7.org/CodeSystem/condition-ver-status",
          "code": "confirmed"
        } ]
      },
      "category": [ {
        "coding": [ {
          "system": "http://terminology.hl7.org/CodeSystem/condition-category",
          "code": "encounter-diagnosis",
          "display": "Encounter Diagnosis"
        } ]
      } ],
      "code": {
        "coding": [ {
          "system": "http://snomed.info/sct",
          "version": "2020-09",
          "code": "111297002",
          "display": "Nonparalytic stroke (disorder)",
          "userSelected": true
        } ]
      },
      "subject": {
        "reference": "Patient/9843e92a-751f-4b3c-86b8-50397a64c8fd"
      },
      "recordedDate": "2026-08-06T08:00:00.000+00:00"
    },
    "request": {
      "method": "PUT",
      "url": "Condition/689ea5e1-4df5-45e1-87a3-2d4e852938cb"
    }
  }, {
    "fullUrl": "https://madie.cms.gov/Organization/4b0b2ec2-bdde-4ab6-853b-36ca5bc0e4e3",
    "resource": {
      "resourceType": "Organization",
      "id": "4b0b2ec2-bdde-4ab6-853b-36ca5bc0e4e3",
      "meta": {
        "profile": [ "http://hl7.org/fhir/us/qicore/StructureDefinition/qicore-organization" ]
      },
      "identifier": [ {
        "use": "temp",
        "system": "urn:oid:2.16.840.1.113883.4.4",
        "value": "21-3259825"
      } ],
      "active": true,
      "type": [ {
        "coding": [ {
          "system": "http://terminology.hl7.org/CodeSystem/organization-type",
          "code": "pay",
          "display": "Payer"
        } ]
      } ],
      "name": "Blue Cross Blue Shield of Texas",
      "telecom": [ {
        "system": "phone",
        "value": "(+1) 972-766-6900"
      } ],
      "address": [ {
        "use": "billing",
        "type": "postal",
        "line": [ "P.O. Box 660044" ],
        "city": "Dallas",
        "state": "TX",
        "postalCode": "75266-0044",
        "country": "USA"
      } ]
    },
    "request": {
      "method": "PUT",
      "url": "Organization/4b0b2ec2-bdde-4ab6-853b-36ca5bc0e4e3"
    }
  }, {
    "fullUrl": "https://madie.cms.gov/MeasureReport/9c1cb639-c060-4009-8ccc-f3078e8d831a",
    "resource": {
      "resourceType": "MeasureReport",
      "id": "9c1cb639-c060-4009-8ccc-f3078e8d831a",
      "meta": {
        "profile": [ "http://hl7.org/fhir/us/cqfmeasures/StructureDefinition/test-case-cqfm" ]
      },
      "contained": [ {
        "resourceType": "Parameters",
        "id": "a7ed7f4b-1c99-4b34-95ef-97a49d7d887f-parameters",
        "parameter": [ {
          "name": "subject",
          "valueString": "9843e92a-751f-4b3c-86b8-50397a64c8fd"
        } ]
      } ],
      "extension": [ {
        "url": "http://hl7.org/fhir/StructureDefinition/cqf-inputParameters",
        "valueReference": {
          "reference": "#a7ed7f4b-1c99-4b34-95ef-97a49d7d887f-parameters"
        }
      }, {
        "url": "http://hl7.org/fhir/us/cqfmeasures/StructureDefinition/cqfm-testCaseDescription",
        "valueMarkdown": "Patient receives INR day of Obs, ED ends 1 min before Obs start at midnight, Obs ends 1 min before IP start. Testing Day of operator with HospitalizationWithObservation function.\n"
      } ],
      "modifierExtension": [ {
        "url": "http://hl7.org/fhir/us/cqfmeasures/StructureDefinition/cqfm-isTestCase",
        "valueBoolean": true
      } ],
      "status": "complete",
      "type": "individual",
      "measure": "https://madie.cms.gov/Measure/CMS72FHIRSTKAntithromboticDay2",
      "period": {
        "start": "2026-01-01",
        "end": "2026-12-31"
      },
      "group": [ {
        "id": "Group_1",
        "population": [ {
          "id": "InitialPopulation_1",
          "code": {
            "coding": [ {
              "system": "http://terminology.hl7.org/CodeSystem/measure-population",
              "code": "initial-population",
              "display": "Initial Population"
            } ]
          },
          "count": 1
        }, {
          "id": "Denominator_1",
          "code": {
            "coding": [ {
              "system": "http://terminology.hl7.org/CodeSystem/measure-population",
              "code": "denominator",
              "display": "Denominator"
            } ]
          },
          "count": 1
        }, {
          "id": "DenominatorExclusion_1",
          "code": {
            "coding": [ {
              "system": "http://terminology.hl7.org/CodeSystem/measure-population",
              "code": "denominator-exclusion",
              "display": "Denominator Exclusion"
            } ]
          },
          "count": 0
        }, {
          "id": "Numerator_1",
          "code": {
            "coding": [ {
              "system": "http://terminology.hl7.org/CodeSystem/measure-population",
              "code": "numerator",
              "display": "Numerator"
            } ]
          },
          "count": 0
        }, {
          "id": "DenominatorException_1",
          "code": {
            "coding": [ {
              "system": "http://terminology.hl7.org/CodeSystem/measure-population",
              "code": "denominator-exception",
              "display": "Denominator Exception"
            } ]
          },
          "count": 1
        } ],
        "measureScore": {
          "value": 0.0
        }
      } ],
      "evaluatedResource": [ {
        "reference": "Patient/9843e92a-751f-4b3c-86b8-50397a64c8fd"
      }, {
        "reference": "Encounter/1f9d302a-c1f8-4dc6-8436-798dde3767ed"
      }, {
        "reference": "Encounter/0b28519f-de9e-4d0e-a32a-41f60bf02d3c"
      }, {
        "reference": "Encounter/66d26bc5-87a7-42d0-bed1-73d0c072b570"
      }, {
        "reference": "Claim/5ca62962b8484628b8de1ec5"
      }, {
        "reference": "Observation/c7e80721-0e04-4e65-a6e1-9cb55ffc1319"
      }, {
        "reference": "Coverage/c955b65f-8cb7-4eeb-8509-301030576dd1"
      }, {
        "reference": "Condition/689ea5e1-4df5-45e1-87a3-2d4e852938cb"
      }, {
        "reference": "Organization/4b0b2ec2-bdde-4ab6-853b-36ca5bc0e4e3"
      } ]
    },
    "request": {
      "method": "PUT",
      "url": "MeasureReport/9c1cb639-c060-4009-8ccc-f3078e8d831a"
    }
  } ]
}