{
  "resourceType": "Bundle",
  "id": "657cbdc9b4f1f0343662347a",
  "type": "transaction",
  "entry": [ {
    "fullUrl": "https://madie.cms.gov/Patient/40b66b90-4811-4f6f-8eec-c46d1a5e6eeb",
    "resource": {
      "resourceType": "Patient",
      "id": "40b66b90-4811-4f6f-8eec-c46d1a5e6eeb",
      "meta": {
        "profile": [ "http://hl7.org/fhir/us/qicore/StructureDefinition/qicore-patient" ]
      },
      "extension": [ {
        "url": "http://hl7.org/fhir/us/core/StructureDefinition/us-core-race",
        "extension": [ {
          "url": "ombCategory",
          "valueCoding": {
            "system": "urn:oid:2.16.840.1.113883.6.238",
            "code": "2106-3",
            "display": "White",
            "userSelected": true
          }
        }, {
          "url": "text",
          "valueString": "White"
        } ]
      }, {
        "url": "http://hl7.org/fhir/us/core/StructureDefinition/us-core-ethnicity",
        "extension": [ {
          "url": "ombCategory",
          "valueCoding": {
            "system": "urn:oid:2.16.840.1.113883.6.238",
            "code": "2186-5",
            "display": "Not Hispanic or Latino",
            "userSelected": true
          }
        }, {
          "url": "text",
          "valueString": "Not Hispanic or Latino"
        } ]
      } ],
      "identifier": [ {
        "type": {
          "coding": [ {
            "system": "http://terminology.hl7.org/CodeSystem/v2-0203",
            "code": "MR"
          } ]
        },
        "system": "https://bonnie-fhir.healthit.gov/",
        "value": "657cbdc9b4f1f0343662347a"
      } ],
      "name": [ {
        "family": "CoverageFail",
        "given": [ "MedicarePayerEndDateBeforeEnc" ]
      } ],
      "gender": "female",
      "birthDate": "2008-01-01"
    },
    "request": {
      "method": "PUT",
      "url": "Patient/40b66b90-4811-4f6f-8eec-c46d1a5e6eeb"
    }
  }, {
    "fullUrl": "https://madie.cms.gov/Encounter/f228ea86-5f40-4ce9-b27c-2e80bcd5e2f2",
    "resource": {
      "resourceType": "Encounter",
      "id": "f228ea86-5f40-4ce9-b27c-2e80bcd5e2f2",
      "meta": {
        "profile": [ "http://hl7.org/fhir/us/qicore/StructureDefinition/qicore-encounter" ]
      },
      "status": "finished",
      "class": {
        "system": "http://terminology.hl7.org/CodeSystem/v3-ActCode",
        "code": "ACUTE",
        "display": "inpatient acute"
      },
      "type": [ {
        "coding": [ {
          "system": "http://snomed.info/sct",
          "version": "2024",
          "code": "32485007",
          "display": "Hospital admission (procedure)",
          "userSelected": true
        } ]
      } ],
      "subject": {
        "reference": "Patient/40b66b90-4811-4f6f-8eec-c46d1a5e6eeb"
      },
      "period": {
        "start": "2026-01-01T08:00:00.000+00:00",
        "end": "2026-01-02T09:15:00.000+00:00"
      }
    },
    "request": {
      "method": "PUT",
      "url": "Encounter/f228ea86-5f40-4ce9-b27c-2e80bcd5e2f2"
    }
  }, {
    "fullUrl": "https://madie.cms.gov/Location/0a174f21-33b6-478c-879d-5ea9203ac3c0",
    "resource": {
      "resourceType": "Location",
      "id": "0a174f21-33b6-478c-879d-5ea9203ac3c0",
      "meta": {
        "profile": [ "http://hl7.org/fhir/us/qicore/StructureDefinition/qicore-location" ]
      },
      "identifier": [ {
        "use": "usual",
        "system": "http://exampleoflocation.com",
        "value": "B1-S.F2"
      } ],
      "name": "Medical Surgical East, first floor",
      "type": [ {
        "coding": [ {
          "system": "https://www.cdc.gov/nhsn/cdaportal/terminology/codesystem/hsloc.html",
          "code": "1028-0",
          "display": "Medical Cardiac Critical Care",
          "userSelected": true
        } ]
      } ]
    },
    "request": {
      "method": "PUT",
      "url": "Location/0a174f21-33b6-478c-879d-5ea9203ac3c0"
    }
  }, {
    "fullUrl": "https://madie.cms.gov/MedicationRequest/4b9d33db-dc63-431f-8c2c-45682e743908",
    "resource": {
      "resourceType": "MedicationRequest",
      "id": "4b9d33db-dc63-431f-8c2c-45682e743908",
      "meta": {
        "profile": [ "http://hl7.org/fhir/us/qicore/StructureDefinition/qicore-medicationrequest" ]
      },
      "status": "completed",
      "intent": "order",
      "medicationCodeableConcept": {
        "coding": [ {
          "system": "http://www.nlm.nih.gov/research/umls/rxnorm",
          "version": "06052023",
          "code": "1007184"
        } ]
      },
      "subject": {
        "reference": "Patient/12fda733-0b5d-4f3d-93b2-59c35ba85898"
      },
      "authoredOn": "2026-01-01T08:15:00.000+00:00",
      "requester": {
        "reference": "Practitioner/33d87640-6b2a-40b0-ab11-542478a88d5a"
      },
      "dosageInstruction": [ {
        "timing": {
          "repeat": {
            "boundsPeriod": {
              "start": "2025-01-01T08:15:00.000+00:00"
            }
          }
        }
      } ]
    },
    "request": {
      "method": "PUT",
      "url": "MedicationRequest/4b9d33db-dc63-431f-8c2c-45682e743908"
    }
  }, {
    "fullUrl": "https://madie.cms.gov/Coverage/4eb2659a-2d5b-482a-b4fd-d0b6556b7491",
    "resource": {
      "resourceType": "Coverage",
      "id": "4eb2659a-2d5b-482a-b4fd-d0b6556b7491",
      "meta": {
        "profile": [ "http://hl7.org/fhir/us/qicore/StructureDefinition/qicore-coverage" ]
      },
      "identifier": [ {
        "system": "http://benefitsinc.com/certificate",
        "value": "12345"
      } ],
      "status": "active",
      "type": {
        "coding": [ {
          "system": "https://nahdo.org/sopt",
          "version": "1.0.1",
          "code": "1",
          "display": "MEDICARE",
          "userSelected": true
        } ]
      },
      "subscriberId": "AB9876",
      "beneficiary": {
        "reference": "Patient/40b66b90-4811-4f6f-8eec-c46d1a5e6eeb"
      },
      "relationship": {
        "coding": [ {
          "system": "http://terminology.hl7.org/CodeSystem/subscriber-relationship",
          "code": "self"
        } ]
      },
      "period": {
        "start": "2025-01-01T00:00:00.000+00:00",
        "end": "2025-12-31T00:00:00.000+00:00"
      },
      "payor": [ {
        "reference": "Organization/68390d4f-1428-4664-a055-98c84065b823"
      } ]
    },
    "request": {
      "method": "PUT",
      "url": "Coverage/4eb2659a-2d5b-482a-b4fd-d0b6556b7491"
    }
  }, {
    "fullUrl": "https://madie.cms.gov/Organization/68390d4f-1428-4664-a055-98c84065b823",
    "resource": {
      "resourceType": "Organization",
      "id": "68390d4f-1428-4664-a055-98c84065b823",
      "meta": {
        "profile": [ "http://hl7.org/fhir/us/qicore/StructureDefinition/qicore-organization" ]
      },
      "identifier": [ {
        "use": "temp",
        "system": "urn:oid:2.16.840.1.113883.4.4",
        "value": "21-3259825"
      } ],
      "active": true,
      "type": [ {
        "coding": [ {
          "system": "http://terminology.hl7.org/CodeSystem/organization-type",
          "code": "pay",
          "display": "Payer"
        } ]
      } ],
      "name": "Blue Cross Blue Shield of Texas",
      "telecom": [ {
        "system": "phone",
        "value": "(+1) 972-766-6900"
      } ],
      "address": [ {
        "use": "billing",
        "type": "postal",
        "line": [ "P.O. Box 660044" ],
        "city": "Dallas",
        "state": "TX",
        "postalCode": "75266-0044",
        "country": "USA"
      } ]
    },
    "request": {
      "method": "PUT",
      "url": "Organization/68390d4f-1428-4664-a055-98c84065b823"
    }
  }, {
    "fullUrl": "https://madie.cms.gov/Practitioner/2bc159e9-b3d7-42b0-b2e5-b726a2a3fe4a",
    "resource": {
      "resourceType": "Practitioner",
      "id": "2bc159e9-b3d7-42b0-b2e5-b726a2a3fe4a",
      "meta": {
        "profile": [ "http://hl7.org/fhir/us/qicore/StructureDefinition/qicore-practitioner" ]
      },
      "identifier": [ {
        "system": "http://hl7.org/fhir/sid/us-npi",
        "value": "0723660813"
      } ],
      "name": [ {
        "family": "Evil",
        "prefix": [ "Dr" ]
      } ]
    },
    "request": {
      "method": "PUT",
      "url": "Practitioner/2bc159e9-b3d7-42b0-b2e5-b726a2a3fe4a"
    }
  }, {
    "fullUrl": "https://madie.cms.gov/MeasureReport/6e04a494-68fd-4847-943a-3eea403c5674",
    "resource": {
      "resourceType": "MeasureReport",
      "id": "6e04a494-68fd-4847-943a-3eea403c5674",
      "meta": {
        "profile": [ "http://hl7.org/fhir/us/cqfmeasures/StructureDefinition/test-case-cqfm" ]
      },
      "contained": [ {
        "resourceType": "Parameters",
        "id": "250a9bc4-e26e-4fb4-9008-1fde1d19dd44-parameters",
        "parameter": [ {
          "name": "subject",
          "valueString": "40b66b90-4811-4f6f-8eec-c46d1a5e6eeb"
        } ]
      } ],
      "extension": [ {
        "url": "http://hl7.org/fhir/StructureDefinition/cqf-inputParameters",
        "valueReference": {
          "reference": "#250a9bc4-e26e-4fb4-9008-1fde1d19dd44-parameters"
        }
      }, {
        "url": "http://hl7.org/fhir/us/cqfmeasures/StructureDefinition/cqfm-testCaseDescription",
        "valueMarkdown": "Inpatient encounter on medsurg floor, first day of MP with an order for diabetic medication with Medicare coverage starting and ending day before inpatient encounter. "
      } ],
      "modifierExtension": [ {
        "url": "http://hl7.org/fhir/us/cqfmeasures/StructureDefinition/cqfm-isTestCase",
        "valueBoolean": true
      } ],
      "status": "complete",
      "type": "individual",
      "measure": "https://madie.cms.gov/Measure/NHSNGlycemicControlHypoglycemiaInitialPopulation",
      "period": {
        "start": "2026-01-01",
        "end": "2026-12-31"
      },
      "group": [ {
        "id": "Group_1",
        "population": [ {
          "id": "InitialPopulation_1",
          "code": {
            "coding": [ {
              "system": "http://terminology.hl7.org/CodeSystem/measure-population",
              "code": "initial-population",
              "display": "Initial Population"
            } ]
          },
          "count": 1
        } ],
        "measureScore": {
          "value": 0.0
        }
      } ],
      "evaluatedResource": [ {
        "reference": "Patient/40b66b90-4811-4f6f-8eec-c46d1a5e6eeb"
      }, {
        "reference": "Encounter/f228ea86-5f40-4ce9-b27c-2e80bcd5e2f2"
      }, {
        "reference": "Location/0a174f21-33b6-478c-879d-5ea9203ac3c0"
      }, {
        "reference": "MedicationRequest/4b9d33db-dc63-431f-8c2c-45682e743908"
      }, {
        "reference": "Coverage/4eb2659a-2d5b-482a-b4fd-d0b6556b7491"
      }, {
        "reference": "Organization/68390d4f-1428-4664-a055-98c84065b823"
      }, {
        "reference": "Practitioner/2bc159e9-b3d7-42b0-b2e5-b726a2a3fe4a"
      } ]
    },
    "request": {
      "method": "PUT",
      "url": "MeasureReport/6e04a494-68fd-4847-943a-3eea403c5674"
    }
  } ]
}