{
  "resourceType": "Bundle",
  "id": "63233350414ba67d4e1d1c2f",
  "type": "transaction",
  "entry": [ {
    "fullUrl": "https://madie.cms.gov/Patient/cdb80ca8-b110-436d-83e8-b339ebc09a44",
    "resource": {
      "resourceType": "Patient",
      "id": "cdb80ca8-b110-436d-83e8-b339ebc09a44",
      "meta": {
        "profile": [ "http://hl7.org/fhir/us/qicore/StructureDefinition/qicore-patient" ]
      },
      "extension": [ {
        "url": "http://hl7.org/fhir/us/core/StructureDefinition/us-core-race",
        "extension": [ {
          "url": "ombCategory",
          "valueCoding": {
            "system": "urn:oid:2.16.840.1.113883.6.238",
            "code": "2028-9",
            "display": "Asian",
            "userSelected": true
          }
        }, {
          "url": "text",
          "valueString": "Asian"
        }, {
          "url": "detailed",
          "valueCoding": {
            "system": "urn:oid:2.16.840.1.113883.6.238",
            "code": "1653-5",
            "display": "Tohono O'Odham"
          }
        } ]
      }, {
        "url": "http://hl7.org/fhir/us/core/StructureDefinition/us-core-ethnicity",
        "extension": [ {
          "url": "ombCategory",
          "valueCoding": {
            "system": "urn:oid:2.16.840.1.113883.6.238",
            "code": "2186-5",
            "display": "Not Hispanic or Latino",
            "userSelected": true
          }
        }, {
          "url": "text",
          "valueString": "Not Hispanic or Latino"
        }, {
          "url": "detailed",
          "valueCoding": {
            "system": "urn:oid:2.16.840.1.113883.6.238",
            "code": "2153-5",
            "display": "Mexican American Indian"
          }
        } ]
      } ],
      "identifier": [ {
        "system": "http://hospital.smarthealthit.org",
        "value": "999999999"
      } ],
      "name": [ {
        "family": "DENEXPass",
        "given": [ "SickleDisease" ]
      } ],
      "gender": "female",
      "birthDate": "1944-02-01"
    },
    "request": {
      "method": "PUT",
      "url": "Patient/cdb80ca8-b110-436d-83e8-b339ebc09a44"
    }
  }, {
    "fullUrl": "https://madie.cms.gov/Encounter/188b221f-f798-44ad-9c18-0d62a456e535",
    "resource": {
      "resourceType": "Encounter",
      "id": "188b221f-f798-44ad-9c18-0d62a456e535",
      "meta": {
        "profile": [ "http://hl7.org/fhir/us/qicore/StructureDefinition/qicore-encounter" ]
      },
      "status": "finished",
      "class": {
        "system": "http://terminology.hl7.org/CodeSystem/v3-ActCode",
        "code": "IMP",
        "display": "inpatient encounter"
      },
      "type": [ {
        "coding": [ {
          "system": "http://snomed.info/sct",
          "code": "183452005",
          "display": "Emergency hospital admission (procedure)",
          "userSelected": true
        } ]
      } ],
      "subject": {
        "reference": "Patient/cdb80ca8-b110-436d-83e8-b339ebc09a44"
      },
      "period": {
        "start": "2026-01-01T11:45:00.000+00:00",
        "end": "2026-01-03T11:59:00.000+00:00"
      }
    },
    "request": {
      "method": "PUT",
      "url": "Encounter/188b221f-f798-44ad-9c18-0d62a456e535"
    }
  }, {
    "fullUrl": "https://madie.cms.gov/MedicationRequest/0f156576-4625-4e70-9331-87e520133636",
    "resource": {
      "resourceType": "MedicationRequest",
      "id": "0f156576-4625-4e70-9331-87e520133636",
      "meta": {
        "profile": [ "http://hl7.org/fhir/us/qicore/StructureDefinition/qicore-medicationrequest" ]
      },
      "status": "completed",
      "intent": "order",
      "category": [ {
        "coding": [ {
          "system": "http://terminology.hl7.org/CodeSystem/medicationrequest-category",
          "code": "discharge",
          "display": "Discharge",
          "userSelected": true
        } ]
      } ],
      "doNotPerform": false,
      "medicationCodeableConcept": {
        "coding": [ {
          "system": "http://www.nlm.nih.gov/research/umls/rxnorm",
          "code": "2103192",
          "display": "sufentanil 0.03 MG Sublingual Tablet",
          "userSelected": true
        } ]
      },
      "subject": {
        "reference": "Patient/cdb80ca8-b110-436d-83e8-b339ebc09a44"
      },
      "authoredOn": "2026-01-03T11:59:00.000+00:00",
      "requester": {
        "reference": "Practitioner/8943cb5d-fb64-4ae2-8049-a2ff0f96adda"
      }
    },
    "request": {
      "method": "PUT",
      "url": "MedicationRequest/0f156576-4625-4e70-9331-87e520133636"
    }
  }, {
    "fullUrl": "https://madie.cms.gov/Practitioner/8943cb5d-fb64-4ae2-8049-a2ff0f96adda",
    "resource": {
      "resourceType": "Practitioner",
      "id": "8943cb5d-fb64-4ae2-8049-a2ff0f96adda",
      "meta": {
        "profile": [ "http://hl7.org/fhir/us/qicore/StructureDefinition/qicore-practitioner" ]
      },
      "identifier": [ {
        "system": "http://hl7.org/fhir/sid/us-npi",
        "value": "9999999896"
      } ],
      "active": true,
      "name": [ {
        "family": "Ramires",
        "given": [ "Alma" ],
        "prefix": [ "Dr" ]
      } ],
      "address": [ {
        "use": "home",
        "line": [ "534 Erewhon St" ],
        "city": "Netherville",
        "state": "IN",
        "postalCode": "46131"
      } ],
      "qualification": [ {
        "identifier": [ {
          "system": "http://goodhealth.org/prIdentifier",
          "value": "12345"
        } ],
        "code": {
          "coding": [ {
            "system": "http://terminology.hl7.org/CodeSystem/v2-0360|2.7",
            "code": "BS",
            "display": "Bachelor of Science"
          } ],
          "text": "Bachelor of Science"
        },
        "period": {
          "start": "1995"
        },
        "issuer": {
          "display": "Example University"
        }
      } ]
    },
    "request": {
      "method": "PUT",
      "url": "Practitioner/8943cb5d-fb64-4ae2-8049-a2ff0f96adda"
    }
  }, {
    "fullUrl": "https://madie.cms.gov/Condition/80cfad22-85d9-43b0-b6e7-e1f4614e9257",
    "resource": {
      "resourceType": "Condition",
      "id": "80cfad22-85d9-43b0-b6e7-e1f4614e9257",
      "meta": {
        "profile": [ "http://hl7.org/fhir/us/qicore/StructureDefinition/qicore-condition-problems-health-concerns" ]
      },
      "clinicalStatus": {
        "coding": [ {
          "system": "http://terminology.hl7.org/CodeSystem/condition-clinical",
          "code": "active",
          "display": "active",
          "userSelected": true
        } ]
      },
      "verificationStatus": {
        "coding": [ {
          "system": "http://terminology.hl7.org/CodeSystem/condition-ver-status",
          "code": "confirmed",
          "display": "Confirmed",
          "userSelected": true
        } ]
      },
      "category": [ {
        "coding": [ {
          "system": "http://terminology.hl7.org/CodeSystem/condition-category",
          "code": "problem-list-item",
          "display": "Problem List Item"
        }, {
          "system": "http://snomed.info/sct",
          "code": "439401001",
          "display": "Diagnosis"
        } ]
      } ],
      "code": {
        "coding": [ {
          "system": "http://snomed.info/sct",
          "code": "417517009",
          "display": "Sickle cell-hemoglobin C disease with crisis (disorder)",
          "userSelected": true
        } ]
      },
      "subject": {
        "reference": "Patient/cdb80ca8-b110-436d-83e8-b339ebc09a44"
      },
      "onsetPeriod": {
        "start": "2025-12-31T08:00:00.000+00:00"
      }
    },
    "request": {
      "method": "PUT",
      "url": "Condition/80cfad22-85d9-43b0-b6e7-e1f4614e9257"
    }
  }, {
    "fullUrl": "https://madie.cms.gov/Coverage/caa6a89d-138d-4807-8a23-fcae99bd1b1e",
    "resource": {
      "resourceType": "Coverage",
      "id": "caa6a89d-138d-4807-8a23-fcae99bd1b1e",
      "meta": {
        "profile": [ "http://hl7.org/fhir/us/qicore/StructureDefinition/qicore-coverage" ]
      },
      "status": "active",
      "subscriberId": "523435",
      "beneficiary": {
        "reference": "Patient/cdb80ca8-b110-436d-83e8-b339ebc09a44"
      },
      "relationship": {
        "coding": [ {
          "system": "http://terminology.hl7.org/CodeSystem/subscriber-relationship",
          "code": "self"
        } ]
      },
      "payor": [ {
        "reference": "Organization/123456"
      } ]
    },
    "request": {
      "method": "PUT",
      "url": "Coverage/caa6a89d-138d-4807-8a23-fcae99bd1b1e"
    }
  }, {
    "fullUrl": "https://madie.cms.gov/Organization/d8d3bd42-e48c-41fc-97e0-f4209e809a15",
    "resource": {
      "resourceType": "Organization",
      "id": "d8d3bd42-e48c-41fc-97e0-f4209e809a15",
      "meta": {
        "profile": [ "http://hl7.org/fhir/us/qicore/StructureDefinition/qicore-organization" ]
      },
      "identifier": [ {
        "use": "temp",
        "system": "urn:oid:2.16.840.1.113883.4.4",
        "value": "21-3259825"
      } ],
      "active": true,
      "type": [ {
        "coding": [ {
          "system": "http://terminology.hl7.org/CodeSystem/organization-type",
          "code": "pay",
          "display": "Payer"
        } ]
      } ],
      "name": "Blue Cross Blue Shield of Texas",
      "telecom": [ {
        "system": "phone",
        "value": "(+1) 972-766-6900"
      } ],
      "address": [ {
        "use": "billing",
        "type": "postal",
        "line": [ "P.O. Box 660044" ],
        "city": "Dallas",
        "state": "TX",
        "postalCode": "75266-0044",
        "country": "USA"
      } ]
    },
    "request": {
      "method": "PUT",
      "url": "Organization/d8d3bd42-e48c-41fc-97e0-f4209e809a15"
    }
  }, {
    "fullUrl": "https://madie.cms.gov/MeasureReport/e373c238-2d77-4689-afad-ad914a5c6666",
    "resource": {
      "resourceType": "MeasureReport",
      "id": "e373c238-2d77-4689-afad-ad914a5c6666",
      "meta": {
        "profile": [ "http://hl7.org/fhir/us/cqfmeasures/StructureDefinition/test-case-cqfm" ]
      },
      "contained": [ {
        "resourceType": "Parameters",
        "id": "79e0900c-0115-4bb7-85d3-f900927bd6de-parameters",
        "parameter": [ {
          "name": "subject",
          "valueString": "cdb80ca8-b110-436d-83e8-b339ebc09a44"
        } ]
      } ],
      "extension": [ {
        "url": "http://hl7.org/fhir/StructureDefinition/cqf-inputParameters",
        "valueReference": {
          "reference": "#79e0900c-0115-4bb7-85d3-f900927bd6de-parameters"
        }
      }, {
        "url": "http://hl7.org/fhir/us/cqfmeasures/StructureDefinition/cqfm-testCaseDescription",
        "valueMarkdown": "Enc 1st day of MP, pt has dx of sickle cell disease with onset last day of previous year, has opioid at discharge\n\nSDE detailed included"
      } ],
      "modifierExtension": [ {
        "url": "http://hl7.org/fhir/us/cqfmeasures/StructureDefinition/cqfm-isTestCase",
        "valueBoolean": true
      } ],
      "status": "complete",
      "type": "individual",
      "measure": "https://madie.cms.gov/Measure/CMS506FHIRSafeUseofOpioids",
      "period": {
        "start": "2026-01-01",
        "end": "2026-12-31"
      },
      "group": [ {
        "id": "Group_1",
        "population": [ {
          "id": "InitialPopulation_1",
          "code": {
            "coding": [ {
              "system": "http://terminology.hl7.org/CodeSystem/measure-population",
              "code": "initial-population",
              "display": "Initial Population"
            } ]
          },
          "count": 1
        }, {
          "id": "Denominator_1",
          "code": {
            "coding": [ {
              "system": "http://terminology.hl7.org/CodeSystem/measure-population",
              "code": "denominator",
              "display": "Denominator"
            } ]
          },
          "count": 1
        }, {
          "id": "DenominatorExclusion_1",
          "code": {
            "coding": [ {
              "system": "http://terminology.hl7.org/CodeSystem/measure-population",
              "code": "denominator-exclusion",
              "display": "Denominator Exclusion"
            } ]
          },
          "count": 1
        }, {
          "id": "Numerator_1",
          "code": {
            "coding": [ {
              "system": "http://terminology.hl7.org/CodeSystem/measure-population",
              "code": "numerator",
              "display": "Numerator"
            } ]
          },
          "count": 0
        } ],
        "measureScore": {
          "value": 0.0
        }
      } ],
      "evaluatedResource": [ {
        "reference": "Patient/cdb80ca8-b110-436d-83e8-b339ebc09a44"
      }, {
        "reference": "Encounter/188b221f-f798-44ad-9c18-0d62a456e535"
      }, {
        "reference": "MedicationRequest/0f156576-4625-4e70-9331-87e520133636"
      }, {
        "reference": "Practitioner/8943cb5d-fb64-4ae2-8049-a2ff0f96adda"
      }, {
        "reference": "Condition/80cfad22-85d9-43b0-b6e7-e1f4614e9257"
      }, {
        "reference": "Coverage/caa6a89d-138d-4807-8a23-fcae99bd1b1e"
      }, {
        "reference": "Organization/d8d3bd42-e48c-41fc-97e0-f4209e809a15"
      } ]
    },
    "request": {
      "method": "PUT",
      "url": "MeasureReport/e373c238-2d77-4689-afad-ad914a5c6666"
    }
  } ]
}