{
  "resourceType": "Bundle",
  "id": "Patient-10-NumFail-StrepTest4DaysAfter",
  "type": "transaction",
  "entry": [ {
    "fullUrl": "https://madie.cms.gov/Patient/115708e8-59e4-4d92-b19a-621ccd7f1e68",
    "resource": {
      "resourceType": "Patient",
      "id": "115708e8-59e4-4d92-b19a-621ccd7f1e68",
      "meta": {
        "profile": [ "http://hl7.org/fhir/us/qicore/StructureDefinition/qicore-patient" ]
      },
      "extension": [ {
        "url": "http://hl7.org/fhir/us/core/StructureDefinition/us-core-race",
        "extension": [ {
          "url": "ombCategory",
          "valueCoding": {
            "system": "urn:oid:2.16.840.1.113883.6.238",
            "code": "2028-9",
            "display": "Asian"
          }
        }, {
          "url": "text",
          "valueString": "Asian"
        } ]
      }, {
        "url": "http://hl7.org/fhir/us/core/StructureDefinition/us-core-ethnicity",
        "extension": [ {
          "url": "ombCategory",
          "valueCoding": {
            "system": "urn:oid:2.16.840.1.113883.6.238",
            "code": "2135-2",
            "display": "Hispanic or Latino"
          }
        }, {
          "url": "text",
          "valueString": "Hispanic or Latino"
        } ]
      } ],
      "identifier": [ {
        "system": "http://hospital.smarthealthit.org",
        "value": "999999995"
      } ],
      "name": [ {
        "family": "Bertha",
        "given": [ "Betty" ]
      } ],
      "gender": "female",
      "birthDate": "2023-01-01"
    },
    "request": {
      "method": "PUT",
      "url": "Patient/115708e8-59e4-4d92-b19a-621ccd7f1e68"
    }
  }, {
    "fullUrl": "https://madie.cms.gov/Encounter/38298181-177b-48aa-ac94-347315fa6423",
    "resource": {
      "resourceType": "Encounter",
      "id": "38298181-177b-48aa-ac94-347315fa6423",
      "meta": {
        "profile": [ "http://hl7.org/fhir/us/qicore/StructureDefinition/qicore-encounter" ]
      },
      "status": "finished",
      "class": {
        "system": "http://terminology.hl7.org/CodeSystem/v3-ActCode",
        "code": "AMB",
        "display": "ambulatory"
      },
      "type": [ {
        "coding": [ {
          "system": "http://snomed.info/sct",
          "code": "185317003",
          "display": "Telephone encounter (procedure)"
        } ]
      } ],
      "subject": {
        "reference": "Patient/115708e8-59e4-4d92-b19a-621ccd7f1e68"
      },
      "period": {
        "start": "2026-01-02T00:00:00.000+00:00",
        "end": "2026-01-02T01:15:00.000+00:00"
      }
    },
    "request": {
      "method": "PUT",
      "url": "Encounter/38298181-177b-48aa-ac94-347315fa6423"
    }
  }, {
    "fullUrl": "https://madie.cms.gov/MedicationRequest/4a94f7a7-2816-4afc-b0c8-a98107994a5a",
    "resource": {
      "resourceType": "MedicationRequest",
      "id": "4a94f7a7-2816-4afc-b0c8-a98107994a5a",
      "meta": {
        "profile": [ "http://hl7.org/fhir/us/qicore/StructureDefinition/qicore-medicationrequest" ]
      },
      "status": "active",
      "intent": "order",
      "category": [ {
        "coding": [ {
          "system": "http://terminology.hl7.org/CodeSystem/medicationrequest-category",
          "code": "discharge",
          "display": "Discharge"
        } ]
      } ],
      "medicationCodeableConcept": {
        "coding": [ {
          "system": "http://www.nlm.nih.gov/research/umls/rxnorm",
          "code": "1043022",
          "display": "cefixime 100 MG Chewable Tablet",
          "userSelected": true
        } ]
      },
      "subject": {
        "reference": "Patient/115708e8-59e4-4d92-b19a-621ccd7f1e68"
      },
      "authoredOn": "2026-01-05T00:00:00.000+00:00",
      "requester": {
        "reference": "Practitioner/example"
      }
    },
    "request": {
      "method": "PUT",
      "url": "MedicationRequest/4a94f7a7-2816-4afc-b0c8-a98107994a5a"
    }
  }, {
    "fullUrl": "https://madie.cms.gov/Condition/0bea6d26-1e3e-4f60-9fe7-8a476a3ec687",
    "resource": {
      "resourceType": "Condition",
      "id": "0bea6d26-1e3e-4f60-9fe7-8a476a3ec687",
      "meta": {
        "profile": [ "http://hl7.org/fhir/us/qicore/StructureDefinition/qicore-condition-encounter-diagnosis" ]
      },
      "clinicalStatus": {
        "coding": [ {
          "system": "http://terminology.hl7.org/CodeSystem/condition-clinical",
          "code": "active"
        } ]
      },
      "category": [ {
        "coding": [ {
          "system": "http://terminology.hl7.org/CodeSystem/condition-category",
          "code": "encounter-diagnosis",
          "display": "Encounter Diagnosis"
        } ]
      } ],
      "code": {
        "coding": [ {
          "system": "http://snomed.info/sct",
          "code": "1532007",
          "display": "Viral pharyngitis (disorder)"
        } ]
      },
      "subject": {
        "reference": "Patient/115708e8-59e4-4d92-b19a-621ccd7f1e68"
      },
      "onsetDateTime": "2026-01-02T00:00:00.000+00:00"
    },
    "request": {
      "method": "PUT",
      "url": "Condition/0bea6d26-1e3e-4f60-9fe7-8a476a3ec687"
    }
  }, {
    "fullUrl": "https://madie.cms.gov/Observation/cc55abea-c7a9-4004-b391-d3569335b336",
    "resource": {
      "resourceType": "Observation",
      "id": "cc55abea-c7a9-4004-b391-d3569335b336",
      "meta": {
        "profile": [ "http://hl7.org/fhir/us/qicore/StructureDefinition/qicore-observation" ]
      },
      "status": "final",
      "category": [ {
        "coding": [ {
          "system": "http://terminology.hl7.org/CodeSystem/observation-category",
          "code": "laboratory",
          "display": "Laboratory"
        } ],
        "text": "Laboratory"
      } ],
      "code": {
        "coding": [ {
          "system": "http://loinc.org",
          "code": "17898-8",
          "display": "Bacteria identified in Throat by Aerobe culture"
        } ]
      },
      "subject": {
        "reference": "Patient/115708e8-59e4-4d92-b19a-621ccd7f1e68"
      },
      "effectiveDateTime": "2026-01-06T00:00:00.000+00:00",
      "valueString": "Positive"
    },
    "request": {
      "method": "PUT",
      "url": "Observation/cc55abea-c7a9-4004-b391-d3569335b336"
    }
  }, {
    "fullUrl": "https://madie.cms.gov/MeasureReport/068b76cb-7bc3-41b7-8649-774a6ff1334f",
    "resource": {
      "resourceType": "MeasureReport",
      "id": "068b76cb-7bc3-41b7-8649-774a6ff1334f",
      "meta": {
        "profile": [ "http://hl7.org/fhir/us/cqfmeasures/StructureDefinition/test-case-cqfm" ]
      },
      "contained": [ {
        "resourceType": "Parameters",
        "id": "a44c0953-21cc-4b68-84a3-14ef0720528e-parameters",
        "parameter": [ {
          "name": "subject",
          "valueString": "115708e8-59e4-4d92-b19a-621ccd7f1e68"
        } ]
      } ],
      "extension": [ {
        "url": "http://hl7.org/fhir/StructureDefinition/cqf-inputParameters",
        "valueReference": {
          "reference": "#a44c0953-21cc-4b68-84a3-14ef0720528e-parameters"
        }
      }, {
        "url": "http://hl7.org/fhir/us/cqfmeasures/StructureDefinition/cqfm-testCaseDescription",
        "valueMarkdown": "Strep lab test 4 days after qualifying encounter"
      } ],
      "modifierExtension": [ {
        "url": "http://hl7.org/fhir/us/cqfmeasures/StructureDefinition/cqfm-isTestCase",
        "valueBoolean": true
      } ],
      "status": "complete",
      "type": "individual",
      "measure": "https://madie.cms.gov/Measure/CMS146FHIRApproTestPharyngitis",
      "period": {
        "start": "2026-01-01",
        "end": "2026-12-31"
      },
      "group": [ {
        "id": "Group_1",
        "population": [ {
          "id": "InitialPopulation_1",
          "code": {
            "coding": [ {
              "system": "http://terminology.hl7.org/CodeSystem/measure-population",
              "code": "initial-population",
              "display": "Initial Population"
            } ]
          },
          "count": 1
        }, {
          "id": "Denominator_1",
          "code": {
            "coding": [ {
              "system": "http://terminology.hl7.org/CodeSystem/measure-population",
              "code": "denominator",
              "display": "Denominator"
            } ]
          },
          "count": 1
        }, {
          "id": "DenominatorExclusion_1",
          "code": {
            "coding": [ {
              "system": "http://terminology.hl7.org/CodeSystem/measure-population",
              "code": "denominator-exclusion",
              "display": "Denominator Exclusion"
            } ]
          },
          "count": 0
        }, {
          "id": "Numerator_1",
          "code": {
            "coding": [ {
              "system": "http://terminology.hl7.org/CodeSystem/measure-population",
              "code": "numerator",
              "display": "Numerator"
            } ]
          },
          "count": 0
        } ],
        "measureScore": {
          "value": 0.0
        },
        "stratifier": [ {
          "id": "Stratification_1_1",
          "code": [ {
            "text": "Strata-1"
          } ],
          "stratum": [ {
            "value": {
              "text": "Strata-1"
            },
            "population": [ {
              "id": "InitialPopulation_1",
              "code": {
                "coding": [ {
                  "system": "http://terminology.hl7.org/CodeSystem/measure-population",
                  "code": "initial-population",
                  "display": "Initial Population"
                } ]
              },
              "count": 1
            } ]
          } ]
        }, {
          "id": "Stratification_1_2",
          "code": [ {
            "text": "Strata-2"
          } ],
          "stratum": [ {
            "value": {
              "text": "Strata-2"
            },
            "population": [ {
              "id": "InitialPopulation_1",
              "code": {
                "coding": [ {
                  "system": "http://terminology.hl7.org/CodeSystem/measure-population",
                  "code": "initial-population",
                  "display": "Initial Population"
                } ]
              },
              "count": 1
            } ]
          } ]
        }, {
          "id": "Stratification_1_3",
          "code": [ {
            "text": "Strata-3"
          } ],
          "stratum": [ {
            "value": {
              "text": "Strata-3"
            },
            "population": [ {
              "id": "InitialPopulation_1",
              "code": {
                "coding": [ {
                  "system": "http://terminology.hl7.org/CodeSystem/measure-population",
                  "code": "initial-population",
                  "display": "Initial Population"
                } ]
              },
              "count": 1
            } ]
          } ]
        } ]
      } ],
      "evaluatedResource": [ {
        "reference": "Patient/115708e8-59e4-4d92-b19a-621ccd7f1e68"
      }, {
        "reference": "Encounter/38298181-177b-48aa-ac94-347315fa6423"
      }, {
        "reference": "MedicationRequest/4a94f7a7-2816-4afc-b0c8-a98107994a5a"
      }, {
        "reference": "Condition/0bea6d26-1e3e-4f60-9fe7-8a476a3ec687"
      }, {
        "reference": "Observation/cc55abea-c7a9-4004-b391-d3569335b336"
      } ]
    },
    "request": {
      "method": "PUT",
      "url": "MeasureReport/068b76cb-7bc3-41b7-8649-774a6ff1334f"
    }
  } ]
}