{
  "resourceType": "Bundle",
  "id": "62c880ec0111a60120dc21ff",
  "type": "transaction",
  "entry": [ {
    "fullUrl": "https://madie.cms.gov/Patient/33bdb226-a5fb-4c20-a429-8dac3875b722",
    "resource": {
      "resourceType": "Patient",
      "id": "33bdb226-a5fb-4c20-a429-8dac3875b722",
      "meta": {
        "profile": [ "http://hl7.org/fhir/us/qicore/StructureDefinition/qicore-patient" ]
      },
      "text": {
        "status": "generated",
        "div": "<div xmlns=\"http://www.w3.org/1999/xhtml\"><div class=\"hapiHeaderText\">RadTxInvalidCode<b>IPPFailPop2</b></div><table class=\"hapiPropertyTable\"><tbody><tr><td>Identifier</td><td>d1b8aaec1bc687c93a6007331530738b</td></tr><tr><td>Date of birth</td><td><span>25 April 1981</span></td></tr></tbody></table></div>"
      },
      "extension": [ {
        "url": "http://hl7.org/fhir/us/core/StructureDefinition/us-core-race",
        "extension": [ {
          "url": "ombCategory",
          "valueCoding": {
            "system": "urn:oid:2.16.840.1.113883.6.238",
            "code": "1002-5",
            "display": "American Indian or Alaska Native",
            "userSelected": true
          }
        }, {
          "url": "text",
          "valueString": "American Indian or Alaska Native"
        } ]
      }, {
        "url": "http://hl7.org/fhir/us/core/StructureDefinition/us-core-ethnicity",
        "extension": [ {
          "url": "ombCategory",
          "valueCoding": {
            "system": "urn:oid:2.16.840.1.113883.6.238",
            "code": "2135-2",
            "display": "Hispanic or Latino",
            "userSelected": true
          }
        }, {
          "url": "text",
          "valueString": "Hispanic or Latino"
        } ]
      } ],
      "identifier": [ {
        "type": {
          "coding": [ {
            "system": "http://terminology.hl7.org/CodeSystem/v2-0203",
            "code": "MR"
          } ]
        },
        "system": "https://bonnie-fhir.healthit.gov/",
        "value": "62c880ec0111a60120dc21ff"
      } ],
      "active": true,
      "name": [ {
        "use": "usual",
        "family": "IPPFailPop2",
        "given": [ "RadTxInvalidCode" ]
      } ],
      "gender": "male",
      "birthDate": "1982-04-25"
    },
    "request": {
      "method": "PUT",
      "url": "Patient/33bdb226-a5fb-4c20-a429-8dac3875b722"
    }
  }, {
    "fullUrl": "https://madie.cms.gov/Condition/d9d2fa7f-deb9-454a-9181-db912dee3960",
    "resource": {
      "resourceType": "Condition",
      "id": "d9d2fa7f-deb9-454a-9181-db912dee3960",
      "meta": {
        "profile": [ "http://hl7.org/fhir/us/qicore/StructureDefinition/qicore-condition" ]
      },
      "clinicalStatus": {
        "coding": [ {
          "system": "http://terminology.hl7.org/CodeSystem/condition-clinical",
          "code": "active",
          "display": "Active"
        } ]
      },
      "verificationStatus": {
        "coding": [ {
          "system": "http://terminology.hl7.org/CodeSystem/condition-ver-status",
          "code": "confirmed",
          "display": "Confirmed"
        } ]
      },
      "category": [ {
        "coding": [ {
          "system": "http://terminology.hl7.org/CodeSystem/condition-category",
          "code": "problem-list-item",
          "display": "Problem List Item"
        } ]
      } ],
      "code": {
        "coding": [ {
          "system": "http://hl7.org/fhir/sid/icd-10-cm",
          "code": "C00.0"
        } ]
      },
      "subject": {
        "reference": "Patient/33bdb226-a5fb-4c20-a429-8dac3875b722"
      },
      "onsetDateTime": "2022-01-06T12:45:00.000+00:00"
    },
    "request": {
      "method": "PUT",
      "url": "Condition/d9d2fa7f-deb9-454a-9181-db912dee3960"
    }
  }, {
    "fullUrl": "https://madie.cms.gov/Encounter/fe96da9a-82fb-4594-9e47-8e9076ca5cec",
    "resource": {
      "resourceType": "Encounter",
      "id": "fe96da9a-82fb-4594-9e47-8e9076ca5cec",
      "meta": {
        "profile": [ "http://hl7.org/fhir/us/qicore/StructureDefinition/qicore-encounter" ]
      },
      "status": "finished",
      "class": {
        "system": "http://terminology.hl7.org/CodeSystem/v3-ActCode",
        "code": "AMB",
        "display": "ambulatory",
        "userSelected": true
      },
      "type": [ {
        "coding": [ {
          "system": "http://snomed.info/sct",
          "code": "185463005"
        }, {
          "system": "http://www.ama-assn.org/go/cpt",
          "code": "99202"
        } ]
      } ],
      "subject": {
        "reference": "Patient/33bdb226-a5fb-4c20-a429-8dac3875b722"
      },
      "period": {
        "start": "2026-05-06T12:45:00.000+00:00",
        "end": "2026-05-06T13:00:00.000+00:00"
      }
    },
    "request": {
      "method": "PUT",
      "url": "Encounter/fe96da9a-82fb-4594-9e47-8e9076ca5cec"
    }
  }, {
    "fullUrl": "https://madie.cms.gov/Coverage/1521e65e-551b-4b10-ab7b-8b5c31454b8c",
    "resource": {
      "resourceType": "Coverage",
      "id": "1521e65e-551b-4b10-ab7b-8b5c31454b8c",
      "meta": {
        "profile": [ "http://hl7.org/fhir/us/qicore/StructureDefinition/qicore-coverage" ]
      },
      "status": "active",
      "beneficiary": {
        "reference": "Patient/33bdb226-a5fb-4c20-a429-8dac3875b722"
      },
      "period": {
        "start": "1982-04-25T08:00:00.000+00:00"
      },
      "payor": [ {
        "reference": "Organization/5109c789-1037-4d0a-a5e5-0e3dbd4d4ea9"
      } ]
    },
    "request": {
      "method": "PUT",
      "url": "Coverage/1521e65e-551b-4b10-ab7b-8b5c31454b8c"
    }
  }, {
    "fullUrl": "https://madie.cms.gov/Encounter/dba96727-9e39-4e99-a8b3-86738ffb1e00",
    "resource": {
      "resourceType": "Encounter",
      "id": "dba96727-9e39-4e99-a8b3-86738ffb1e00",
      "meta": {
        "profile": [ "http://hl7.org/fhir/us/qicore/StructureDefinition/qicore-encounter" ]
      },
      "status": "finished",
      "class": {
        "system": "http://terminology.hl7.org/CodeSystem/v3-ActCode",
        "code": "AMB",
        "display": "ambulatory",
        "userSelected": true
      },
      "type": [ {
        "coding": [ {
          "system": "http://www.ama-assn.org/go/cpt",
          "code": "00000"
        } ]
      } ],
      "subject": {
        "reference": "Patient/33bdb226-a5fb-4c20-a429-8dac3875b722"
      },
      "period": {
        "start": "2026-05-06T13:30:00.000+00:00",
        "end": "2026-05-06T16:30:00.000+00:00"
      }
    },
    "request": {
      "method": "PUT",
      "url": "Encounter/dba96727-9e39-4e99-a8b3-86738ffb1e00"
    }
  }, {
    "fullUrl": "https://madie.cms.gov/Organization/5109c789-1037-4d0a-a5e5-0e3dbd4d4ea9",
    "resource": {
      "resourceType": "Organization",
      "id": "5109c789-1037-4d0a-a5e5-0e3dbd4d4ea9",
      "meta": {
        "profile": [ "http://hl7.org/fhir/us/qicore/StructureDefinition/qicore-organization" ]
      },
      "identifier": [ {
        "use": "temp",
        "system": "urn:oid:2.16.840.1.113883.4.4",
        "value": "21-3259825"
      } ],
      "active": true,
      "type": [ {
        "coding": [ {
          "system": "http://terminology.hl7.org/CodeSystem/organization-type",
          "code": "pay",
          "display": "Payer"
        } ]
      } ],
      "name": "Blue Cross Blue Shield of Texas",
      "telecom": [ {
        "system": "phone",
        "value": "(+1) 972-766-6900"
      } ],
      "address": [ {
        "use": "billing",
        "type": "postal",
        "line": [ "P.O. Box 660044" ],
        "city": "Dallas",
        "state": "TX",
        "postalCode": "75266-0044",
        "country": "USA"
      } ]
    },
    "request": {
      "method": "PUT",
      "url": "Organization/5109c789-1037-4d0a-a5e5-0e3dbd4d4ea9"
    }
  }, {
    "fullUrl": "https://madie.cms.gov/Practitioner/7fda5998-e198-4031-ae15-fa86a66732db",
    "resource": {
      "resourceType": "Practitioner",
      "id": "7fda5998-e198-4031-ae15-fa86a66732db",
      "meta": {
        "profile": [ "http://hl7.org/fhir/us/qicore/StructureDefinition/qicore-practitioner" ]
      },
      "identifier": [ {
        "system": "http://hl7.org/fhir/sid/us-npi",
        "value": "123456"
      } ],
      "name": [ {
        "family": "Evil",
        "prefix": [ "Dr" ]
      } ]
    },
    "request": {
      "method": "PUT",
      "url": "Practitioner/7fda5998-e198-4031-ae15-fa86a66732db"
    }
  }, {
    "fullUrl": "https://madie.cms.gov/MeasureReport/f060d816-187f-45d2-9ce9-6c83bf7d8d6e",
    "resource": {
      "resourceType": "MeasureReport",
      "id": "f060d816-187f-45d2-9ce9-6c83bf7d8d6e",
      "meta": {
        "profile": [ "http://hl7.org/fhir/us/cqfmeasures/StructureDefinition/test-case-cqfm" ]
      },
      "contained": [ {
        "resourceType": "Parameters",
        "id": "47fd63ba-5bee-4e7b-990e-e53c63417633-parameters",
        "parameter": [ {
          "name": "subject",
          "valueString": "33bdb226-a5fb-4c20-a429-8dac3875b722"
        } ]
      } ],
      "extension": [ {
        "url": "http://hl7.org/fhir/StructureDefinition/cqf-inputParameters",
        "valueReference": {
          "reference": "#47fd63ba-5bee-4e7b-990e-e53c63417633-parameters"
        }
      }, {
        "url": "http://hl7.org/fhir/us/cqfmeasures/StructureDefinition/cqfm-testCaseDescription",
        "valueMarkdown": "Patient with cancer diagnosis that overlaps radiation treatment management during measurement period, but radiation treatment management contains invalid code.\n"
      } ],
      "modifierExtension": [ {
        "url": "http://hl7.org/fhir/us/cqfmeasures/StructureDefinition/cqfm-isTestCase",
        "valueBoolean": true
      } ],
      "status": "complete",
      "type": "individual",
      "measure": "https://madie.cms.gov/Measure/CMS157FHIRPainIntensityQuantified",
      "period": {
        "start": "2026-01-01",
        "end": "2026-12-31"
      },
      "group": [ {
        "id": "Group_1",
        "population": [ {
          "id": "InitialPopulation_1",
          "code": {
            "coding": [ {
              "system": "http://terminology.hl7.org/CodeSystem/measure-population",
              "code": "initial-population",
              "display": "Initial Population"
            } ]
          },
          "count": 0
        }, {
          "id": "Denominator_1",
          "code": {
            "coding": [ {
              "system": "http://terminology.hl7.org/CodeSystem/measure-population",
              "code": "denominator",
              "display": "Denominator"
            } ]
          },
          "count": 0
        }, {
          "id": "Numerator_1",
          "code": {
            "coding": [ {
              "system": "http://terminology.hl7.org/CodeSystem/measure-population",
              "code": "numerator",
              "display": "Numerator"
            } ]
          },
          "count": 0
        } ],
        "measureScore": {
          "value": 0.0
        }
      }, {
        "id": "Group_2",
        "population": [ {
          "id": "InitialPopulation_2",
          "code": {
            "coding": [ {
              "system": "http://terminology.hl7.org/CodeSystem/measure-population",
              "code": "initial-population",
              "display": "Initial Population"
            } ]
          },
          "count": 0
        }, {
          "id": "Denominator_2",
          "code": {
            "coding": [ {
              "system": "http://terminology.hl7.org/CodeSystem/measure-population",
              "code": "denominator",
              "display": "Denominator"
            } ]
          },
          "count": 0
        }, {
          "id": "Numerator_2",
          "code": {
            "coding": [ {
              "system": "http://terminology.hl7.org/CodeSystem/measure-population",
              "code": "numerator",
              "display": "Numerator"
            } ]
          },
          "count": 0
        } ],
        "measureScore": {
          "value": 0.0
        }
      } ],
      "evaluatedResource": [ {
        "reference": "Patient/33bdb226-a5fb-4c20-a429-8dac3875b722"
      }, {
        "reference": "Condition/d9d2fa7f-deb9-454a-9181-db912dee3960"
      }, {
        "reference": "Encounter/fe96da9a-82fb-4594-9e47-8e9076ca5cec"
      }, {
        "reference": "Coverage/1521e65e-551b-4b10-ab7b-8b5c31454b8c"
      }, {
        "reference": "Encounter/dba96727-9e39-4e99-a8b3-86738ffb1e00"
      }, {
        "reference": "Organization/5109c789-1037-4d0a-a5e5-0e3dbd4d4ea9"
      }, {
        "reference": "Practitioner/7fda5998-e198-4031-ae15-fa86a66732db"
      } ]
    },
    "request": {
      "method": "PUT",
      "url": "MeasureReport/f060d816-187f-45d2-9ce9-6c83bf7d8d6e"
    }
  } ]
}