{
  "resourceType": "Bundle",
  "id": "NUMERPass-KCCQ12Resulted",
  "type": "collection",
  "entry": [ {
    "fullUrl": "https://madie.cms.gov/Patient/7657b1f6-b12d-4c9d-86e9-f48e9423601d",
    "resource": {
      "resourceType": "Patient",
      "id": "7657b1f6-b12d-4c9d-86e9-f48e9423601d",
      "meta": {
        "profile": [ "http://hl7.org/fhir/us/qicore/StructureDefinition/qicore-patient" ]
      },
      "extension": [ {
        "url": "http://hl7.org/fhir/us/core/StructureDefinition/us-core-race",
        "extension": [ {
          "url": "ombCategory",
          "valueCoding": {
            "system": "urn:oid:2.16.840.1.113883.6.238",
            "code": "2028-9",
            "display": "Asian"
          }
        }, {
          "url": "text",
          "valueString": "Asian"
        } ]
      }, {
        "url": "http://hl7.org/fhir/us/core/StructureDefinition/us-core-ethnicity",
        "extension": [ {
          "url": "ombCategory",
          "valueCoding": {
            "system": "urn:oid:2.16.840.1.113883.6.238",
            "code": "2135-2",
            "display": "Hispanic or Latino"
          }
        }, {
          "url": "text",
          "valueString": "Hispanic or Latino"
        } ]
      } ],
      "identifier": [ {
        "system": "http://hospital.smarthealthit.org",
        "value": "999999995"
      } ],
      "name": [ {
        "family": "Bertha",
        "given": [ "Betty" ]
      } ],
      "gender": "female",
      "birthDate": "2008-01-01"
    }
  }, {
    "fullUrl": "https://madie.cms.gov/Encounter/e40d3c48-e592-4413-86a7-d6b87ac9992d",
    "resource": {
      "resourceType": "Encounter",
      "id": "e40d3c48-e592-4413-86a7-d6b87ac9992d",
      "meta": {
        "profile": [ "http://hl7.org/fhir/us/qicore/StructureDefinition/qicore-encounter" ]
      },
      "status": "finished",
      "class": {
        "system": "http://terminology.hl7.org/CodeSystem/v3-ActCode",
        "code": "AMB",
        "display": "ambulatory"
      },
      "type": [ {
        "coding": [ {
          "system": "http://snomed.info/sct",
          "code": "185317003",
          "display": "Telephone encounter (procedure)"
        } ]
      } ],
      "subject": {
        "reference": "Patient/7657b1f6-b12d-4c9d-86e9-f48e9423601d"
      },
      "period": {
        "start": "2026-01-01T01:00:00.000+00:00",
        "end": "2026-01-01T01:15:00.000+00:00"
      }
    }
  }, {
    "fullUrl": "https://madie.cms.gov/Encounter/2db35dce-92a9-4c95-a586-8835555339c7",
    "resource": {
      "resourceType": "Encounter",
      "id": "2db35dce-92a9-4c95-a586-8835555339c7",
      "meta": {
        "profile": [ "http://hl7.org/fhir/us/qicore/StructureDefinition/qicore-encounter" ]
      },
      "status": "finished",
      "class": {
        "system": "http://terminology.hl7.org/CodeSystem/v3-ActCode",
        "code": "AMB",
        "display": "ambulatory"
      },
      "type": [ {
        "coding": [ {
          "system": "http://snomed.info/sct",
          "code": "185317003",
          "display": "Telephone encounter (procedure)"
        } ]
      } ],
      "subject": {
        "reference": "Patient/7657b1f6-b12d-4c9d-86e9-f48e9423601d"
      },
      "period": {
        "start": "2026-01-02T01:00:00.000+00:00",
        "end": "2026-01-02T01:15:00.000+00:00"
      }
    }
  }, {
    "fullUrl": "https://madie.cms.gov/Condition/3d3e485b-fb93-48e1-b46f-b3c6435571a8",
    "resource": {
      "resourceType": "Condition",
      "id": "3d3e485b-fb93-48e1-b46f-b3c6435571a8",
      "meta": {
        "profile": [ "http://hl7.org/fhir/us/qicore/StructureDefinition/qicore-condition-problems-health-concerns" ]
      },
      "clinicalStatus": {
        "coding": [ {
          "system": "http://terminology.hl7.org/CodeSystem/condition-clinical",
          "code": "active"
        } ]
      },
      "category": [ {
        "coding": [ {
          "system": "http://terminology.hl7.org/CodeSystem/condition-category",
          "code": "problem-list-item",
          "display": "Problem List Item"
        } ]
      } ],
      "code": {
        "coding": [ {
          "system": "http://snomed.info/sct",
          "version": "http://snomed.info/sct/731000124108/version/20250301",
          "code": "10091002",
          "display": "High output heart failure (disorder)"
        } ]
      },
      "subject": {
        "reference": "Patient/7657b1f6-b12d-4c9d-86e9-f48e9423601d"
      },
      "onsetDateTime": "2025-12-31T23:59:00.000+00:00"
    }
  }, {
    "fullUrl": "https://madie.cms.gov/Observation/62c8b2db-dee4-426b-b1a6-a98e4ab412d6",
    "resource": {
      "resourceType": "Observation",
      "id": "62c8b2db-dee4-426b-b1a6-a98e4ab412d6",
      "meta": {
        "profile": [ "http://hl7.org/fhir/us/qicore/StructureDefinition/qicore-observation-screening-assessment" ]
      },
      "status": "final",
      "category": [ {
        "coding": [ {
          "system": "http://terminology.hl7.org/CodeSystem/observation-category",
          "code": "survey",
          "display": "survey"
        } ],
        "text": "survey"
      } ],
      "code": {
        "coding": [ {
          "system": "http://loinc.org",
          "code": "86923-0",
          "display": "Kansas City Cardiomyopathy Questionnaire - 12 item [KCCQ-12]"
        } ]
      },
      "subject": {
        "reference": "Patient/7657b1f6-b12d-4c9d-86e9-f48e9423601d"
      },
      "effectivePeriod": {
        "start": "2026-01-01T23:00:00.000+00:00",
        "end": "2026-01-01T23:59:00.000+00:00"
      },
      "valueInteger": 4
    }
  }, {
    "fullUrl": "https://madie.cms.gov/Observation/34202659-5adb-486e-bde8-e7719a02619c",
    "resource": {
      "resourceType": "Observation",
      "id": "34202659-5adb-486e-bde8-e7719a02619c",
      "meta": {
        "profile": [ "http://hl7.org/fhir/us/qicore/StructureDefinition/qicore-observation-screening-assessment" ]
      },
      "status": "final",
      "category": [ {
        "coding": [ {
          "system": "http://terminology.hl7.org/CodeSystem/observation-category",
          "code": "survey",
          "display": "survey"
        } ],
        "text": "survey"
      } ],
      "code": {
        "coding": [ {
          "system": "http://loinc.org",
          "code": "86923-0",
          "display": "Kansas City Cardiomyopathy Questionnaire - 12 item [KCCQ-12]"
        } ]
      },
      "subject": {
        "reference": "Patient/7657b1f6-b12d-4c9d-86e9-f48e9423601d"
      },
      "effectivePeriod": {
        "start": "2026-01-31T23:00:00.000+00:00",
        "end": "2026-01-31T23:59:00.000+00:00"
      },
      "valueInteger": 4
    }
  }, {
    "fullUrl": "https://madie.cms.gov/Observation/e305987e-f71e-42b5-a074-efb6fa9ec3a7",
    "resource": {
      "resourceType": "Observation",
      "id": "e305987e-f71e-42b5-a074-efb6fa9ec3a7",
      "meta": {
        "profile": [ "http://hl7.org/fhir/us/qicore/StructureDefinition/qicore-observation-screening-assessment" ]
      },
      "status": "final",
      "category": [ {
        "coding": [ {
          "system": "http://terminology.hl7.org/CodeSystem/observation-category",
          "code": "survey",
          "display": "survey"
        } ],
        "text": "survey"
      } ],
      "code": {
        "coding": [ {
          "system": "http://loinc.org",
          "code": "86924-8",
          "display": "Overall summary score [KCCQ-12]"
        } ]
      },
      "subject": {
        "reference": "Patient/7657b1f6-b12d-4c9d-86e9-f48e9423601d"
      },
      "effectivePeriod": {
        "start": "2026-01-01T23:00:00.000+00:00",
        "end": "2026-01-01T23:59:00.000+00:00"
      },
      "valueInteger": 4
    }
  }, {
    "fullUrl": "https://madie.cms.gov/Observation/c03ca2d0-a9c4-4757-87df-e00267acf691",
    "resource": {
      "resourceType": "Observation",
      "id": "c03ca2d0-a9c4-4757-87df-e00267acf691",
      "meta": {
        "profile": [ "http://hl7.org/fhir/us/qicore/StructureDefinition/qicore-observation-screening-assessment" ]
      },
      "status": "final",
      "category": [ {
        "coding": [ {
          "system": "http://terminology.hl7.org/CodeSystem/observation-category",
          "code": "survey",
          "display": "survey"
        } ],
        "text": "survey"
      } ],
      "code": {
        "coding": [ {
          "system": "http://loinc.org",
          "code": "86924-8",
          "display": "Overall summary score [KCCQ-12]"
        } ]
      },
      "subject": {
        "reference": "Patient/7657b1f6-b12d-4c9d-86e9-f48e9423601d"
      },
      "effectivePeriod": {
        "start": "2026-01-31T23:00:00.000+00:00",
        "end": "2026-01-31T23:59:00.000+00:00"
      },
      "valueInteger": 4
    }
  }, {
    "fullUrl": "https://madie.cms.gov/MeasureReport/71a7cc80-21ea-49b3-a0dd-047c14b66889",
    "resource": {
      "resourceType": "MeasureReport",
      "id": "71a7cc80-21ea-49b3-a0dd-047c14b66889",
      "meta": {
        "profile": [ "http://hl7.org/fhir/us/cqfmeasures/StructureDefinition/test-case-cqfm" ]
      },
      "contained": [ {
        "resourceType": "Parameters",
        "id": "83244cba-85c2-4a50-8b7f-3a848ddb86b6-parameters",
        "parameter": [ {
          "name": "subject",
          "valueString": "7657b1f6-b12d-4c9d-86e9-f48e9423601d"
        } ]
      } ],
      "extension": [ {
        "url": "http://hl7.org/fhir/StructureDefinition/cqf-inputParameters",
        "valueReference": {
          "reference": "#83244cba-85c2-4a50-8b7f-3a848ddb86b6-parameters"
        }
      }, {
        "url": "http://hl7.org/fhir/us/cqfmeasures/StructureDefinition/cqfm-testCaseDescription",
        "valueMarkdown": "Patient has all KCCQ12 Assessments with results during the correct timeframe"
      } ],
      "modifierExtension": [ {
        "url": "http://hl7.org/fhir/us/cqfmeasures/StructureDefinition/cqfm-isTestCase",
        "valueBoolean": true
      } ],
      "status": "complete",
      "type": "individual",
      "measure": "https://madie.cms.gov/Measure/CMS90FHIRFSAforHeartFailure",
      "period": {
        "start": "2026-01-01",
        "end": "2026-12-31"
      },
      "group": [ {
        "id": "Group_1",
        "population": [ {
          "id": "InitialPopulation_1",
          "code": {
            "coding": [ {
              "system": "http://terminology.hl7.org/CodeSystem/measure-population",
              "code": "initial-population",
              "display": "Initial Population"
            } ]
          },
          "count": 1
        }, {
          "id": "Denominator_1",
          "code": {
            "coding": [ {
              "system": "http://terminology.hl7.org/CodeSystem/measure-population",
              "code": "denominator",
              "display": "Denominator"
            } ]
          },
          "count": 1
        }, {
          "id": "DenominatorExclusion_1",
          "code": {
            "coding": [ {
              "system": "http://terminology.hl7.org/CodeSystem/measure-population",
              "code": "denominator-exclusion",
              "display": "Denominator Exclusion"
            } ]
          },
          "count": 0
        }, {
          "id": "Numerator_1",
          "code": {
            "coding": [ {
              "system": "http://terminology.hl7.org/CodeSystem/measure-population",
              "code": "numerator",
              "display": "Numerator"
            } ]
          },
          "count": 1
        } ],
        "measureScore": {
          "value": 1.0
        }
      } ],
      "evaluatedResource": [ {
        "reference": "Patient/7657b1f6-b12d-4c9d-86e9-f48e9423601d"
      }, {
        "reference": "Encounter/e40d3c48-e592-4413-86a7-d6b87ac9992d"
      }, {
        "reference": "Encounter/2db35dce-92a9-4c95-a586-8835555339c7"
      }, {
        "reference": "Condition/3d3e485b-fb93-48e1-b46f-b3c6435571a8"
      }, {
        "reference": "Observation/62c8b2db-dee4-426b-b1a6-a98e4ab412d6"
      }, {
        "reference": "Observation/34202659-5adb-486e-bde8-e7719a02619c"
      }, {
        "reference": "Observation/e305987e-f71e-42b5-a074-efb6fa9ec3a7"
      }, {
        "reference": "Observation/c03ca2d0-a9c4-4757-87df-e00267acf691"
      } ]
    }
  } ]
}