{
  "resourceType": "Bundle",
  "id": "63487c2d0968f80122540165",
  "type": "transaction",
  "entry": [ {
    "fullUrl": "https://madie.cms.gov/Patient/9cc71655-c4cd-47cf-ad10-de338da53885",
    "resource": {
      "resourceType": "Patient",
      "id": "9cc71655-c4cd-47cf-ad10-de338da53885",
      "meta": {
        "profile": [ "http://hl7.org/fhir/us/qicore/StructureDefinition/qicore-patient" ]
      },
      "text": {
        "status": "generated",
        "div": "<div xmlns=\"http://www.w3.org/1999/xhtml\"><div class=\"hapiHeaderText\">AssessTerm0PreTerm0NoGravNoPar <b>DENPASS </b></div><table class=\"hapiPropertyTable\"><tbody><tr><td>Identifier</td><td>64127fc9d7fd126eace3c4b20a012fe3796c9abd90c573be4c372bf5eb0ed0f9</td></tr><tr><td>Date of birth</td><td><span>14 February 1985</span></td></tr></tbody></table></div>"
      },
      "extension": [ {
        "url": "http://hl7.org/fhir/us/core/StructureDefinition/us-core-race",
        "extension": [ {
          "url": "ombCategory",
          "valueCoding": {
            "system": "urn:oid:2.16.840.1.113883.6.238",
            "code": "1002-5",
            "display": "American Indian or Alaska Native",
            "userSelected": true
          }
        }, {
          "url": "text",
          "valueString": "American Indian or Alaska Native"
        } ]
      }, {
        "url": "http://hl7.org/fhir/us/core/StructureDefinition/us-core-ethnicity",
        "extension": [ {
          "url": "ombCategory",
          "valueCoding": {
            "system": "urn:oid:2.16.840.1.113883.6.238",
            "code": "2135-2",
            "display": "Hispanic or Latino",
            "userSelected": true
          }
        }, {
          "url": "text",
          "valueString": "Hispanic or Latino"
        } ]
      } ],
      "identifier": [ {
        "type": {
          "coding": [ {
            "system": "http://terminology.hl7.org/CodeSystem/v2-0203",
            "code": "MR"
          } ]
        },
        "system": "https://bonnie-fhir.healthit.gov/",
        "value": "63487c2d0968f80122540165"
      } ],
      "active": true,
      "name": [ {
        "use": "usual",
        "family": "DENPass",
        "given": [ "AssessTerm0PreTerm0NoGravNoPar" ]
      } ],
      "gender": "female",
      "birthDate": "1998-02-14"
    },
    "request": {
      "method": "PUT",
      "url": "Patient/9cc71655-c4cd-47cf-ad10-de338da53885"
    }
  }, {
    "fullUrl": "https://madie.cms.gov/Observation/6b4998de-8fda-421a-821a-22ac720fe1ca",
    "resource": {
      "resourceType": "Observation",
      "id": "6b4998de-8fda-421a-821a-22ac720fe1ca",
      "meta": {
        "profile": [ "http://hl7.org/fhir/us/qicore/StructureDefinition/qicore-simple-observation" ]
      },
      "status": "final",
      "category": [ {
        "coding": [ {
          "system": "http://terminology.hl7.org/CodeSystem/observation-category",
          "code": "exam",
          "display": "exam",
          "userSelected": true
        } ]
      } ],
      "code": {
        "coding": [ {
          "system": "http://loinc.org",
          "code": "11639-2"
        } ]
      },
      "subject": {
        "reference": "Patient/9cc71655-c4cd-47cf-ad10-de338da53885"
      },
      "effectiveDateTime": "2026-06-08T09:00:00.000+00:00",
      "valueInteger": 0
    },
    "request": {
      "method": "PUT",
      "url": "Observation/6b4998de-8fda-421a-821a-22ac720fe1ca"
    }
  }, {
    "fullUrl": "https://madie.cms.gov/Observation/6071e096-2595-4b64-b7e0-623bb4f4320e",
    "resource": {
      "resourceType": "Observation",
      "id": "6071e096-2595-4b64-b7e0-623bb4f4320e",
      "meta": {
        "profile": [ "http://hl7.org/fhir/us/qicore/StructureDefinition/qicore-simple-observation" ]
      },
      "status": "final",
      "category": [ {
        "coding": [ {
          "system": "http://terminology.hl7.org/CodeSystem/observation-category",
          "code": "exam",
          "display": "exam",
          "userSelected": true
        } ]
      } ],
      "code": {
        "coding": [ {
          "system": "http://loinc.org",
          "code": "11637-6"
        } ]
      },
      "subject": {
        "reference": "Patient/9cc71655-c4cd-47cf-ad10-de338da53885"
      },
      "effectiveDateTime": "2026-06-08T09:15:00.000+00:00",
      "valueInteger": 0
    },
    "request": {
      "method": "PUT",
      "url": "Observation/6071e096-2595-4b64-b7e0-623bb4f4320e"
    }
  }, {
    "fullUrl": "https://madie.cms.gov/Observation/1bf0db99-f444-4377-9083-95d46c5c3bb9",
    "resource": {
      "resourceType": "Observation",
      "id": "1bf0db99-f444-4377-9083-95d46c5c3bb9",
      "meta": {
        "profile": [ "http://hl7.org/fhir/us/qicore/StructureDefinition/qicore-simple-observation" ]
      },
      "status": "final",
      "category": [ {
        "coding": [ {
          "system": "http://terminology.hl7.org/CodeSystem/observation-category",
          "code": "exam",
          "display": "exam",
          "userSelected": true
        } ]
      } ],
      "code": {
        "coding": [ {
          "system": "http://loinc.org",
          "code": "11884-4"
        } ]
      },
      "subject": {
        "reference": "Patient/9cc71655-c4cd-47cf-ad10-de338da53885"
      },
      "effectiveDateTime": "2026-06-08T21:15:00.000+00:00",
      "valueQuantity": {
        "value": 37,
        "system": "http://unitsofmeasure.org",
        "code": "wk"
      }
    },
    "request": {
      "method": "PUT",
      "url": "Observation/1bf0db99-f444-4377-9083-95d46c5c3bb9"
    }
  }, {
    "fullUrl": "https://madie.cms.gov/Observation/a11fae48-4976-4575-bb17-96c3a32b2290",
    "resource": {
      "resourceType": "Observation",
      "id": "a11fae48-4976-4575-bb17-96c3a32b2290",
      "meta": {
        "profile": [ "http://hl7.org/fhir/us/qicore/StructureDefinition/qicore-simple-observation" ]
      },
      "status": "final",
      "category": [ {
        "coding": [ {
          "system": "http://terminology.hl7.org/CodeSystem/observation-category",
          "code": "exam",
          "display": "exam",
          "userSelected": true
        } ]
      } ],
      "code": {
        "coding": [ {
          "system": "http://loinc.org",
          "code": "93857-1"
        } ]
      },
      "subject": {
        "reference": "Patient/9cc71655-c4cd-47cf-ad10-de338da53885"
      },
      "effectiveDateTime": "2026-06-08T21:15:00.000+00:00",
      "valueDateTime": "2026-06-08T21:15:00.000+00:00"
    },
    "request": {
      "method": "PUT",
      "url": "Observation/a11fae48-4976-4575-bb17-96c3a32b2290"
    }
  }, {
    "fullUrl": "https://madie.cms.gov/Encounter/b512583c-7e99-4251-86d1-c1326e34cba5",
    "resource": {
      "resourceType": "Encounter",
      "id": "b512583c-7e99-4251-86d1-c1326e34cba5",
      "meta": {
        "profile": [ "http://hl7.org/fhir/us/qicore/StructureDefinition/qicore-encounter" ]
      },
      "status": "finished",
      "class": {
        "system": "http://terminology.hl7.org/CodeSystem/v3-ActCode",
        "code": "IMP",
        "display": "inpatient encounter"
      },
      "type": [ {
        "coding": [ {
          "system": "http://snomed.info/sct",
          "code": "8715000"
        } ]
      } ],
      "subject": {
        "reference": "Patient/9cc71655-c4cd-47cf-ad10-de338da53885"
      },
      "period": {
        "start": "2026-06-08T08:00:00.000+00:00",
        "end": "2026-06-10T08:15:00.000+00:00"
      },
      "length": {
        "value": 2,
        "unit": "days"
      },
      "reasonReference": [ {
        "reference": "Condition/6f6eb6e5-2cb6-4c80-b284-b2f83ab4498e"
      } ]
    },
    "request": {
      "method": "PUT",
      "url": "Encounter/b512583c-7e99-4251-86d1-c1326e34cba5"
    }
  }, {
    "fullUrl": "https://madie.cms.gov/Procedure/3613a19d-4451-47ed-830f-5b6b4d645a4a",
    "resource": {
      "resourceType": "Procedure",
      "id": "3613a19d-4451-47ed-830f-5b6b4d645a4a",
      "meta": {
        "profile": [ "http://hl7.org/fhir/us/qicore/StructureDefinition/qicore-procedure" ]
      },
      "extension": [ {
        "url": "http://hl7.org/fhir/us/qicore/StructureDefinition/qicore-recorded",
        "valueDateTime": "2014-04-05T13:35:00.000+00:00"
      } ],
      "status": "completed",
      "code": {
        "coding": [ {
          "system": "http://www.cms.gov/Medicare/Coding/ICD10",
          "code": "10D00Z0"
        }, {
          "system": "http://www.icd10data.com/icd10pcs",
          "code": "10D00Z2",
          "userSelected": true
        } ]
      },
      "subject": {
        "reference": "Patient/9cc71655-c4cd-47cf-ad10-de338da53885"
      },
      "performedPeriod": {
        "start": "2026-06-08T20:00:00.000+00:00",
        "end": "2026-06-08T21:15:00.000+00:00"
      }
    },
    "request": {
      "method": "PUT",
      "url": "Procedure/3613a19d-4451-47ed-830f-5b6b4d645a4a"
    }
  }, {
    "fullUrl": "https://madie.cms.gov/Condition/6f6eb6e5-2cb6-4c80-b284-b2f83ab4498e",
    "resource": {
      "resourceType": "Condition",
      "id": "6f6eb6e5-2cb6-4c80-b284-b2f83ab4498e",
      "meta": {
        "profile": [ "http://hl7.org/fhir/us/qicore/StructureDefinition/qicore-condition-encounter-diagnosis" ]
      },
      "category": [ {
        "coding": [ {
          "system": "http://terminology.hl7.org/CodeSystem/condition-category",
          "code": "encounter-diagnosis",
          "display": "Encounter Diagnosis"
        } ]
      } ],
      "code": {
        "coding": [ {
          "system": "http://snomed.info/sct",
          "version": "2022-09",
          "code": "169826009",
          "display": "Single live birth from singleton pregnancy (finding)",
          "userSelected": true
        } ]
      },
      "subject": {
        "reference": "Patient/9cc71655-c4cd-47cf-ad10-de338da53885"
      },
      "encounter": {
        "reference": "Encounter/b512583c-7e99-4251-86d1-c1326e34cba5"
      },
      "recordedDate": "2026-10-20T08:00:00.000+00:00"
    },
    "request": {
      "method": "PUT",
      "url": "Condition/6f6eb6e5-2cb6-4c80-b284-b2f83ab4498e"
    }
  }, {
    "fullUrl": "https://madie.cms.gov/Coverage/bed9b372-8fe0-4721-a911-1109f25dade0",
    "resource": {
      "resourceType": "Coverage",
      "id": "bed9b372-8fe0-4721-a911-1109f25dade0",
      "meta": {
        "profile": [ "http://hl7.org/fhir/us/qicore/StructureDefinition/qicore-coverage" ]
      },
      "status": "active",
      "subscriberId": "523435",
      "beneficiary": {
        "reference": "Patient/9cc71655-c4cd-47cf-ad10-de338da53885"
      },
      "relationship": {
        "coding": [ {
          "system": "http://terminology.hl7.org/CodeSystem/subscriber-relationship",
          "code": "self"
        } ]
      },
      "payor": [ {
        "reference": "Organization/16d1ee98-db58-4700-a41b-e9987b4ec20d"
      } ]
    },
    "request": {
      "method": "PUT",
      "url": "Coverage/bed9b372-8fe0-4721-a911-1109f25dade0"
    }
  }, {
    "fullUrl": "https://madie.cms.gov/Organization/16d1ee98-db58-4700-a41b-e9987b4ec20d",
    "resource": {
      "resourceType": "Organization",
      "id": "16d1ee98-db58-4700-a41b-e9987b4ec20d",
      "meta": {
        "profile": [ "http://hl7.org/fhir/us/qicore/StructureDefinition/qicore-organization" ]
      },
      "identifier": [ {
        "use": "temp",
        "system": "urn:oid:2.16.840.1.113883.4.4",
        "value": "21-3259825"
      } ],
      "active": true,
      "type": [ {
        "coding": [ {
          "system": "http://terminology.hl7.org/CodeSystem/organization-type",
          "code": "pay",
          "display": "Payer"
        } ]
      } ],
      "name": "Blue Cross Blue Shield of Texas",
      "telecom": [ {
        "system": "phone",
        "value": "(+1) 972-766-6900"
      } ],
      "address": [ {
        "use": "billing",
        "type": "postal",
        "line": [ "P.O. Box 660044" ],
        "city": "Dallas",
        "state": "TX",
        "postalCode": "75266-0044",
        "country": "USA"
      } ]
    },
    "request": {
      "method": "PUT",
      "url": "Organization/16d1ee98-db58-4700-a41b-e9987b4ec20d"
    }
  }, {
    "fullUrl": "https://madie.cms.gov/Practitioner/2ba35a08-09a4-4eca-8a19-144e0b92f287",
    "resource": {
      "resourceType": "Practitioner",
      "id": "2ba35a08-09a4-4eca-8a19-144e0b92f287",
      "meta": {
        "profile": [ "http://hl7.org/fhir/us/qicore/StructureDefinition/qicore-practitioner" ]
      },
      "identifier": [ {
        "system": "http://hl7.org/fhir/sid/us-npi",
        "value": "1234567890"
      } ],
      "name": [ {
        "family": "Evil",
        "prefix": [ "Dr" ]
      } ]
    },
    "request": {
      "method": "PUT",
      "url": "Practitioner/2ba35a08-09a4-4eca-8a19-144e0b92f287"
    }
  }, {
    "fullUrl": "https://madie.cms.gov/MeasureReport/d2b249f0-75fb-4760-8050-63aa4f9a9efa",
    "resource": {
      "resourceType": "MeasureReport",
      "id": "d2b249f0-75fb-4760-8050-63aa4f9a9efa",
      "meta": {
        "profile": [ "http://hl7.org/fhir/us/cqfmeasures/StructureDefinition/test-case-cqfm" ]
      },
      "contained": [ {
        "resourceType": "Parameters",
        "id": "ab26a01c-905c-4af9-bf47-7d1bc77dc937-parameters",
        "parameter": [ {
          "name": "subject",
          "valueString": "9cc71655-c4cd-47cf-ad10-de338da53885"
        } ]
      } ],
      "extension": [ {
        "url": "http://hl7.org/fhir/StructureDefinition/cqf-inputParameters",
        "valueReference": {
          "reference": "#ab26a01c-905c-4af9-bf47-7d1bc77dc937-parameters"
        }
      }, {
        "url": "http://hl7.org/fhir/us/cqfmeasures/StructureDefinition/cqfm-testCaseDescription",
        "valueMarkdown": "Pass - IP, DEN, NUM. preterm 0 and term 0 but no Gravida and no Parity, c-section, singleton delivery\n"
      } ],
      "modifierExtension": [ {
        "url": "http://hl7.org/fhir/us/cqfmeasures/StructureDefinition/cqfm-isTestCase",
        "valueBoolean": true
      } ],
      "status": "complete",
      "type": "individual",
      "measure": "https://madie.cms.gov/Measure/CMS0334FHIRPCCesareanBirth",
      "period": {
        "start": "2026-01-01",
        "end": "2026-12-31"
      },
      "group": [ {
        "id": "Group_1",
        "population": [ {
          "id": "InitialPopulation_1",
          "code": {
            "coding": [ {
              "system": "http://terminology.hl7.org/CodeSystem/measure-population",
              "code": "initial-population",
              "display": "Initial Population"
            } ]
          },
          "count": 1
        }, {
          "id": "Denominator_1",
          "code": {
            "coding": [ {
              "system": "http://terminology.hl7.org/CodeSystem/measure-population",
              "code": "denominator",
              "display": "Denominator"
            } ]
          },
          "count": 1
        }, {
          "id": "DenominatorExclusion_1",
          "code": {
            "coding": [ {
              "system": "http://terminology.hl7.org/CodeSystem/measure-population",
              "code": "denominator-exclusion",
              "display": "Denominator Exclusion"
            } ]
          },
          "count": 0
        }, {
          "id": "Numerator_1",
          "code": {
            "coding": [ {
              "system": "http://terminology.hl7.org/CodeSystem/measure-population",
              "code": "numerator",
              "display": "Numerator"
            } ]
          },
          "count": 1
        } ],
        "measureScore": {
          "value": 0.0
        }
      } ],
      "evaluatedResource": [ {
        "reference": "Patient/9cc71655-c4cd-47cf-ad10-de338da53885"
      }, {
        "reference": "Observation/6b4998de-8fda-421a-821a-22ac720fe1ca"
      }, {
        "reference": "Observation/6071e096-2595-4b64-b7e0-623bb4f4320e"
      }, {
        "reference": "Observation/1bf0db99-f444-4377-9083-95d46c5c3bb9"
      }, {
        "reference": "Observation/a11fae48-4976-4575-bb17-96c3a32b2290"
      }, {
        "reference": "Encounter/b512583c-7e99-4251-86d1-c1326e34cba5"
      }, {
        "reference": "Procedure/3613a19d-4451-47ed-830f-5b6b4d645a4a"
      }, {
        "reference": "Condition/6f6eb6e5-2cb6-4c80-b284-b2f83ab4498e"
      }, {
        "reference": "Coverage/bed9b372-8fe0-4721-a911-1109f25dade0"
      }, {
        "reference": "Organization/16d1ee98-db58-4700-a41b-e9987b4ec20d"
      }, {
        "reference": "Practitioner/2ba35a08-09a4-4eca-8a19-144e0b92f287"
      } ]
    },
    "request": {
      "method": "PUT",
      "url": "MeasureReport/d2b249f0-75fb-4760-8050-63aa4f9a9efa"
    }
  } ]
}