{
  "resourceType": "Bundle",
  "id": "tests-DENEXPass-TestCase-DialysisAfter48Hrs",
  "type": "transaction",
  "entry": [ {
    "fullUrl": "https://madie.cms.gov/Procedure/158fcac3-c041-4520-a77a-9cffe5807bf5",
    "resource": {
      "resourceType": "Procedure",
      "id": "158fcac3-c041-4520-a77a-9cffe5807bf5",
      "meta": {
        "profile": [ "http://hl7.org/fhir/us/qicore/StructureDefinition/qicore-procedure" ]
      },
      "status": "completed",
      "code": {
        "coding": [ {
          "system": "http://snomed.info/sct",
          "code": "11932001"
        } ]
      },
      "subject": {
        "reference": "Patient/01690915-1402-4a49-80a0-24d094512c0a"
      },
      "performedDateTime": "2026-12-17T08:00:00.000+00:00",
      "performer": [ {
        "actor": {
          "reference": "Practitioner/Practitioner-1"
        }
      } ]
    },
    "request": {
      "method": "PUT",
      "url": "Procedure/158fcac3-c041-4520-a77a-9cffe5807bf5"
    }
  }, {
    "fullUrl": "https://madie.cms.gov/Observation/5a2b377a-7867-4ac6-b60c-56c6ab3eb716",
    "resource": {
      "resourceType": "Observation",
      "id": "5a2b377a-7867-4ac6-b60c-56c6ab3eb716",
      "meta": {
        "profile": [ "http://hl7.org/fhir/us/qicore/StructureDefinition/qicore-observation-lab" ]
      },
      "status": "final",
      "category": [ {
        "coding": [ {
          "system": "http://terminology.hl7.org/CodeSystem/observation-category",
          "code": "laboratory",
          "display": "Laboratory"
        } ]
      } ],
      "code": {
        "coding": [ {
          "system": "http://loinc.org",
          "version": "2.72",
          "code": "21232-4",
          "display": "Creatinine [Mass/volume] in Serum or Plasma"
        } ]
      },
      "subject": {
        "reference": "Patient/01690915-1402-4a49-80a0-24d094512c0a"
      },
      "effectiveDateTime": "2026-12-16T08:01:00.000+00:00",
      "valueQuantity": {
        "value": 1,
        "unit": "mg/dL",
        "system": "http://unitsofmeasure.org",
        "code": "mg/dL"
      }
    },
    "request": {
      "method": "PUT",
      "url": "Observation/5a2b377a-7867-4ac6-b60c-56c6ab3eb716"
    }
  }, {
    "fullUrl": "https://madie.cms.gov/Encounter/fd4586df-47fe-4f6f-83c2-61bef25fa202",
    "resource": {
      "resourceType": "Encounter",
      "id": "fd4586df-47fe-4f6f-83c2-61bef25fa202",
      "meta": {
        "profile": [ "http://hl7.org/fhir/us/qicore/StructureDefinition/qicore-encounter" ]
      },
      "status": "finished",
      "class": {
        "system": "http://terminology.hl7.org/CodeSystem/v3-ActCode",
        "code": "IMP",
        "display": "inpatient encounter"
      },
      "type": [ {
        "coding": [ {
          "system": "http://snomed.info/sct",
          "code": "183452005"
        } ]
      } ],
      "subject": {
        "reference": "Patient/01690915-1402-4a49-80a0-24d094512c0a"
      },
      "period": {
        "start": "2026-12-16T08:00:00.000+00:00",
        "end": "2026-12-24T08:15:00.000+00:00"
      }
    },
    "request": {
      "method": "PUT",
      "url": "Encounter/fd4586df-47fe-4f6f-83c2-61bef25fa202"
    }
  }, {
    "fullUrl": "https://madie.cms.gov/Observation/d50b54dc-b3fd-4b5a-8edb-bcb9cbcf456c",
    "resource": {
      "resourceType": "Observation",
      "id": "d50b54dc-b3fd-4b5a-8edb-bcb9cbcf456c",
      "meta": {
        "profile": [ "http://hl7.org/fhir/us/qicore/StructureDefinition/qicore-observation-lab" ]
      },
      "status": "final",
      "category": [ {
        "coding": [ {
          "system": "http://terminology.hl7.org/CodeSystem/observation-category",
          "code": "laboratory",
          "display": "Laboratory"
        } ]
      } ],
      "code": {
        "coding": [ {
          "system": "http://loinc.org",
          "version": "2.72",
          "code": "21232-4",
          "display": "Creatinine [Mass/volume] in Serum or Plasma"
        } ]
      },
      "subject": {
        "reference": "Patient/01690915-1402-4a49-80a0-24d094512c0a"
      },
      "effectiveDateTime": "2026-12-18T08:01:00.000+00:00",
      "valueQuantity": {
        "value": 1,
        "unit": "mg/dL",
        "system": "http://unitsofmeasure.org",
        "code": "mg/dL"
      }
    },
    "request": {
      "method": "PUT",
      "url": "Observation/d50b54dc-b3fd-4b5a-8edb-bcb9cbcf456c"
    }
  }, {
    "fullUrl": "https://madie.cms.gov/Observation/9f9a3bdb-6491-4bd6-8653-e657bc62e332",
    "resource": {
      "resourceType": "Observation",
      "id": "9f9a3bdb-6491-4bd6-8653-e657bc62e332",
      "meta": {
        "profile": [ "http://hl7.org/fhir/us/qicore/StructureDefinition/qicore-observation-lab" ]
      },
      "status": "final",
      "category": [ {
        "coding": [ {
          "system": "http://terminology.hl7.org/CodeSystem/observation-category",
          "code": "laboratory",
          "display": "Laboratory"
        } ]
      } ],
      "code": {
        "coding": [ {
          "system": "http://loinc.org",
          "version": "2.72",
          "code": "21232-4",
          "display": "Creatinine [Mass/volume] in Serum or Plasma"
        } ]
      },
      "subject": {
        "reference": "Patient/01690915-1402-4a49-80a0-24d094512c0a"
      },
      "effectiveDateTime": "2026-12-17T08:01:00.000+00:00",
      "valueQuantity": {
        "value": 1,
        "unit": "mg/dL",
        "system": "http://unitsofmeasure.org",
        "code": "mg/dL"
      }
    },
    "request": {
      "method": "PUT",
      "url": "Observation/9f9a3bdb-6491-4bd6-8653-e657bc62e332"
    }
  }, {
    "fullUrl": "https://madie.cms.gov/Patient/01690915-1402-4a49-80a0-24d094512c0a",
    "resource": {
      "resourceType": "Patient",
      "id": "01690915-1402-4a49-80a0-24d094512c0a",
      "meta": {
        "profile": [ "http://hl7.org/fhir/us/qicore/StructureDefinition/qicore-patient" ]
      },
      "extension": [ {
        "url": "http://hl7.org/fhir/us/core/StructureDefinition/us-core-race",
        "extension": [ {
          "url": "ombCategory",
          "valueCoding": {
            "system": "urn:oid:2.16.840.1.113883.6.238",
            "code": "2106-3",
            "display": "White"
          }
        }, {
          "url": "text",
          "valueString": "White"
        } ]
      }, {
        "url": "http://hl7.org/fhir/us/core/StructureDefinition/us-core-ethnicity",
        "extension": [ {
          "url": "ombCategory",
          "valueCoding": {
            "system": "urn:oid:2.16.840.1.113883.6.238",
            "code": "2135-2",
            "display": "Hispanic or Latino"
          }
        }, {
          "url": "text",
          "valueString": "Hispanic or Latino"
        } ]
      }, {
        "url": "http://hl7.org/fhir/us/core/StructureDefinition/us-core-sex",
        "valueCode": "248153007"
      } ],
      "identifier": [ {
        "system": "http://hospital.smarthealthit.org",
        "value": "999999999"
      } ],
      "name": [ {
        "family": "DialysisBefore48Hrs",
        "given": [ "DENEXPass" ]
      } ],
      "gender": "male",
      "birthDate": "1956-01-01"
    },
    "request": {
      "method": "PUT",
      "url": "Patient/01690915-1402-4a49-80a0-24d094512c0a"
    }
  }, {
    "fullUrl": "https://madie.cms.gov/MeasureReport/410d4e40-d11d-457d-b360-f51c536b7e77",
    "resource": {
      "resourceType": "MeasureReport",
      "id": "410d4e40-d11d-457d-b360-f51c536b7e77",
      "meta": {
        "profile": [ "http://hl7.org/fhir/us/cqfmeasures/StructureDefinition/test-case-cqfm" ]
      },
      "contained": [ {
        "resourceType": "Parameters",
        "id": "ef7ba0c2-a182-4d5a-b00d-b1a7d091b876-parameters",
        "parameter": [ {
          "name": "subject",
          "valueString": "01690915-1402-4a49-80a0-24d094512c0a"
        } ]
      } ],
      "extension": [ {
        "url": "http://hl7.org/fhir/StructureDefinition/cqf-inputParameters",
        "valueReference": {
          "reference": "#ef7ba0c2-a182-4d5a-b00d-b1a7d091b876-parameters"
        }
      }, {
        "url": "http://hl7.org/fhir/us/cqfmeasures/StructureDefinition/cqfm-testCaseDescription",
        "valueMarkdown": "IP encounter with Dialysis before 48 hours of encounter start. Meets DenEx"
      } ],
      "modifierExtension": [ {
        "url": "http://hl7.org/fhir/us/cqfmeasures/StructureDefinition/cqfm-isTestCase",
        "valueBoolean": true
      } ],
      "status": "complete",
      "type": "individual",
      "measure": "https://madie.cms.gov/Measure/CMS832FHIRHHAKI",
      "period": {
        "start": "2026-01-01",
        "end": "2026-12-31"
      },
      "group": [ {
        "id": "Group_1",
        "population": [ {
          "id": "InitialPopulation_1",
          "code": {
            "coding": [ {
              "system": "http://terminology.hl7.org/CodeSystem/measure-population",
              "code": "initial-population",
              "display": "Initial Population"
            } ]
          },
          "count": 1
        }, {
          "id": "Denominator_1",
          "code": {
            "coding": [ {
              "system": "http://terminology.hl7.org/CodeSystem/measure-population",
              "code": "denominator",
              "display": "Denominator"
            } ]
          },
          "count": 1
        }, {
          "id": "DenominatorExclusion_1",
          "code": {
            "coding": [ {
              "system": "http://terminology.hl7.org/CodeSystem/measure-population",
              "code": "denominator-exclusion",
              "display": "Denominator Exclusion"
            } ]
          },
          "count": 1
        }, {
          "id": "Numerator_1",
          "code": {
            "coding": [ {
              "system": "http://terminology.hl7.org/CodeSystem/measure-population",
              "code": "numerator",
              "display": "Numerator"
            } ]
          },
          "count": 0
        } ],
        "measureScore": {
          "value": 0.0
        }
      } ],
      "evaluatedResource": [ {
        "reference": "Procedure/158fcac3-c041-4520-a77a-9cffe5807bf5"
      }, {
        "reference": "Observation/5a2b377a-7867-4ac6-b60c-56c6ab3eb716"
      }, {
        "reference": "Encounter/fd4586df-47fe-4f6f-83c2-61bef25fa202"
      }, {
        "reference": "Observation/d50b54dc-b3fd-4b5a-8edb-bcb9cbcf456c"
      }, {
        "reference": "Observation/9f9a3bdb-6491-4bd6-8653-e657bc62e332"
      }, {
        "reference": "Patient/01690915-1402-4a49-80a0-24d094512c0a"
      } ]
    },
    "request": {
      "method": "PUT",
      "url": "MeasureReport/410d4e40-d11d-457d-b360-f51c536b7e77"
    }
  } ]
}