{
  "resourceType": "Bundle",
  "id": "NUMER2and3PASS-SeizureDisorderEnds1YrB4MP",
  "type": "transaction",
  "entry": [ {
    "fullUrl": "https://madie.cms.gov/Patient/8e648527-5b7e-430c-b5ca-fe70a4133d55",
    "resource": {
      "resourceType": "Patient",
      "id": "8e648527-5b7e-430c-b5ca-fe70a4133d55",
      "meta": {
        "profile": [ "http://hl7.org/fhir/us/qicore/StructureDefinition/qicore-patient" ]
      },
      "extension": [ {
        "url": "http://hl7.org/fhir/us/core/StructureDefinition/us-core-race",
        "extension": [ {
          "url": "ombCategory",
          "valueCoding": {
            "system": "urn:oid:2.16.840.1.113883.6.238",
            "code": "2028-9",
            "display": "Asian",
            "userSelected": true
          }
        }, {
          "url": "text",
          "valueString": "Asian"
        } ]
      }, {
        "url": "http://hl7.org/fhir/us/core/StructureDefinition/us-core-ethnicity",
        "extension": [ {
          "url": "ombCategory",
          "valueCoding": {
            "system": "urn:oid:2.16.840.1.113883.6.238",
            "code": "2135-2",
            "display": "Hispanic or Latino",
            "userSelected": true
          }
        }, {
          "url": "text",
          "valueString": "Hispanic or Latino"
        } ]
      } ],
      "identifier": [ {
        "type": {
          "coding": [ {
            "system": "http://terminology.hl7.org/CodeSystem/v2-0203",
            "code": "MR"
          } ]
        },
        "system": "http://hospital.smarthealthit.org",
        "value": "999999995"
      } ],
      "name": [ {
        "family": "Bertha",
        "given": [ "Betty" ]
      } ],
      "gender": "female",
      "birthDate": "1961-01-01"
    },
    "request": {
      "method": "PUT",
      "url": "Patient/8e648527-5b7e-430c-b5ca-fe70a4133d55"
    }
  }, {
    "fullUrl": "https://madie.cms.gov/Encounter/be6279f0-04df-4248-97e7-31618af7f588",
    "resource": {
      "resourceType": "Encounter",
      "id": "be6279f0-04df-4248-97e7-31618af7f588",
      "meta": {
        "profile": [ "http://hl7.org/fhir/us/qicore/StructureDefinition/qicore-encounter" ]
      },
      "status": "finished",
      "class": {
        "system": "http://terminology.hl7.org/CodeSystem/v3-ActCode",
        "code": "AMB",
        "display": "ambulatory"
      },
      "type": [ {
        "coding": [ {
          "system": "http://snomed.info/sct",
          "code": "185317003",
          "display": "Telephone encounter (procedure)"
        } ]
      } ],
      "subject": {
        "reference": "Patient/8e648527-5b7e-430c-b5ca-fe70a4133d55"
      },
      "period": {
        "start": "2026-01-01T00:00:00.000+00:00",
        "end": "2026-01-01T01:15:00.000+00:00"
      }
    },
    "request": {
      "method": "PUT",
      "url": "Encounter/be6279f0-04df-4248-97e7-31618af7f588"
    }
  }, {
    "fullUrl": "https://madie.cms.gov/Condition/85348990-1be7-4f87-9a97-7f10fd7294dc",
    "resource": {
      "resourceType": "Condition",
      "id": "85348990-1be7-4f87-9a97-7f10fd7294dc",
      "meta": {
        "profile": [ "http://hl7.org/fhir/us/qicore/StructureDefinition/qicore-condition-problems-health-concerns" ]
      },
      "clinicalStatus": {
        "coding": [ {
          "system": "http://terminology.hl7.org/CodeSystem/condition-clinical",
          "code": "resolved"
        } ]
      },
      "category": [ {
        "coding": [ {
          "system": "http://terminology.hl7.org/CodeSystem/condition-category",
          "code": "problem-list-item",
          "display": "Problem List Item"
        } ]
      } ],
      "code": {
        "coding": [ {
          "system": "http://snomed.info/sct",
          "code": "1163527006",
          "display": "Epilepsy due to parasitic disease (disorder)"
        } ]
      },
      "subject": {
        "reference": "Patient/8e648527-5b7e-430c-b5ca-fe70a4133d55"
      },
      "onsetDateTime": "2024-01-01T00:00:00.000+00:00",
      "abatementDateTime": "2024-12-31T23:59:59.000+00:00"
    },
    "request": {
      "method": "PUT",
      "url": "Condition/85348990-1be7-4f87-9a97-7f10fd7294dc"
    }
  }, {
    "fullUrl": "https://madie.cms.gov/MedicationRequest/67eccff3-a3e5-4575-a346-c6938f568d94",
    "resource": {
      "resourceType": "MedicationRequest",
      "id": "67eccff3-a3e5-4575-a346-c6938f568d94",
      "meta": {
        "profile": [ "http://hl7.org/fhir/us/qicore/StructureDefinition/qicore-medicationrequest" ]
      },
      "status": "active",
      "intent": "order",
      "category": [ {
        "coding": [ {
          "system": "http://terminology.hl7.org/CodeSystem/medicationrequest-category",
          "code": "discharge",
          "display": "Discharge"
        } ]
      } ],
      "medicationCodeableConcept": {
        "coding": [ {
          "system": "http://www.nlm.nih.gov/research/umls/rxnorm",
          "code": "1366192",
          "display": "clobazam 2.5 MG/ML Oral Suspension",
          "userSelected": true
        } ]
      },
      "subject": {
        "reference": "Patient/8e648527-5b7e-430c-b5ca-fe70a4133d55"
      },
      "authoredOn": "2026-01-01T00:00:00.000+00:00",
      "requester": {
        "reference": "Practitioner/example"
      }
    },
    "request": {
      "method": "PUT",
      "url": "MedicationRequest/67eccff3-a3e5-4575-a346-c6938f568d94"
    }
  }, {
    "fullUrl": "https://madie.cms.gov/MedicationRequest/65232b7e-6b98-4d3d-ab1f-beba2a2eff07",
    "resource": {
      "resourceType": "MedicationRequest",
      "id": "65232b7e-6b98-4d3d-ab1f-beba2a2eff07",
      "meta": {
        "profile": [ "http://hl7.org/fhir/us/qicore/StructureDefinition/qicore-medicationrequest" ]
      },
      "status": "active",
      "intent": "order",
      "category": [ {
        "coding": [ {
          "system": "http://terminology.hl7.org/CodeSystem/medicationrequest-category",
          "code": "discharge",
          "display": "Discharge"
        } ]
      } ],
      "medicationCodeableConcept": {
        "coding": [ {
          "system": "http://www.nlm.nih.gov/research/umls/rxnorm",
          "code": "1366192",
          "display": "clobazam 2.5 MG/ML Oral Suspension",
          "userSelected": true
        } ]
      },
      "subject": {
        "reference": "Patient/8e648527-5b7e-430c-b5ca-fe70a4133d55"
      },
      "authoredOn": "2026-12-31T23:59:00.000+00:00",
      "requester": {
        "reference": "Practitioner/example"
      }
    },
    "request": {
      "method": "PUT",
      "url": "MedicationRequest/65232b7e-6b98-4d3d-ab1f-beba2a2eff07"
    }
  }, {
    "fullUrl": "https://madie.cms.gov/MeasureReport/0dcd49bb-3eb9-41be-b9ec-2d4cbb9469fb",
    "resource": {
      "resourceType": "MeasureReport",
      "id": "0dcd49bb-3eb9-41be-b9ec-2d4cbb9469fb",
      "meta": {
        "profile": [ "http://hl7.org/fhir/us/cqfmeasures/StructureDefinition/test-case-cqfm" ]
      },
      "contained": [ {
        "resourceType": "Parameters",
        "id": "9e36f0ac-9e34-438d-bd10-330951679946-parameters",
        "parameter": [ {
          "name": "subject",
          "valueString": "8e648527-5b7e-430c-b5ca-fe70a4133d55"
        } ]
      } ],
      "extension": [ {
        "url": "http://hl7.org/fhir/StructureDefinition/cqf-inputParameters",
        "valueReference": {
          "reference": "#9e36f0ac-9e34-438d-bd10-330951679946-parameters"
        }
      }, {
        "url": "http://hl7.org/fhir/us/cqfmeasures/StructureDefinition/cqfm-testCaseDescription",
        "valueMarkdown": "Seizure disorder ends 1 year before MP"
      } ],
      "modifierExtension": [ {
        "url": "http://hl7.org/fhir/us/cqfmeasures/StructureDefinition/cqfm-isTestCase",
        "valueBoolean": true
      } ],
      "status": "complete",
      "type": "individual",
      "measure": "https://madie.cms.gov/Measure/CMS156FHIRHighRiskMedsElderly",
      "period": {
        "start": "2026-01-01",
        "end": "2026-12-31"
      },
      "group": [ {
        "id": "Group_1",
        "population": [ {
          "id": "InitialPopulation_1",
          "code": {
            "coding": [ {
              "system": "http://terminology.hl7.org/CodeSystem/measure-population",
              "code": "initial-population",
              "display": "Initial Population"
            } ]
          },
          "count": 1
        }, {
          "id": "Denominator_1",
          "code": {
            "coding": [ {
              "system": "http://terminology.hl7.org/CodeSystem/measure-population",
              "code": "denominator",
              "display": "Denominator"
            } ]
          },
          "count": 1
        }, {
          "id": "DenominatorExclusion_1",
          "code": {
            "coding": [ {
              "system": "http://terminology.hl7.org/CodeSystem/measure-population",
              "code": "denominator-exclusion",
              "display": "Denominator Exclusion"
            } ]
          },
          "count": 0
        }, {
          "id": "Numerator_1",
          "code": {
            "coding": [ {
              "system": "http://terminology.hl7.org/CodeSystem/measure-population",
              "code": "numerator",
              "display": "Numerator"
            } ]
          },
          "count": 0
        } ],
        "measureScore": {
          "value": 1.0
        }
      }, {
        "id": "Group_2",
        "population": [ {
          "id": "InitialPopulation_2",
          "code": {
            "coding": [ {
              "system": "http://terminology.hl7.org/CodeSystem/measure-population",
              "code": "initial-population",
              "display": "Initial Population"
            } ]
          },
          "count": 1
        }, {
          "id": "Denominator_2",
          "code": {
            "coding": [ {
              "system": "http://terminology.hl7.org/CodeSystem/measure-population",
              "code": "denominator",
              "display": "Denominator"
            } ]
          },
          "count": 1
        }, {
          "id": "DenominatorExclusion_2",
          "code": {
            "coding": [ {
              "system": "http://terminology.hl7.org/CodeSystem/measure-population",
              "code": "denominator-exclusion",
              "display": "Denominator Exclusion"
            } ]
          },
          "count": 0
        }, {
          "id": "Numerator_2",
          "code": {
            "coding": [ {
              "system": "http://terminology.hl7.org/CodeSystem/measure-population",
              "code": "numerator",
              "display": "Numerator"
            } ]
          },
          "count": 1
        } ],
        "measureScore": {
          "value": 1.0
        }
      }, {
        "id": "Group_3",
        "population": [ {
          "id": "InitialPopulation_3",
          "code": {
            "coding": [ {
              "system": "http://terminology.hl7.org/CodeSystem/measure-population",
              "code": "initial-population",
              "display": "Initial Population"
            } ]
          },
          "count": 1
        }, {
          "id": "Denominator_3",
          "code": {
            "coding": [ {
              "system": "http://terminology.hl7.org/CodeSystem/measure-population",
              "code": "denominator",
              "display": "Denominator"
            } ]
          },
          "count": 1
        }, {
          "id": "DenominatorExclusion_3",
          "code": {
            "coding": [ {
              "system": "http://terminology.hl7.org/CodeSystem/measure-population",
              "code": "denominator-exclusion",
              "display": "Denominator Exclusion"
            } ]
          },
          "count": 0
        }, {
          "id": "Numerator_3",
          "code": {
            "coding": [ {
              "system": "http://terminology.hl7.org/CodeSystem/measure-population",
              "code": "numerator",
              "display": "Numerator"
            } ]
          },
          "count": 1
        } ],
        "measureScore": {
          "value": 1.0
        }
      } ],
      "evaluatedResource": [ {
        "reference": "Patient/8e648527-5b7e-430c-b5ca-fe70a4133d55"
      }, {
        "reference": "Encounter/be6279f0-04df-4248-97e7-31618af7f588"
      }, {
        "reference": "Condition/85348990-1be7-4f87-9a97-7f10fd7294dc"
      }, {
        "reference": "MedicationRequest/67eccff3-a3e5-4575-a346-c6938f568d94"
      }, {
        "reference": "MedicationRequest/65232b7e-6b98-4d3d-ab1f-beba2a2eff07"
      } ]
    },
    "request": {
      "method": "PUT",
      "url": "MeasureReport/0dcd49bb-3eb9-41be-b9ec-2d4cbb9469fb"
    }
  } ]
}