{
  "resourceType": "Bundle",
  "id": "11133350414ba67d4e1d55ef",
  "type": "transaction",
  "entry": [ {
    "fullUrl": "https://madie.cms.gov/Patient/47d0b311-ce53-42ec-a846-d22231bc1003",
    "resource": {
      "resourceType": "Patient",
      "id": "47d0b311-ce53-42ec-a846-d22231bc1003",
      "meta": {
        "profile": [ "http://hl7.org/fhir/us/qicore/StructureDefinition/qicore-patient" ]
      },
      "extension": [ {
        "url": "http://hl7.org/fhir/us/core/StructureDefinition/us-core-race",
        "extension": [ {
          "url": "ombCategory",
          "valueCoding": {
            "system": "urn:oid:2.16.840.1.113883.6.238",
            "code": "2028-9",
            "display": "Asian",
            "userSelected": true
          }
        }, {
          "url": "text",
          "valueString": "Asian"
        } ]
      }, {
        "url": "http://hl7.org/fhir/us/core/StructureDefinition/us-core-ethnicity",
        "extension": [ {
          "url": "ombCategory",
          "valueCoding": {
            "system": "urn:oid:2.16.840.1.113883.6.238",
            "code": "2186-5",
            "display": "Not Hispanic or Latino",
            "userSelected": true
          }
        }, {
          "url": "text",
          "valueString": "Not Hispanic or Latino"
        } ]
      } ],
      "identifier": [ {
        "system": "http://hospital.smarthealthit.org",
        "value": "999999999"
      } ],
      "name": [ {
        "family": "DENEXFail",
        "given": [ "MOUDDayBeforeOUDOnset" ]
      } ],
      "gender": "male",
      "birthDate": "1988-02-01"
    },
    "request": {
      "method": "PUT",
      "url": "Patient/47d0b311-ce53-42ec-a846-d22231bc1003"
    }
  }, {
    "fullUrl": "https://madie.cms.gov/Encounter/75c17ab8-d1ee-4268-b3c6-8ecf95b3f3a5",
    "resource": {
      "resourceType": "Encounter",
      "id": "75c17ab8-d1ee-4268-b3c6-8ecf95b3f3a5",
      "meta": {
        "profile": [ "http://hl7.org/fhir/us/qicore/StructureDefinition/qicore-encounter" ]
      },
      "status": "finished",
      "class": {
        "system": "http://terminology.hl7.org/CodeSystem/v3-ActCode",
        "code": "IMP",
        "display": "inpatient encounter"
      },
      "type": [ {
        "coding": [ {
          "system": "http://snomed.info/sct",
          "code": "183452005",
          "display": "Emergency hospital admission (procedure)",
          "userSelected": true
        } ]
      } ],
      "subject": {
        "reference": "Patient/47d0b311-ce53-42ec-a846-d22231bc1003"
      },
      "period": {
        "start": "2026-08-01T11:45:00.000+00:00",
        "end": "2026-08-03T11:59:00.000+00:00"
      }
    },
    "request": {
      "method": "PUT",
      "url": "Encounter/75c17ab8-d1ee-4268-b3c6-8ecf95b3f3a5"
    }
  }, {
    "fullUrl": "https://madie.cms.gov/MedicationRequest/b50c2b94-6b43-45c9-96bc-89b442056849",
    "resource": {
      "resourceType": "MedicationRequest",
      "id": "b50c2b94-6b43-45c9-96bc-89b442056849",
      "meta": {
        "profile": [ "http://hl7.org/fhir/us/qicore/StructureDefinition/qicore-medicationrequest" ]
      },
      "status": "completed",
      "intent": "order",
      "category": [ {
        "coding": [ {
          "system": "http://terminology.hl7.org/CodeSystem/medicationrequest-category",
          "code": "discharge",
          "display": "Discharge",
          "userSelected": true
        } ]
      } ],
      "doNotPerform": false,
      "medicationCodeableConcept": {
        "coding": [ {
          "system": "http://www.nlm.nih.gov/research/umls/rxnorm",
          "code": "2103192",
          "display": "sufentanil 0.03 MG Sublingual Tablet",
          "userSelected": true
        } ]
      },
      "subject": {
        "reference": "Patient/47d0b311-ce53-42ec-a846-d22231bc1003"
      },
      "authoredOn": "2026-08-03T11:59:00.000+00:00",
      "requester": {
        "reference": "Practitioner/e976da97-6566-47ca-91b2-f3a364efc076"
      }
    },
    "request": {
      "method": "PUT",
      "url": "MedicationRequest/b50c2b94-6b43-45c9-96bc-89b442056849"
    }
  }, {
    "fullUrl": "https://madie.cms.gov/Practitioner/e976da97-6566-47ca-91b2-f3a364efc076",
    "resource": {
      "resourceType": "Practitioner",
      "id": "e976da97-6566-47ca-91b2-f3a364efc076",
      "meta": {
        "profile": [ "http://hl7.org/fhir/us/qicore/StructureDefinition/qicore-practitioner" ]
      },
      "identifier": [ {
        "system": "http://hl7.org/fhir/sid/us-npi",
        "value": "9999999896"
      } ],
      "active": true,
      "name": [ {
        "family": "Ramires",
        "given": [ "Alma" ],
        "prefix": [ "Dr" ]
      } ],
      "address": [ {
        "use": "home",
        "line": [ "534 Erewhon St" ],
        "city": "Netherville",
        "state": "IN",
        "postalCode": "46131"
      } ],
      "qualification": [ {
        "identifier": [ {
          "system": "http://goodhealth.org/prIdentifier",
          "value": "12345"
        } ],
        "code": {
          "coding": [ {
            "system": "http://terminology.hl7.org/CodeSystem/v2-0360|2.7",
            "code": "BS",
            "display": "Bachelor of Science"
          } ],
          "text": "Bachelor of Science"
        },
        "period": {
          "start": "1995"
        },
        "issuer": {
          "display": "Example University"
        }
      } ]
    },
    "request": {
      "method": "PUT",
      "url": "Practitioner/e976da97-6566-47ca-91b2-f3a364efc076"
    }
  }, {
    "fullUrl": "https://madie.cms.gov/Condition/776d9375-2c4f-469a-a55f-966a16151e95",
    "resource": {
      "resourceType": "Condition",
      "id": "776d9375-2c4f-469a-a55f-966a16151e95",
      "meta": {
        "profile": [ "http://hl7.org/fhir/us/qicore/StructureDefinition/qicore-condition-problems-health-concerns" ]
      },
      "clinicalStatus": {
        "coding": [ {
          "system": "http://terminology.hl7.org/CodeSystem/condition-clinical",
          "code": "active",
          "display": "Active",
          "userSelected": true
        } ]
      },
      "verificationStatus": {
        "coding": [ {
          "system": "http://terminology.hl7.org/CodeSystem/condition-ver-status",
          "code": "confirmed",
          "display": "Confirmed",
          "userSelected": true
        } ]
      },
      "category": [ {
        "coding": [ {
          "system": "http://terminology.hl7.org/CodeSystem/condition-category",
          "code": "problem-list-item",
          "display": "Problem List Item"
        }, {
          "system": "http://snomed.info/sct",
          "code": "439401001",
          "display": "Diagnosis"
        } ]
      } ],
      "code": {
        "coding": [ {
          "system": "http://snomed.info/sct",
          "code": "75544000",
          "display": "Opioid dependence (disorder)",
          "userSelected": true
        } ]
      },
      "subject": {
        "reference": "Patient/47d0b311-ce53-42ec-a846-d22231bc1003"
      },
      "onsetPeriod": {
        "start": "2026-08-03T00:00:00.000+00:00"
      }
    },
    "request": {
      "method": "PUT",
      "url": "Condition/776d9375-2c4f-469a-a55f-966a16151e95"
    }
  }, {
    "fullUrl": "https://madie.cms.gov/MedicationRequest/5b7114ce-b9e0-4873-9e1f-362d3e13dfce",
    "resource": {
      "resourceType": "MedicationRequest",
      "id": "5b7114ce-b9e0-4873-9e1f-362d3e13dfce",
      "meta": {
        "profile": [ "http://hl7.org/fhir/us/qicore/StructureDefinition/qicore-medicationrequest" ]
      },
      "status": "active",
      "intent": "order",
      "category": [ {
        "coding": [ {
          "system": "http://terminology.hl7.org/CodeSystem/medicationrequest-category",
          "code": "community",
          "display": "Community",
          "userSelected": true
        } ]
      } ],
      "doNotPerform": false,
      "medicationCodeableConcept": {
        "coding": [ {
          "system": "http://www.nlm.nih.gov/research/umls/rxnorm",
          "code": "1010600",
          "display": "buprenorphine 2 MG / naloxone 0.5 MG Sublingual Film",
          "userSelected": true
        } ]
      },
      "subject": {
        "reference": "Patient/47d0b311-ce53-42ec-a846-d22231bc1003"
      },
      "authoredOn": "2026-08-02T00:05:00.000+00:00",
      "requester": {
        "reference": "Practitioner/e976da97-6566-47ca-91b2-f3a364efc076"
      }
    },
    "request": {
      "method": "PUT",
      "url": "MedicationRequest/5b7114ce-b9e0-4873-9e1f-362d3e13dfce"
    }
  }, {
    "fullUrl": "https://madie.cms.gov/Coverage/9216e987-b73e-4cb2-b290-926a989b0b9d",
    "resource": {
      "resourceType": "Coverage",
      "id": "9216e987-b73e-4cb2-b290-926a989b0b9d",
      "meta": {
        "profile": [ "http://hl7.org/fhir/us/qicore/StructureDefinition/qicore-coverage" ]
      },
      "status": "active",
      "subscriberId": "523435",
      "beneficiary": {
        "reference": "Patient/47d0b311-ce53-42ec-a846-d22231bc1003"
      },
      "relationship": {
        "coding": [ {
          "system": "http://terminology.hl7.org/CodeSystem/subscriber-relationship",
          "code": "self"
        } ]
      },
      "payor": [ {
        "reference": "Organization/c15b05d3-0136-4ff3-a3ce-b04b9d63c845"
      } ]
    },
    "request": {
      "method": "PUT",
      "url": "Coverage/9216e987-b73e-4cb2-b290-926a989b0b9d"
    }
  }, {
    "fullUrl": "https://madie.cms.gov/Organization/c15b05d3-0136-4ff3-a3ce-b04b9d63c845",
    "resource": {
      "resourceType": "Organization",
      "id": "c15b05d3-0136-4ff3-a3ce-b04b9d63c845",
      "meta": {
        "profile": [ "http://hl7.org/fhir/us/qicore/StructureDefinition/qicore-organization" ]
      },
      "identifier": [ {
        "use": "temp",
        "system": "urn:oid:2.16.840.1.113883.4.4",
        "value": "21-3259825"
      } ],
      "active": true,
      "type": [ {
        "coding": [ {
          "system": "http://terminology.hl7.org/CodeSystem/organization-type",
          "code": "pay",
          "display": "Payer"
        } ]
      } ],
      "name": "Blue Cross Blue Shield of Texas",
      "telecom": [ {
        "system": "phone",
        "value": "(+1) 972-766-6900"
      } ],
      "address": [ {
        "use": "billing",
        "type": "postal",
        "line": [ "P.O. Box 660044" ],
        "city": "Dallas",
        "state": "TX",
        "postalCode": "75266-0044",
        "country": "USA"
      } ]
    },
    "request": {
      "method": "PUT",
      "url": "Organization/c15b05d3-0136-4ff3-a3ce-b04b9d63c845"
    }
  }, {
    "fullUrl": "https://madie.cms.gov/MeasureReport/7bfa9388-16f5-48ab-8dc7-a39149ceb20e",
    "resource": {
      "resourceType": "MeasureReport",
      "id": "7bfa9388-16f5-48ab-8dc7-a39149ceb20e",
      "meta": {
        "profile": [ "http://hl7.org/fhir/us/cqfmeasures/StructureDefinition/test-case-cqfm" ]
      },
      "contained": [ {
        "resourceType": "Parameters",
        "id": "03011cc2-2338-441e-ab0d-0fe9b770b008-parameters",
        "parameter": [ {
          "name": "subject",
          "valueString": "47d0b311-ce53-42ec-a846-d22231bc1003"
        } ]
      } ],
      "extension": [ {
        "url": "http://hl7.org/fhir/StructureDefinition/cqf-inputParameters",
        "valueReference": {
          "reference": "#03011cc2-2338-441e-ab0d-0fe9b770b008-parameters"
        }
      }, {
        "url": "http://hl7.org/fhir/us/cqfmeasures/StructureDefinition/cqfm-testCaseDescription",
        "valueMarkdown": "Encounter 8/1 - 8/3 of MP, pt OUD onset day after MOUD authoredOn"
      } ],
      "modifierExtension": [ {
        "url": "http://hl7.org/fhir/us/cqfmeasures/StructureDefinition/cqfm-isTestCase",
        "valueBoolean": true
      } ],
      "status": "complete",
      "type": "individual",
      "measure": "https://madie.cms.gov/Measure/CMS506FHIRSafeUseofOpioids",
      "period": {
        "start": "2026-01-01",
        "end": "2026-12-31"
      },
      "group": [ {
        "id": "Group_1",
        "population": [ {
          "id": "InitialPopulation_1",
          "code": {
            "coding": [ {
              "system": "http://terminology.hl7.org/CodeSystem/measure-population",
              "code": "initial-population",
              "display": "Initial Population"
            } ]
          },
          "count": 1
        }, {
          "id": "Denominator_1",
          "code": {
            "coding": [ {
              "system": "http://terminology.hl7.org/CodeSystem/measure-population",
              "code": "denominator",
              "display": "Denominator"
            } ]
          },
          "count": 1
        }, {
          "id": "DenominatorExclusion_1",
          "code": {
            "coding": [ {
              "system": "http://terminology.hl7.org/CodeSystem/measure-population",
              "code": "denominator-exclusion",
              "display": "Denominator Exclusion"
            } ]
          },
          "count": 0
        }, {
          "id": "Numerator_1",
          "code": {
            "coding": [ {
              "system": "http://terminology.hl7.org/CodeSystem/measure-population",
              "code": "numerator",
              "display": "Numerator"
            } ]
          },
          "count": 0
        } ],
        "measureScore": {
          "value": 0.0
        }
      } ],
      "evaluatedResource": [ {
        "reference": "Patient/47d0b311-ce53-42ec-a846-d22231bc1003"
      }, {
        "reference": "Encounter/75c17ab8-d1ee-4268-b3c6-8ecf95b3f3a5"
      }, {
        "reference": "MedicationRequest/b50c2b94-6b43-45c9-96bc-89b442056849"
      }, {
        "reference": "Practitioner/e976da97-6566-47ca-91b2-f3a364efc076"
      }, {
        "reference": "Condition/776d9375-2c4f-469a-a55f-966a16151e95"
      }, {
        "reference": "MedicationRequest/5b7114ce-b9e0-4873-9e1f-362d3e13dfce"
      }, {
        "reference": "Coverage/9216e987-b73e-4cb2-b290-926a989b0b9d"
      }, {
        "reference": "Organization/c15b05d3-0136-4ff3-a3ce-b04b9d63c845"
      } ]
    },
    "request": {
      "method": "PUT",
      "url": "MeasureReport/7bfa9388-16f5-48ab-8dc7-a39149ceb20e"
    }
  } ]
}