{
  "resourceType": "Bundle",
  "id": "61152a3b98086b7a79cbd7cc",
  "type": "transaction",
  "entry": [ {
    "fullUrl": "https://madie.cms.gov/Patient/14648731-7c20-4237-a0d1-df253fe93f40",
    "resource": {
      "resourceType": "Patient",
      "id": "14648731-7c20-4237-a0d1-df253fe93f40",
      "meta": {
        "profile": [ "http://hl7.org/fhir/us/qicore/StructureDefinition/qicore-patient" ]
      },
      "text": {
        "status": "generated",
        "div": "<div xmlns=\"http://www.w3.org/1999/xhtml\"><div class=\"hapiHeaderText\">MedsinEDNotPartofEncounter <b>IPPFAIL </b></div><table class=\"hapiPropertyTable\"><tbody><tr><td>Identifier</td><td>5b7cc01a21aeaa554832a51d3fe6107cf73735defd6e28caa799f2b9a67efcc4</td></tr><tr><td>Date of birth</td><td><span>31 July 1992</span></td></tr></tbody></table></div>"
      },
      "extension": [ {
        "url": "http://hl7.org/fhir/us/core/StructureDefinition/us-core-race",
        "extension": [ {
          "url": "ombCategory",
          "valueCoding": {
            "system": "urn:oid:2.16.840.1.113883.6.238",
            "code": "1002-5",
            "display": "American Indian or Alaska Native",
            "userSelected": true
          }
        }, {
          "url": "text",
          "valueString": "American Indian or Alaska Native"
        }, {
          "url": "detailed",
          "valueCoding": {
            "system": "urn:oid:2.16.840.1.113883.6.238",
            "code": "1653-5",
            "display": "Tohono O'Odham"
          }
        } ]
      }, {
        "url": "http://hl7.org/fhir/us/core/StructureDefinition/us-core-ethnicity",
        "extension": [ {
          "url": "ombCategory",
          "valueCoding": {
            "system": "urn:oid:2.16.840.1.113883.6.238",
            "code": "2135-2",
            "display": "Hispanic or Latino",
            "userSelected": true
          }
        }, {
          "url": "text",
          "valueString": "Hispanic or Latino"
        }, {
          "url": "detailed",
          "valueCoding": {
            "system": "urn:oid:2.16.840.1.113883.6.238",
            "code": "2153-5",
            "display": "Mexican American Indian"
          }
        } ]
      } ],
      "identifier": [ {
        "type": {
          "coding": [ {
            "system": "http://terminology.hl7.org/CodeSystem/v2-0203",
            "code": "MR"
          } ]
        },
        "system": "https://bonnie-fhir.healthit.gov/",
        "value": "61152a3b98086b7a79cbd7cc"
      } ],
      "active": true,
      "name": [ {
        "use": "usual",
        "family": "CMSIPPFail",
        "given": [ "MedsinEDNotPartofEncounter" ]
      } ],
      "gender": "other",
      "birthDate": "1992-07-31"
    },
    "request": {
      "method": "PUT",
      "url": "Patient/14648731-7c20-4237-a0d1-df253fe93f40"
    }
  }, {
    "fullUrl": "https://madie.cms.gov/Encounter/6474a275-5d73-484f-9852-148199249933",
    "resource": {
      "resourceType": "Encounter",
      "id": "6474a275-5d73-484f-9852-148199249933",
      "meta": {
        "profile": [ "http://hl7.org/fhir/us/qicore/StructureDefinition/qicore-encounter" ]
      },
      "status": "finished",
      "class": {
        "system": "http://terminology.hl7.org/CodeSystem/v3-ActCode",
        "code": "IMP"
      },
      "type": [ {
        "coding": [ {
          "system": "http://snomed.info/sct",
          "code": "4525004"
        } ]
      } ],
      "subject": {
        "reference": "Patient/14648731-7c20-4237-a0d1-df253fe93f40"
      },
      "period": {
        "start": "2025-07-11T06:00:00.000+00:00",
        "end": "2025-07-11T07:00:00.000+00:00"
      }
    },
    "request": {
      "method": "PUT",
      "url": "Encounter/6474a275-5d73-484f-9852-148199249933"
    }
  }, {
    "fullUrl": "https://madie.cms.gov/Encounter/cbbf8794-a192-4958-a6a5-8b8eba308af6",
    "resource": {
      "resourceType": "Encounter",
      "id": "cbbf8794-a192-4958-a6a5-8b8eba308af6",
      "meta": {
        "profile": [ "http://hl7.org/fhir/us/qicore/StructureDefinition/qicore-encounter" ]
      },
      "status": "finished",
      "class": {
        "system": "http://terminology.hl7.org/CodeSystem/v3-ActCode",
        "code": "IMP"
      },
      "type": [ {
        "coding": [ {
          "system": "http://snomed.info/sct",
          "code": "183452005"
        } ]
      } ],
      "subject": {
        "reference": "Patient/14648731-7c20-4237-a0d1-df253fe93f40"
      },
      "period": {
        "start": "2025-07-11T08:01:00.000+00:00",
        "end": "2025-07-11T09:00:00.000+00:00"
      }
    },
    "request": {
      "method": "PUT",
      "url": "Encounter/cbbf8794-a192-4958-a6a5-8b8eba308af6"
    }
  }, {
    "fullUrl": "https://madie.cms.gov/Encounter/7fd3b079-74d4-46dd-9723-c9a51ae28fc7",
    "resource": {
      "resourceType": "Encounter",
      "id": "7fd3b079-74d4-46dd-9723-c9a51ae28fc7",
      "meta": {
        "profile": [ "http://hl7.org/fhir/us/qicore/StructureDefinition/qicore-encounter" ]
      },
      "status": "finished",
      "class": {
        "system": "http://terminology.hl7.org/CodeSystem/v3-ActCode",
        "code": "IMP"
      },
      "type": [ {
        "coding": [ {
          "system": "http://snomed.info/sct",
          "code": "183452005"
        } ]
      } ],
      "subject": {
        "reference": "Patient/14648731-7c20-4237-a0d1-df253fe93f40"
      },
      "period": {
        "start": "2025-07-11T10:00:00.000+00:00",
        "end": "2025-07-14T21:00:00.000+00:00"
      }
    },
    "request": {
      "method": "PUT",
      "url": "Encounter/7fd3b079-74d4-46dd-9723-c9a51ae28fc7"
    }
  }, {
    "fullUrl": "https://madie.cms.gov/MedicationAdministration/91cb98ca-14ec-48de-8b07-3db30722e63f",
    "resource": {
      "resourceType": "MedicationAdministration",
      "id": "91cb98ca-14ec-48de-8b07-3db30722e63f",
      "meta": {
        "profile": [ "http://hl7.org/fhir/us/qicore/StructureDefinition/qicore-medicationadministration" ]
      },
      "status": "completed",
      "medicationCodeableConcept": {
        "coding": [ {
          "system": "http://www.nlm.nih.gov/research/umls/rxnorm",
          "code": "1361493",
          "display": "glimepiride 6 MG Oral Tablet",
          "userSelected": true
        } ]
      },
      "subject": {
        "reference": "Patient/14648731-7c20-4237-a0d1-df253fe93f40"
      },
      "effectivePeriod": {
        "start": "2025-07-11T06:00:00.000+00:00",
        "end": "2025-07-11T07:00:00.000+00:00"
      }
    },
    "request": {
      "method": "PUT",
      "url": "MedicationAdministration/91cb98ca-14ec-48de-8b07-3db30722e63f"
    }
  }, {
    "fullUrl": "https://madie.cms.gov/MeasureReport/1f5a58cd-2804-477f-beeb-432e2a590c86",
    "resource": {
      "resourceType": "MeasureReport",
      "id": "1f5a58cd-2804-477f-beeb-432e2a590c86",
      "meta": {
        "profile": [ "http://hl7.org/fhir/us/cqfmeasures/StructureDefinition/test-case-cqfm" ]
      },
      "contained": [ {
        "resourceType": "Parameters",
        "id": "1881f3ea-b415-4e7c-8e0b-ad129435a956-parameters",
        "parameter": [ {
          "name": "subject",
          "valueString": "14648731-7c20-4237-a0d1-df253fe93f40"
        } ]
      } ],
      "extension": [ {
        "url": "http://hl7.org/fhir/StructureDefinition/cqf-inputParameters",
        "valueReference": {
          "reference": "#1881f3ea-b415-4e7c-8e0b-ad129435a956-parameters"
        }
      }, {
        "url": "http://hl7.org/fhir/us/cqfmeasures/StructureDefinition/cqfm-testCaseDescription",
        "valueMarkdown": "IP enc where pt given hypo med in ED, but ED not part of inpatient encounter, because  Observation start date/time was > 1 hour from ED end date/time. Obs to IP stay occurred, hypo meds given in ED don't count. Doesn't meet IPP criteria. \n\n(CMS #2)"
      } ],
      "modifierExtension": [ {
        "url": "http://hl7.org/fhir/us/cqfmeasures/StructureDefinition/cqfm-isTestCase",
        "valueBoolean": true
      } ],
      "status": "complete",
      "type": "individual",
      "measure": "https://madie.cms.gov/Measure/NHSNGlycemicControlHypoglycemiaInitialPopulation",
      "period": {
        "start": "2026-01-01",
        "end": "2026-12-31"
      },
      "group": [ {
        "id": "Group_1",
        "population": [ {
          "id": "InitialPopulation_1",
          "code": {
            "coding": [ {
              "system": "http://terminology.hl7.org/CodeSystem/measure-population",
              "code": "initial-population",
              "display": "Initial Population"
            } ]
          },
          "count": 0
        } ],
        "measureScore": {
          "value": 0.0
        }
      } ],
      "evaluatedResource": [ {
        "reference": "Patient/14648731-7c20-4237-a0d1-df253fe93f40"
      }, {
        "reference": "Encounter/6474a275-5d73-484f-9852-148199249933"
      }, {
        "reference": "Encounter/cbbf8794-a192-4958-a6a5-8b8eba308af6"
      }, {
        "reference": "Encounter/7fd3b079-74d4-46dd-9723-c9a51ae28fc7"
      }, {
        "reference": "MedicationAdministration/91cb98ca-14ec-48de-8b07-3db30722e63f"
      } ]
    },
    "request": {
      "method": "PUT",
      "url": "MeasureReport/1f5a58cd-2804-477f-beeb-432e2a590c86"
    }
  } ]
}