{
  "resourceType": "Bundle",
  "id": "6109650598086b538055a109",
  "type": "transaction",
  "entry": [ {
    "fullUrl": "https://madie.cms.gov/Patient/17fb3017-c03e-4766-986b-259c83a3916a",
    "resource": {
      "resourceType": "Patient",
      "id": "17fb3017-c03e-4766-986b-259c83a3916a",
      "meta": {
        "profile": [ "http://hl7.org/fhir/us/qicore/StructureDefinition/qicore-patient" ]
      },
      "text": {
        "status": "generated",
        "div": "<div xmlns=\"http://www.w3.org/1999/xhtml\"><div class=\"hapiHeaderText\">DxNotMDD <b>IPPFAIL </b></div><table class=\"hapiPropertyTable\"><tbody><tr><td>Identifier</td><td>d1453b77778379cfd153e4f4edcb19436f4cb6e451c10cba529cfda045fb2716</td></tr><tr><td>Date of birth</td><td><span>20 November 2005</span></td></tr></tbody></table></div>"
      },
      "extension": [ {
        "url": "http://hl7.org/fhir/us/core/StructureDefinition/us-core-race",
        "extension": [ {
          "url": "ombCategory",
          "valueCoding": {
            "system": "urn:oid:2.16.840.1.113883.6.238",
            "code": "2028-9",
            "display": "Asian",
            "userSelected": true
          }
        }, {
          "url": "text",
          "valueString": "Asian"
        } ]
      }, {
        "url": "http://hl7.org/fhir/us/core/StructureDefinition/us-core-ethnicity",
        "extension": [ {
          "url": "ombCategory",
          "valueCoding": {
            "system": "urn:oid:2.16.840.1.113883.6.238",
            "code": "2186-5",
            "display": "Not Hispanic or Latino",
            "userSelected": true
          }
        }, {
          "url": "text",
          "valueString": "Not Hispanic or Latino"
        } ]
      } ],
      "identifier": [ {
        "type": {
          "coding": [ {
            "system": "http://terminology.hl7.org/CodeSystem/v2-0203",
            "code": "MR"
          } ]
        },
        "system": "https://bonnie-fhir.healthit.gov/",
        "value": "6109650598086b538055a109"
      } ],
      "active": true,
      "name": [ {
        "use": "usual",
        "family": "IPFail",
        "given": [ "DxNotMDD" ]
      } ],
      "gender": "male",
      "birthDate": "2018-11-20"
    },
    "request": {
      "method": "PUT",
      "url": "Patient/17fb3017-c03e-4766-986b-259c83a3916a"
    }
  }, {
    "fullUrl": "https://madie.cms.gov/Encounter/4eca6619-974a-4e65-b3ff-58ce97893c3d",
    "resource": {
      "resourceType": "Encounter",
      "id": "4eca6619-974a-4e65-b3ff-58ce97893c3d",
      "status": "finished",
      "class": {
        "system": "http://terminology.hl7.org/CodeSystem/v3-ActCode",
        "code": "AMB",
        "display": "ambulatory",
        "userSelected": true
      },
      "type": [ {
        "coding": [ {
          "system": "http://www.ama-assn.org/go/cpt",
          "code": "90853"
        } ]
      } ],
      "subject": {
        "reference": "Patient/17fb3017-c03e-4766-986b-259c83a3916a"
      },
      "period": {
        "start": "2027-05-09T08:30:00.000+00:00",
        "end": "2027-05-09T09:00:00.000+00:00"
      },
      "diagnosis": [ {
        "condition": {
          "reference": "Condition/90abafe4-fbd4-42fe-8cfc-08fc9a1cb69c"
        },
        "use": {
          "coding": [ {
            "system": "http://snomed.info/sct",
            "code": "28988002",
            "display": "Psychoanalysis in depth (procedure)",
            "userSelected": true
          } ]
        }
      } ]
    },
    "request": {
      "method": "PUT",
      "url": "Encounter/4eca6619-974a-4e65-b3ff-58ce97893c3d"
    }
  }, {
    "fullUrl": "https://madie.cms.gov/Procedure/f359bdbb-dc60-459c-8dab-e4be5bbdf75a",
    "resource": {
      "resourceType": "Procedure",
      "id": "f359bdbb-dc60-459c-8dab-e4be5bbdf75a",
      "status": "completed",
      "code": {
        "coding": [ {
          "system": "http://snomed.info/sct",
          "code": "225337009"
        } ]
      },
      "subject": {
        "reference": "Patient/17fb3017-c03e-4766-986b-259c83a3916a"
      },
      "performedPeriod": {
        "start": "2027-05-09T08:32:00.000+00:00",
        "end": "2027-05-09T08:37:00.000+00:00"
      }
    },
    "request": {
      "method": "PUT",
      "url": "Procedure/f359bdbb-dc60-459c-8dab-e4be5bbdf75a"
    }
  }, {
    "fullUrl": "https://madie.cms.gov/Condition/90abafe4-fbd4-42fe-8cfc-08fc9a1cb69c",
    "resource": {
      "resourceType": "Condition",
      "id": "90abafe4-fbd4-42fe-8cfc-08fc9a1cb69c",
      "category": [ {
        "coding": [ {
          "system": "http://terminology.hl7.org/CodeSystem/condition-category",
          "code": "encounter-diagnosis",
          "display": "Encounter Diagnosis"
        } ]
      } ],
      "code": {
        "coding": [ {
          "system": "http://snomed.info/sct",
          "version": "2022-09",
          "code": "28988002",
          "display": "Psychoanalysis in depth (procedure)",
          "userSelected": true
        } ]
      },
      "subject": {
        "reference": "Patient/17fb3017-c03e-4766-986b-259c83a3916a"
      },
      "recordedDate": "2027-05-09T08:30:00.000+00:00"
    },
    "request": {
      "method": "PUT",
      "url": "Condition/90abafe4-fbd4-42fe-8cfc-08fc9a1cb69c"
    }
  }, {
    "fullUrl": "https://madie.cms.gov/Coverage/efd40e64-9114-40fa-a51d-a0af74525570",
    "resource": {
      "resourceType": "Coverage",
      "id": "efd40e64-9114-40fa-a51d-a0af74525570",
      "status": "active",
      "type": {
        "coding": [ {
          "system": "http://www.nlm.nih.gov/research/umls/sop",
          "version": "9.2",
          "code": "1",
          "display": "MEDICARE",
          "userSelected": true
        } ]
      },
      "beneficiary": {
        "reference": "Patient/17fb3017-c03e-4766-986b-259c83a3916a"
      },
      "period": {
        "start": "2027-03-29T08:00:00.000+00:00",
        "end": "2027-07-29T08:15:00.000+00:00"
      },
      "payor": [ {
        "reference": "Organization/09c5b202-2544-4943-8fdd-4e14fb40dfd4"
      } ]
    },
    "request": {
      "method": "PUT",
      "url": "Coverage/efd40e64-9114-40fa-a51d-a0af74525570"
    }
  }, {
    "fullUrl": "https://madie.cms.gov/Organization/09c5b202-2544-4943-8fdd-4e14fb40dfd4",
    "resource": {
      "resourceType": "Organization",
      "id": "09c5b202-2544-4943-8fdd-4e14fb40dfd4",
      "meta": {
        "profile": [ "http://hl7.org/fhir/us/qicore/StructureDefinition/qicore-organization" ]
      },
      "identifier": [ {
        "use": "temp",
        "system": "urn:oid:2.16.840.1.113883.4.4",
        "value": "21-3259825"
      } ],
      "active": true,
      "type": [ {
        "coding": [ {
          "system": "http://terminology.hl7.org/CodeSystem/organization-type",
          "code": "pay",
          "display": "Payer"
        } ]
      } ],
      "name": "Blue Cross Blue Shield of Texas",
      "telecom": [ {
        "system": "phone",
        "value": "(+1) 972-766-6900"
      } ],
      "address": [ {
        "use": "billing",
        "type": "postal",
        "line": [ "P.O. Box 660044" ],
        "city": "Dallas",
        "state": "TX",
        "postalCode": "75266-0044",
        "country": "USA"
      } ]
    },
    "request": {
      "method": "PUT",
      "url": "Organization/09c5b202-2544-4943-8fdd-4e14fb40dfd4"
    }
  }, {
    "fullUrl": "https://madie.cms.gov/Practitioner/0d1ecea6-cf8f-48c6-84ae-85ef0798c241",
    "resource": {
      "resourceType": "Practitioner",
      "id": "0d1ecea6-cf8f-48c6-84ae-85ef0798c241",
      "identifier": [ {
        "system": "http://hl7.org/fhir/sid/us-npi",
        "value": "123456"
      } ],
      "name": [ {
        "family": "Evil",
        "prefix": [ "Dr" ]
      } ]
    },
    "request": {
      "method": "PUT",
      "url": "Practitioner/0d1ecea6-cf8f-48c6-84ae-85ef0798c241"
    }
  }, {
    "fullUrl": "https://madie.cms.gov/MeasureReport/5de2adcc-6710-4307-be99-711158062273",
    "resource": {
      "resourceType": "MeasureReport",
      "id": "5de2adcc-6710-4307-be99-711158062273",
      "meta": {
        "profile": [ "http://hl7.org/fhir/us/cqfmeasures/StructureDefinition/test-case-cqfm" ]
      },
      "contained": [ {
        "resourceType": "Parameters",
        "id": "a9e32585-2d82-438c-9993-fb8e6a2b98d7-parameters",
        "parameter": [ {
          "name": "subject",
          "valueString": "17fb3017-c03e-4766-986b-259c83a3916a"
        } ]
      } ],
      "extension": [ {
        "url": "http://hl7.org/fhir/StructureDefinition/cqf-inputParameters",
        "valueReference": {
          "reference": "#a9e32585-2d82-438c-9993-fb8e6a2b98d7-parameters"
        }
      }, {
        "url": "http://hl7.org/fhir/us/cqfmeasures/StructureDefinition/cqfm-testCaseDescription",
        "valueMarkdown": "Patient complete Suicide Risk Assessment during group psychotherapy encounter but has no active MDD diagnosis"
      } ],
      "modifierExtension": [ {
        "url": "http://hl7.org/fhir/us/cqfmeasures/StructureDefinition/cqfm-isTestCase",
        "valueBoolean": true
      } ],
      "status": "complete",
      "type": "individual",
      "measure": "https://madie.cms.gov/Measure/CMS177FHIRChildMDDSuicideAssmt",
      "period": {
        "start": "2026-01-01",
        "end": "2026-12-31"
      },
      "group": [ {
        "id": "Group_1",
        "population": [ {
          "id": "InitialPopulation_1",
          "code": {
            "coding": [ {
              "system": "http://terminology.hl7.org/CodeSystem/measure-population",
              "code": "initial-population",
              "display": "Initial Population"
            } ]
          },
          "count": 0
        }, {
          "id": "Denominator_1",
          "code": {
            "coding": [ {
              "system": "http://terminology.hl7.org/CodeSystem/measure-population",
              "code": "denominator",
              "display": "Denominator"
            } ]
          },
          "count": 0
        }, {
          "id": "Numerator_1",
          "code": {
            "coding": [ {
              "system": "http://terminology.hl7.org/CodeSystem/measure-population",
              "code": "numerator",
              "display": "Numerator"
            } ]
          },
          "count": 0
        } ],
        "measureScore": {
          "value": 0.0
        }
      } ],
      "evaluatedResource": [ {
        "reference": "Patient/17fb3017-c03e-4766-986b-259c83a3916a"
      }, {
        "reference": "Encounter/4eca6619-974a-4e65-b3ff-58ce97893c3d"
      }, {
        "reference": "Procedure/f359bdbb-dc60-459c-8dab-e4be5bbdf75a"
      }, {
        "reference": "Condition/90abafe4-fbd4-42fe-8cfc-08fc9a1cb69c"
      }, {
        "reference": "Coverage/efd40e64-9114-40fa-a51d-a0af74525570"
      }, {
        "reference": "Organization/09c5b202-2544-4943-8fdd-4e14fb40dfd4"
      }, {
        "reference": "Practitioner/0d1ecea6-cf8f-48c6-84ae-85ef0798c241"
      } ]
    },
    "request": {
      "method": "PUT",
      "url": "MeasureReport/5de2adcc-6710-4307-be99-711158062273"
    }
  } ]
}