{
  "resourceType": "Bundle",
  "id": "633c9d030968f8012250fc93",
  "type": "transaction",
  "entry": [ {
    "fullUrl": "https://madie.cms.gov/Patient/56ae006d-ab1b-428d-8614-2ccd5d962650",
    "resource": {
      "resourceType": "Patient",
      "id": "56ae006d-ab1b-428d-8614-2ccd5d962650",
      "meta": {
        "profile": [ "http://hl7.org/fhir/us/qicore/StructureDefinition/qicore-patient" ]
      },
      "text": {
        "status": "generated",
        "div": "<div xmlns=\"http://www.w3.org/1999/xhtml\"><div class=\"hapiHeaderText\">MedDCAnticoaStartTmEQEncAdmTm <b>NUMERPASS </b></div><table class=\"hapiPropertyTable\"><tbody><tr><td>Identifier</td><td>31fcea6cd6f0c1c8b9c40622729fede7</td></tr><tr><td>Date of birth</td><td><span>23 May 1954</span></td></tr></tbody></table></div>"
      },
      "extension": [ {
        "url": "http://hl7.org/fhir/us/core/StructureDefinition/us-core-race",
        "extension": [ {
          "url": "ombCategory",
          "valueCoding": {
            "system": "urn:oid:2.16.840.1.113883.6.238",
            "code": "1002-5",
            "display": "American Indian or Alaska Native",
            "userSelected": true
          }
        }, {
          "url": "text",
          "valueString": "American Indian or Alaska Native"
        } ]
      }, {
        "url": "http://hl7.org/fhir/us/core/StructureDefinition/us-core-ethnicity",
        "extension": [ {
          "url": "ombCategory",
          "valueCoding": {
            "system": "urn:oid:2.16.840.1.113883.6.238",
            "code": "2135-2",
            "display": "Hispanic or Latino",
            "userSelected": true
          }
        }, {
          "url": "text",
          "valueString": "Hispanic or Latino"
        } ]
      }, {
        "url": "http://hl7.org/fhir/us/core/StructureDefinition/us-core-sex",
        "valueCode": "248153007"
      } ],
      "identifier": [ {
        "type": {
          "coding": [ {
            "system": "http://terminology.hl7.org/CodeSystem/v2-0203",
            "code": "MR"
          } ]
        },
        "system": "https://bonnie-fhir.healthit.gov/",
        "value": "633c9d030968f8012250fc93"
      } ],
      "active": true,
      "name": [ {
        "use": "usual",
        "family": "NUMERPass",
        "given": [ "DCANTIcoagHXofABlat" ]
      } ],
      "gender": "female",
      "birthDate": "1955-05-23"
    },
    "request": {
      "method": "PUT",
      "url": "Patient/56ae006d-ab1b-428d-8614-2ccd5d962650"
    }
  }, {
    "fullUrl": "https://madie.cms.gov/Condition/9cf058cf-b13d-4cf5-a717-b638a8802869",
    "resource": {
      "resourceType": "Condition",
      "id": "9cf058cf-b13d-4cf5-a717-b638a8802869",
      "meta": {
        "profile": [ "http://hl7.org/fhir/us/qicore/StructureDefinition/qicore-condition-problems-health-concerns" ]
      },
      "verificationStatus": {
        "coding": [ {
          "system": "http://terminology.hl7.org/CodeSystem/condition-ver-status",
          "code": "confirmed"
        } ]
      },
      "category": [ {
        "coding": [ {
          "system": "http://terminology.hl7.org/CodeSystem/condition-category",
          "code": "encounter-diagnosis",
          "display": "Encounter Diagnosis"
        } ]
      } ],
      "code": {
        "coding": [ {
          "system": "http://snomed.info/sct",
          "code": "429508000"
        } ]
      },
      "subject": {
        "reference": "Patient/56ae006d-ab1b-428d-8614-2ccd5d962650"
      },
      "onsetDateTime": "2026-11-18T06:00:00.000+00:00"
    },
    "request": {
      "method": "PUT",
      "url": "Condition/9cf058cf-b13d-4cf5-a717-b638a8802869"
    }
  }, {
    "fullUrl": "https://madie.cms.gov/Encounter/d0bfffc3-5d57-439d-be00-aae2f6a42f14",
    "resource": {
      "resourceType": "Encounter",
      "id": "d0bfffc3-5d57-439d-be00-aae2f6a42f14",
      "meta": {
        "profile": [ "http://hl7.org/fhir/us/qicore/StructureDefinition/qicore-encounter" ]
      },
      "status": "finished",
      "class": {
        "system": "http://terminology.hl7.org/CodeSystem/v3-ActCode",
        "code": "IMP",
        "display": "inpatient encounter"
      },
      "type": [ {
        "coding": [ {
          "system": "http://snomed.info/sct",
          "code": "32485007"
        } ]
      } ],
      "subject": {
        "reference": "Patient/56ae006d-ab1b-428d-8614-2ccd5d962650"
      },
      "period": {
        "start": "2026-11-20T08:00:00.000+00:00",
        "end": "2026-11-24T08:15:00.000+00:00"
      },
      "length": {
        "value": 4,
        "unit": "days"
      },
      "reasonReference": [ {
        "reference": "Condition/9cf058cf-b13d-4cf5-a717-b638a8802869"
      } ]
    },
    "request": {
      "method": "PUT",
      "url": "Encounter/d0bfffc3-5d57-439d-be00-aae2f6a42f14"
    }
  }, {
    "fullUrl": "https://madie.cms.gov/MedicationRequest/e2c87eca-8409-41f3-9df6-719ef2f6e2a8",
    "resource": {
      "resourceType": "MedicationRequest",
      "id": "e2c87eca-8409-41f3-9df6-719ef2f6e2a8",
      "meta": {
        "profile": [ "http://hl7.org/fhir/us/qicore/StructureDefinition/qicore-medicationrequest" ]
      },
      "status": "active",
      "intent": "order",
      "category": [ {
        "coding": [ {
          "system": "http://terminology.hl7.org/CodeSystem/medicationrequest-category",
          "code": "community",
          "display": "Community",
          "userSelected": true
        } ]
      } ],
      "medicationCodeableConcept": {
        "coding": [ {
          "system": "http://www.nlm.nih.gov/research/umls/rxnorm",
          "code": "308351"
        } ]
      },
      "subject": {
        "reference": "Patient/56ae006d-ab1b-428d-8614-2ccd5d962650"
      },
      "authoredOn": "2026-11-20T08:00:00.000+00:00",
      "requester": {
        "reference": "Practitioner/example"
      }
    },
    "request": {
      "method": "PUT",
      "url": "MedicationRequest/e2c87eca-8409-41f3-9df6-719ef2f6e2a8"
    }
  }, {
    "fullUrl": "https://madie.cms.gov/Coverage/4400afea-b079-4b7a-8613-9f05dff4862b",
    "resource": {
      "resourceType": "Coverage",
      "id": "4400afea-b079-4b7a-8613-9f05dff4862b",
      "meta": {
        "profile": [ "http://hl7.org/fhir/us/qicore/StructureDefinition/qicore-coverage" ]
      },
      "status": "active",
      "subscriberId": "523435",
      "beneficiary": {
        "reference": "Patient/162a5913-9989-42f2-8d6a-ae460e245e4c"
      },
      "relationship": {
        "coding": [ {
          "system": "http://terminology.hl7.org/CodeSystem/subscriber-relationship",
          "code": "self"
        } ]
      },
      "payor": [ {
        "reference": "Organization/0bb93a52-3e0c-4f53-ad78-8cadb937a854"
      } ]
    },
    "request": {
      "method": "PUT",
      "url": "Coverage/4400afea-b079-4b7a-8613-9f05dff4862b"
    }
  }, {
    "fullUrl": "https://madie.cms.gov/Condition/55c58064-0bf2-42cb-a477-b99e7a1803c4",
    "resource": {
      "resourceType": "Condition",
      "id": "55c58064-0bf2-42cb-a477-b99e7a1803c4",
      "meta": {
        "profile": [ "http://hl7.org/fhir/us/qicore/StructureDefinition/qicore-condition-problems-health-concerns" ]
      },
      "clinicalStatus": {
        "coding": [ {
          "system": "http://terminology.hl7.org/CodeSystem/condition-clinical",
          "code": "active"
        } ]
      },
      "verificationStatus": {
        "coding": [ {
          "system": "http://terminology.hl7.org/CodeSystem/condition-ver-status",
          "code": "confirmed"
        } ]
      },
      "category": [ {
        "coding": [ {
          "system": "http://terminology.hl7.org/CodeSystem/condition-category",
          "code": "encounter-diagnosis",
          "display": "Encounter Diagnosis"
        } ]
      } ],
      "code": {
        "coding": [ {
          "system": "http://snomed.info/sct",
          "version": "2021-09",
          "code": "111297002",
          "display": "Nonparalytic stroke (disorder)",
          "userSelected": true
        } ]
      },
      "subject": {
        "reference": "Patient/56ae006d-ab1b-428d-8614-2ccd5d962650"
      },
      "recordedDate": "2026-10-13T08:00:00.000+00:00"
    },
    "request": {
      "method": "PUT",
      "url": "Condition/55c58064-0bf2-42cb-a477-b99e7a1803c4"
    }
  }, {
    "fullUrl": "https://madie.cms.gov/claim/5ca62962b8484628b8de1ec5",
    "resource": {
      "resourceType": "Claim",
      "id": "5ca62962b8484628b8de1ec5",
      "meta": {
        "profile": [ "http://hl7.org/fhir/us/qicore/StructureDefinition/qicore-claim" ]
      },
      "status": "active",
      "type": {
        "coding": [ {
          "system": "http://terminology.hl7.org/CodeSystem/claim-type",
          "code": "institutional"
        } ]
      },
      "use": "claim",
      "patient": {
        "reference": "Patient/d170a0a8-b5ad-4303-b6df-e304dd5f92ad"
      },
      "created": "2026-12-01",
      "provider": {
        "reference": "Practitioner/b961a28c-de7f-486f-8208-1dda0a425fa5"
      },
      "priority": {
        "coding": [ {
          "system": "http://terminology.hl7.org/CodeSystem/processpriority",
          "code": "normal"
        } ]
      },
      "diagnosis": [ {
        "sequence": 1,
        "diagnosisCodeableConcept": {
          "coding": [ {
            "system": "http://hl7.org/fhir/sid/icd-10-cm",
            "code": "I63.00"
          } ]
        },
        "type": [ {
          "coding": [ {
            "system": "http://terminology.hl7.org/CodeSystem/ex-diagnosistype",
            "code": "principal"
          } ]
        } ]
      } ],
      "insurance": [ {
        "sequence": 1,
        "focal": true,
        "coverage": {
          "reference": "Coverage/5fa041661c76ba66d9959367"
        }
      } ],
      "item": [ {
        "sequence": 1,
        "diagnosisSequence": [ 1 ],
        "productOrService": {
          "coding": [ {
            "system": "http://terminology.hl7.org/CodeSystem/ex-USCLS",
            "code": "99555"
          } ]
        },
        "encounter": [ {
          "reference": "Encounter/d0bfffc3-5d57-439d-be00-aae2f6a42f14"
        } ]
      } ]
    },
    "request": {
      "method": "PUT",
      "url": "Claim/5ca62962b8484628b8de1ec5"
    }
  }, {
    "fullUrl": "https://madie.cms.gov/Organization/0bb93a52-3e0c-4f53-ad78-8cadb937a854",
    "resource": {
      "resourceType": "Organization",
      "id": "0bb93a52-3e0c-4f53-ad78-8cadb937a854",
      "meta": {
        "profile": [ "http://hl7.org/fhir/us/qicore/StructureDefinition/qicore-organization" ]
      },
      "identifier": [ {
        "use": "temp",
        "system": "urn:oid:2.16.840.1.113883.4.4",
        "value": "21-3259825"
      } ],
      "active": true,
      "type": [ {
        "coding": [ {
          "system": "http://terminology.hl7.org/CodeSystem/organization-type",
          "code": "pay",
          "display": "Payer"
        } ]
      } ],
      "name": "Blue Cross Blue Shield of Texas",
      "telecom": [ {
        "system": "phone",
        "value": "(+1) 972-766-6900"
      } ],
      "address": [ {
        "use": "billing",
        "type": "postal",
        "line": [ "P.O. Box 660044" ],
        "city": "Dallas",
        "state": "TX",
        "postalCode": "75266-0044",
        "country": "USA"
      } ]
    },
    "request": {
      "method": "PUT",
      "url": "Organization/0bb93a52-3e0c-4f53-ad78-8cadb937a854"
    }
  }, {
    "fullUrl": "https://madie.cms.gov/Practitioner/b961a28c-de7f-486f-8208-1dda0a425fa5",
    "resource": {
      "resourceType": "Practitioner",
      "id": "b961a28c-de7f-486f-8208-1dda0a425fa5",
      "meta": {
        "profile": [ "http://hl7.org/fhir/us/qicore/StructureDefinition/qicore-practitioner" ]
      },
      "identifier": [ {
        "system": "http://hl7.org/fhir/sid/us-npi",
        "value": "9999999896"
      } ],
      "name": [ {
        "family": "Evil",
        "prefix": [ "Dr" ]
      } ]
    },
    "request": {
      "method": "PUT",
      "url": "Practitioner/b961a28c-de7f-486f-8208-1dda0a425fa5"
    }
  }, {
    "fullUrl": "https://madie.cms.gov/MeasureReport/01eaa778-f93f-469f-b718-b2c1012c0908",
    "resource": {
      "resourceType": "MeasureReport",
      "id": "01eaa778-f93f-469f-b718-b2c1012c0908",
      "meta": {
        "profile": [ "http://hl7.org/fhir/us/cqfmeasures/StructureDefinition/test-case-cqfm" ]
      },
      "contained": [ {
        "resourceType": "Parameters",
        "id": "c1da35cc-09ea-400e-b98f-f1a90ee0fc52-parameters",
        "parameter": [ {
          "name": "subject",
          "valueString": "56ae006d-ab1b-428d-8614-2ccd5d962650"
        } ]
      } ],
      "extension": [ {
        "url": "http://hl7.org/fhir/StructureDefinition/cqf-inputParameters",
        "valueReference": {
          "reference": "#c1da35cc-09ea-400e-b98f-f1a90ee0fc52-parameters"
        }
      }, {
        "url": "http://hl7.org/fhir/us/cqfmeasures/StructureDefinition/cqfm-testCaseDescription",
        "valueMarkdown": "Patient DC on Anticoagulant has a History of Atrial Ablation as confirmed"
      } ],
      "modifierExtension": [ {
        "url": "http://hl7.org/fhir/us/cqfmeasures/StructureDefinition/cqfm-isTestCase",
        "valueBoolean": true
      } ],
      "status": "complete",
      "type": "individual",
      "measure": "https://madie.cms.gov/Measure/CMS71FHIRSTKAnticoagAFFlutter",
      "period": {
        "start": "2026-01-01",
        "end": "2026-12-31"
      },
      "group": [ {
        "id": "Group_1",
        "population": [ {
          "id": "InitialPopulation_1",
          "code": {
            "coding": [ {
              "system": "http://terminology.hl7.org/CodeSystem/measure-population",
              "code": "initial-population",
              "display": "Initial Population"
            } ]
          },
          "count": 1
        }, {
          "id": "Denominator_1",
          "code": {
            "coding": [ {
              "system": "http://terminology.hl7.org/CodeSystem/measure-population",
              "code": "denominator",
              "display": "Denominator"
            } ]
          },
          "count": 1
        }, {
          "id": "DenominatorExclusion_1",
          "code": {
            "coding": [ {
              "system": "http://terminology.hl7.org/CodeSystem/measure-population",
              "code": "denominator-exclusion",
              "display": "Denominator Exclusion"
            } ]
          },
          "count": 0
        }, {
          "id": "Numerator_1",
          "code": {
            "coding": [ {
              "system": "http://terminology.hl7.org/CodeSystem/measure-population",
              "code": "numerator",
              "display": "Numerator"
            } ]
          },
          "count": 1
        }, {
          "id": "DenominatorException_1",
          "code": {
            "coding": [ {
              "system": "http://terminology.hl7.org/CodeSystem/measure-population",
              "code": "denominator-exception",
              "display": "Denominator Exception"
            } ]
          },
          "count": 0
        } ],
        "measureScore": {
          "value": 0.0
        }
      } ],
      "evaluatedResource": [ {
        "reference": "Patient/56ae006d-ab1b-428d-8614-2ccd5d962650"
      }, {
        "reference": "Condition/9cf058cf-b13d-4cf5-a717-b638a8802869"
      }, {
        "reference": "Encounter/d0bfffc3-5d57-439d-be00-aae2f6a42f14"
      }, {
        "reference": "MedicationRequest/e2c87eca-8409-41f3-9df6-719ef2f6e2a8"
      }, {
        "reference": "Coverage/4400afea-b079-4b7a-8613-9f05dff4862b"
      }, {
        "reference": "Condition/55c58064-0bf2-42cb-a477-b99e7a1803c4"
      }, {
        "reference": "Claim/5ca62962b8484628b8de1ec5"
      }, {
        "reference": "Organization/0bb93a52-3e0c-4f53-ad78-8cadb937a854"
      }, {
        "reference": "Practitioner/b961a28c-de7f-486f-8208-1dda0a425fa5"
      } ]
    },
    "request": {
      "method": "PUT",
      "url": "MeasureReport/01eaa778-f93f-469f-b718-b2c1012c0908"
    }
  } ]
}