{
  "resourceType": "Bundle",
  "id": "62d728a9c22c612899b40d62",
  "type": "collection",
  "entry": [ {
    "fullUrl": "https://madie.cms.gov/Patient/695cee04-cf12-411e-a258-99e430093a4e",
    "resource": {
      "resourceType": "Patient",
      "id": "695cee04-cf12-411e-a258-99e430093a4e",
      "meta": {
        "profile": [ "http://hl7.org/fhir/us/qicore/StructureDefinition/qicore-patient" ]
      },
      "extension": [ {
        "url": "http://hl7.org/fhir/us/core/StructureDefinition/us-core-race",
        "extension": [ {
          "url": "ombCategory",
          "valueCoding": {
            "system": "urn:oid:2.16.840.1.113883.6.238",
            "code": "2054-5",
            "display": "Black or African American",
            "userSelected": true
          }
        }, {
          "url": "text",
          "valueString": "Black or African American"
        } ]
      }, {
        "url": "http://hl7.org/fhir/us/core/StructureDefinition/us-core-ethnicity",
        "extension": [ {
          "url": "ombCategory",
          "valueCoding": {
            "system": "urn:oid:2.16.840.1.113883.6.238",
            "code": "2135-2",
            "display": "Hispanic or Latino",
            "userSelected": true
          }
        }, {
          "url": "text",
          "valueString": "Hispanic or Latino"
        } ]
      } ],
      "identifier": [ {
        "type": {
          "coding": [ {
            "system": "http://terminology.hl7.org/CodeSystem/v2-0203",
            "code": "MR"
          } ]
        },
        "system": "https://bonnie-fhir.healthit.gov/",
        "value": "62d728a9c22c612899b40d62"
      } ],
      "name": [ {
        "family": "DENEXCEPPassX2",
        "given": [ "2HTN130DeclinedLabOthers" ]
      } ],
      "gender": "male",
      "birthDate": "2007-01-31"
    }
  }, {
    "fullUrl": "https://madie.cms.gov/Encounter/f88c020d-91a3-440e-896c-faede14f6945",
    "resource": {
      "resourceType": "Encounter",
      "id": "f88c020d-91a3-440e-896c-faede14f6945",
      "meta": {
        "profile": [ "http://hl7.org/fhir/us/qicore/StructureDefinition/qicore-encounter" ]
      },
      "status": "finished",
      "class": {
        "system": "http://terminology.hl7.org/CodeSystem/v3-ActCode",
        "code": "AMB",
        "display": "ambulatory"
      },
      "type": [ {
        "coding": [ {
          "system": "http://snomed.info/sct",
          "version": "2022-03",
          "code": "103705002",
          "display": "Patient status observation (procedure)",
          "userSelected": true
        } ]
      } ],
      "subject": {
        "reference": "Patient/695cee04-cf12-411e-a258-99e430093a4e"
      },
      "period": {
        "start": "2026-01-01T00:00:00.000Z",
        "end": "2026-01-01T00:30:00.000Z"
      }
    }
  }, {
    "fullUrl": "https://madie.cms.gov/Observation/c5f95db1-6701-4ed5-bad7-e25986c1d32f",
    "resource": {
      "resourceType": "Observation",
      "id": "c5f95db1-6701-4ed5-bad7-e25986c1d32f",
      "meta": {
        "profile": [ "http://hl7.org/fhir/us/core/StructureDefinition/us-core-blood-pressure" ]
      },
      "status": "final",
      "category": [ {
        "coding": [ {
          "system": "http://terminology.hl7.org/CodeSystem/observation-category",
          "code": "vital-signs",
          "display": "Vital Signs"
        } ],
        "text": "Vital Signs"
      } ],
      "code": {
        "coding": [ {
          "system": "http://loinc.org",
          "code": "85354-9",
          "display": "Blood pressure panel with all children optional"
        } ]
      },
      "subject": {
        "reference": "Patient/695cee04-cf12-411e-a258-99e430093a4e"
      },
      "effectiveDateTime": "2026-01-01T00:01:00.000Z",
      "component": [ {
        "code": {
          "coding": [ {
            "system": "http://loinc.org",
            "code": "8480-6",
            "display": "Systolic blood pressure"
          } ]
        },
        "valueQuantity": {
          "value": 130,
          "unit": "mmHg",
          "system": "http://unitsofmeasure.org",
          "code": "mm[Hg]"
        }
      }, {
        "code": {
          "coding": [ {
            "system": "http://loinc.org",
            "code": "8462-4",
            "display": "Diastolic blood pressure"
          } ]
        },
        "valueQuantity": {
          "value": 79,
          "unit": "mmHg",
          "system": "http://unitsofmeasure.org",
          "code": "mm[Hg]"
        }
      } ]
    }
  }, {
    "fullUrl": "https://madie.cms.gov/ServiceRequest/bca5d023-8141-4630-9308-1c7bacb7ca04",
    "resource": {
      "resourceType": "ServiceRequest",
      "id": "bca5d023-8141-4630-9308-1c7bacb7ca04",
      "meta": {
        "profile": [ "http://hl7.org/fhir/us/qicore/StructureDefinition/qicore-servicenotrequested" ]
      },
      "extension": [ {
        "url": "http://hl7.org/fhir/us/qicore/StructureDefinition/qicore-doNotPerformReason",
        "valueCodeableConcept": {
          "coding": [ {
            "system": "http://snomed.info/sct",
            "code": "1296859006",
            "display": "Procedure declined (situation)",
            "userSelected": true
          } ]
        }
      } ],
      "status": "completed",
      "intent": "order",
      "doNotPerform": true,
      "code": {
        "coding": [ {
          "system": "http://snomed.info/sct",
          "version": "2022-03",
          "code": "1181000175107",
          "display": "Recommendation to lose weight (procedure)",
          "userSelected": true
        } ]
      },
      "subject": {
        "reference": "Patient/695cee04-cf12-411e-a258-99e430093a4e"
      },
      "authoredOn": "2026-01-01T00:05:00.000Z"
    }
  }, {
    "fullUrl": "https://madie.cms.gov/Encounter/9bf073e6-b8d3-419d-bb7e-1dc01e38c06c",
    "resource": {
      "resourceType": "Encounter",
      "id": "9bf073e6-b8d3-419d-bb7e-1dc01e38c06c",
      "meta": {
        "profile": [ "http://hl7.org/fhir/us/qicore/StructureDefinition/qicore-encounter" ]
      },
      "status": "finished",
      "class": {
        "system": "http://terminology.hl7.org/CodeSystem/v3-ActCode",
        "code": "AMB",
        "display": "ambulatory"
      },
      "type": [ {
        "coding": [ {
          "system": "http://snomed.info/sct",
          "version": "2022-03",
          "code": "103705002",
          "display": "Patient status observation (procedure)",
          "userSelected": true
        } ]
      } ],
      "subject": {
        "reference": "Patient/695cee04-cf12-411e-a258-99e430093a4e"
      },
      "period": {
        "start": "2026-12-31T23:30:00.000Z",
        "end": "2026-12-31T23:59:00.000Z"
      }
    }
  }, {
    "fullUrl": "https://madie.cms.gov/Observation/b35dc7ba-511a-4534-b464-b679b66eee7b",
    "resource": {
      "resourceType": "Observation",
      "id": "b35dc7ba-511a-4534-b464-b679b66eee7b",
      "meta": {
        "profile": [ "http://hl7.org/fhir/us/core/StructureDefinition/us-core-blood-pressure" ]
      },
      "status": "final",
      "category": [ {
        "coding": [ {
          "system": "http://terminology.hl7.org/CodeSystem/observation-category",
          "code": "vital-signs",
          "display": "Vital Signs"
        } ],
        "text": "Vital Signs"
      } ],
      "code": {
        "coding": [ {
          "system": "http://loinc.org",
          "code": "85354-9",
          "display": "Blood pressure panel with all children optional"
        } ]
      },
      "subject": {
        "reference": "Patient/695cee04-cf12-411e-a258-99e430093a4e"
      },
      "effectiveDateTime": "2026-12-31T23:31:00.000Z",
      "component": [ {
        "code": {
          "coding": [ {
            "system": "http://loinc.org",
            "code": "8480-6",
            "display": "Systolic blood pressure"
          } ]
        },
        "valueQuantity": {
          "value": 130,
          "unit": "mmHg",
          "system": "http://unitsofmeasure.org",
          "code": "mm[Hg]"
        }
      }, {
        "code": {
          "coding": [ {
            "system": "http://loinc.org",
            "code": "8462-4",
            "display": "Diastolic blood pressure"
          } ]
        },
        "valueQuantity": {
          "value": 90,
          "unit": "mmHg",
          "system": "http://unitsofmeasure.org",
          "code": "mm[Hg]"
        }
      } ]
    }
  }, {
    "fullUrl": "https://madie.cms.gov/ServiceRequest/b9b03d8a-42b9-4962-9e55-13e5c7371f31",
    "resource": {
      "resourceType": "ServiceRequest",
      "id": "b9b03d8a-42b9-4962-9e55-13e5c7371f31",
      "meta": {
        "profile": [ "http://hl7.org/fhir/us/qicore/StructureDefinition/qicore-servicenotrequested" ]
      },
      "extension": [ {
        "url": "http://hl7.org/fhir/us/qicore/StructureDefinition/qicore-doNotPerformReason",
        "valueCodeableConcept": {
          "coding": [ {
            "system": "http://snomed.info/sct",
            "code": "1296859006",
            "display": "Procedure declined (situation)",
            "userSelected": true
          } ]
        }
      } ],
      "status": "completed",
      "intent": "order",
      "doNotPerform": true,
      "code": {
        "coding": [ {
          "system": "http://snomed.info/sct",
          "version": "2022-03",
          "code": "20093000",
          "display": "Alcohol rehabilitation and detoxification (regime/therapy)",
          "userSelected": true
        } ]
      },
      "subject": {
        "reference": "Patient/695cee04-cf12-411e-a258-99e430093a4e"
      },
      "authoredOn": "2026-12-31T23:01:00.000Z"
    }
  }, {
    "fullUrl": "https://madie.cms.gov/MedicationRequest/e430c0f5-72fb-43bc-86fa-ce6f48314c77",
    "resource": {
      "resourceType": "MedicationRequest",
      "id": "e430c0f5-72fb-43bc-86fa-ce6f48314c77",
      "meta": {
        "profile": [ "http://hl7.org/fhir/us/qicore/StructureDefinition/qicore-mednotrequested" ]
      },
      "status": "completed",
      "intent": "order",
      "doNotPerform": true,
      "medicationCodeableConcept": {
        "coding": [ {
          "system": "http://www.nlm.nih.gov/research/umls/rxnorm",
          "code": "1000001",
          "display": "amlodipine 5 MG / hydrochlorothiazide 25 MG / olmesartan medoxomil 40 MG Oral Tablet",
          "userSelected": true
        } ]
      },
      "subject": {
        "reference": "Patient/695cee04-cf12-411e-a258-99e430093a4e"
      },
      "authoredOn": "2026-12-31T23:58:00.000Z",
      "requester": {
        "reference": "Practitioner/123456"
      },
      "reasonCode": [ {
        "coding": [ {
          "system": "http://snomed.info/sct",
          "code": "1296859006",
          "display": "Procedure declined (situation)"
        } ]
      } ]
    }
  }, {
    "fullUrl": "https://madie.cms.gov/ServiceRequest/874d3e87-9df5-4599-93ce-21f650bf0143",
    "resource": {
      "resourceType": "ServiceRequest",
      "id": "874d3e87-9df5-4599-93ce-21f650bf0143",
      "meta": {
        "profile": [ "http://hl7.org/fhir/us/qicore/StructureDefinition/qicore-servicenotrequested" ]
      },
      "extension": [ {
        "url": "http://hl7.org/fhir/us/qicore/StructureDefinition/qicore-doNotPerformReason",
        "valueCodeableConcept": {
          "coding": [ {
            "system": "http://snomed.info/sct",
            "version": "2022-03",
            "code": "413311005",
            "display": "Patient non-compliant - declined intervention / support (situation)",
            "userSelected": true
          } ]
        }
      } ],
      "status": "completed",
      "intent": "order",
      "doNotPerform": true,
      "code": {
        "coding": [ {
          "system": "http://loinc.org",
          "version": "2.72",
          "code": "24320-4",
          "display": "Basic metabolic 1998 panel - Serum or Plasma",
          "userSelected": true
        } ]
      },
      "subject": {
        "reference": "Patient/695cee04-cf12-411e-a258-99e430093a4e"
      },
      "authoredOn": "2026-12-31T23:58:00.000Z"
    }
  }, {
    "fullUrl": "https://madie.cms.gov/ServiceRequest/fdd56f37-e324-4242-8443-27d52aad8815",
    "resource": {
      "resourceType": "ServiceRequest",
      "id": "fdd56f37-e324-4242-8443-27d52aad8815",
      "meta": {
        "profile": [ "http://hl7.org/fhir/us/qicore/StructureDefinition/qicore-servicenotrequested" ]
      },
      "extension": [ {
        "url": "http://hl7.org/fhir/us/qicore/StructureDefinition/qicore-doNotPerformReason",
        "valueCodeableConcept": {
          "coding": [ {
            "system": "http://snomed.info/sct",
            "version": "2022-03",
            "code": "413311005",
            "display": "Patient non-compliant - declined intervention / support (situation)",
            "userSelected": true
          } ]
        }
      } ],
      "status": "completed",
      "intent": "order",
      "doNotPerform": true,
      "code": {
        "coding": [ {
          "system": "http://loinc.org",
          "code": "34534-8",
          "display": "12 lead EKG panel",
          "userSelected": true
        } ]
      },
      "subject": {
        "reference": "Patient/695cee04-cf12-411e-a258-99e430093a4e"
      },
      "authoredOn": "2026-12-31T23:31:00.000Z"
    }
  }, {
    "fullUrl": "https://madie.cms.gov/ServiceRequest/78d8f946-37c3-40f0-a88a-c2eff1f2cfca",
    "resource": {
      "resourceType": "ServiceRequest",
      "id": "78d8f946-37c3-40f0-a88a-c2eff1f2cfca",
      "meta": {
        "profile": [ "http://hl7.org/fhir/us/qicore/StructureDefinition/qicore-servicenotrequested" ]
      },
      "extension": [ {
        "url": "http://hl7.org/fhir/us/qicore/StructureDefinition/qicore-doNotPerformReason",
        "valueCodeableConcept": {
          "coding": [ {
            "system": "http://snomed.info/sct",
            "version": "2022-03",
            "code": "413311005",
            "display": "Patient non-compliant - declined intervention / support (situation)",
            "userSelected": true
          } ]
        }
      } ],
      "status": "completed",
      "intent": "order",
      "doNotPerform": true,
      "code": {
        "coding": [ {
          "system": "http://snomed.info/sct",
          "code": "183625007",
          "display": "Follow-up 4-6 months (finding)",
          "userSelected": true
        } ]
      },
      "subject": {
        "reference": "Patient/695cee04-cf12-411e-a258-99e430093a4e"
      },
      "authoredOn": "2026-12-31T23:45:00.000Z"
    }
  }, {
    "fullUrl": "https://madie.cms.gov/Coverage/5eeba968-a013-4876-b84d-fd999dacdc8b",
    "resource": {
      "resourceType": "Coverage",
      "id": "5eeba968-a013-4876-b84d-fd999dacdc8b",
      "meta": {
        "profile": [ "http://hl7.org/fhir/us/qicore/StructureDefinition/qicore-coverage" ]
      },
      "status": "active",
      "subscriberId": "15648325",
      "beneficiary": {
        "reference": "Patient/695cee04-cf12-411e-a258-99e430093a4e"
      },
      "relationship": {
        "coding": [ {
          "system": "http://terminology.hl7.org/CodeSystem/subscriber-relationship",
          "code": "self",
          "display": "Self"
        } ]
      },
      "payor": [ {
        "reference": "Organization/d69bc490-2836-4174-9e69-f07b5ca21345"
      } ]
    }
  }, {
    "fullUrl": "https://madie.cms.gov/Organization/d69bc490-2836-4174-9e69-f07b5ca21345",
    "resource": {
      "resourceType": "Organization",
      "id": "d69bc490-2836-4174-9e69-f07b5ca21345",
      "meta": {
        "profile": [ "http://hl7.org/fhir/us/qicore/StructureDefinition/qicore-organization" ]
      },
      "identifier": [ {
        "use": "temp",
        "system": "urn:oid:2.16.840.1.113883.4.4",
        "value": "21-3259825"
      } ],
      "active": true,
      "type": [ {
        "coding": [ {
          "system": "http://terminology.hl7.org/CodeSystem/organization-type",
          "code": "pay",
          "display": "Payer"
        } ]
      } ],
      "name": "Blue Cross Blue Shield of Texas",
      "telecom": [ {
        "system": "phone",
        "value": "(+1) 972-766-6900"
      } ],
      "address": [ {
        "use": "billing",
        "type": "postal",
        "line": [ "P.O. Box 660044" ],
        "city": "Dallas",
        "state": "TX",
        "postalCode": "75266-0044",
        "country": "USA"
      } ]
    }
  }, {
    "fullUrl": "https://madie.cms.gov/Practitioner/7b5b25ba-9098-457b-93fe-aa6b220d0618",
    "resource": {
      "resourceType": "Practitioner",
      "id": "7b5b25ba-9098-457b-93fe-aa6b220d0618",
      "meta": {
        "profile": [ "http://hl7.org/fhir/us/qicore/StructureDefinition/qicore-practitioner" ]
      },
      "identifier": [ {
        "system": "http://hl7.org/fhir/sid/us-npi",
        "value": "1598844227"
      } ],
      "name": [ {
        "family": "Evil",
        "prefix": [ "Dr" ]
      } ]
    }
  }, {
    "fullUrl": "https://madie.cms.gov/MeasureReport/e887022a-7961-4768-9cf3-e48ecfced710",
    "resource": {
      "resourceType": "MeasureReport",
      "id": "e887022a-7961-4768-9cf3-e48ecfced710",
      "meta": {
        "profile": [ "http://hl7.org/fhir/us/cqfmeasures/StructureDefinition/test-case-cqfm" ]
      },
      "contained": [ {
        "resourceType": "Parameters",
        "id": "64d2ce0e-86e3-4346-82a8-4d2fcf9ca0f2-parameters",
        "parameter": [ {
          "name": "subject",
          "valueString": "695cee04-cf12-411e-a258-99e430093a4e"
        } ]
      } ],
      "extension": [ {
        "url": "http://hl7.org/fhir/StructureDefinition/cqf-inputParameters",
        "valueReference": {
          "reference": "#64d2ce0e-86e3-4346-82a8-4d2fcf9ca0f2-parameters"
        }
      }, {
        "url": "http://hl7.org/fhir/us/cqfmeasures/StructureDefinition/cqfm-testCaseDescription",
        "valueMarkdown": "2 encounters during MP; BP reading taken in both encounters, 1st enc.  1/01 0000-0030,  BP 130/79, weight loss recommended, pt declined (excepPas; 2nd enc. 12/31 at 2300-2359, BP 130/90 Patient declined lab test, detox, medications (excepPass). "
      } ],
      "modifierExtension": [ {
        "url": "http://hl7.org/fhir/us/cqfmeasures/StructureDefinition/cqfm-isTestCase",
        "valueBoolean": true
      } ],
      "status": "complete",
      "type": "individual",
      "measure": "https://madie.cms.gov/Measure/CMS22FHIRPCSBPScreeningFollowUp",
      "period": {
        "start": "2026-01-01",
        "end": "2026-12-31"
      },
      "group": [ {
        "id": "Group_1",
        "population": [ {
          "id": "InitialPopulation_1",
          "code": {
            "coding": [ {
              "system": "http://terminology.hl7.org/CodeSystem/measure-population",
              "code": "initial-population",
              "display": "Initial Population"
            } ]
          },
          "count": 2
        }, {
          "id": "Denominator_1",
          "code": {
            "coding": [ {
              "system": "http://terminology.hl7.org/CodeSystem/measure-population",
              "code": "denominator",
              "display": "Denominator"
            } ]
          },
          "count": 2
        }, {
          "id": "DenominatorExclusion_1",
          "code": {
            "coding": [ {
              "system": "http://terminology.hl7.org/CodeSystem/measure-population",
              "code": "denominator-exclusion",
              "display": "Denominator Exclusion"
            } ]
          },
          "count": 0
        }, {
          "id": "Numerator_1",
          "code": {
            "coding": [ {
              "system": "http://terminology.hl7.org/CodeSystem/measure-population",
              "code": "numerator",
              "display": "Numerator"
            } ]
          },
          "count": 0
        }, {
          "id": "DenominatorException_1",
          "code": {
            "coding": [ {
              "system": "http://terminology.hl7.org/CodeSystem/measure-population",
              "code": "denominator-exception",
              "display": "Denominator Exception"
            } ]
          },
          "count": 2
        } ],
        "measureScore": {
          "value": 0.0
        }
      } ],
      "evaluatedResource": [ {
        "reference": "Patient/695cee04-cf12-411e-a258-99e430093a4e"
      }, {
        "reference": "Encounter/f88c020d-91a3-440e-896c-faede14f6945"
      }, {
        "reference": "Observation/c5f95db1-6701-4ed5-bad7-e25986c1d32f"
      }, {
        "reference": "ServiceRequest/bca5d023-8141-4630-9308-1c7bacb7ca04"
      }, {
        "reference": "Encounter/9bf073e6-b8d3-419d-bb7e-1dc01e38c06c"
      }, {
        "reference": "Observation/b35dc7ba-511a-4534-b464-b679b66eee7b"
      }, {
        "reference": "ServiceRequest/b9b03d8a-42b9-4962-9e55-13e5c7371f31"
      }, {
        "reference": "MedicationRequest/e430c0f5-72fb-43bc-86fa-ce6f48314c77"
      }, {
        "reference": "ServiceRequest/874d3e87-9df5-4599-93ce-21f650bf0143"
      }, {
        "reference": "ServiceRequest/fdd56f37-e324-4242-8443-27d52aad8815"
      }, {
        "reference": "ServiceRequest/78d8f946-37c3-40f0-a88a-c2eff1f2cfca"
      }, {
        "reference": "Coverage/5eeba968-a013-4876-b84d-fd999dacdc8b"
      }, {
        "reference": "Organization/d69bc490-2836-4174-9e69-f07b5ca21345"
      }, {
        "reference": "Practitioner/7b5b25ba-9098-457b-93fe-aa6b220d0618"
      } ]
    }
  } ]
}