{
  "resourceType": "Bundle",
  "id": "612e6ae402c62a011f2eba14",
  "type": "transaction",
  "entry": [ {
    "fullUrl": "https://madie.cms.gov/Patient/d04c2856-3708-4809-b4e3-4d1746ff274b",
    "resource": {
      "resourceType": "Patient",
      "id": "d04c2856-3708-4809-b4e3-4d1746ff274b",
      "meta": {
        "profile": [ "http://hl7.org/fhir/us/qicore/StructureDefinition/qicore-patient" ]
      },
      "text": {
        "status": "generated",
        "div": "<div xmlns=\"http://www.w3.org/1999/xhtml\"><div class=\"hapiHeaderText\">PtRefusal_EDGT1HrAdm_1DayBFAdm <b>NUMERFAIL </b></div><table class=\"hapiPropertyTable\"><tbody><tr><td>Identifier</td><td>6d2c319cdc22db5701bad5a897102b581ef8b66eb0c722b7fcb9c543ba1be0e3</td></tr><tr><td>Date of birth</td><td><span>02 January 1974</span></td></tr></tbody></table></div>"
      },
      "extension": [ {
        "url": "http://hl7.org/fhir/us/core/StructureDefinition/us-core-race",
        "extension": [ {
          "url": "ombCategory",
          "valueCoding": {
            "system": "urn:oid:2.16.840.1.113883.6.238",
            "code": "1002-5",
            "display": "American Indian or Alaska Native",
            "userSelected": true
          }
        }, {
          "url": "text",
          "valueString": "American Indian or Alaska Native"
        } ]
      }, {
        "url": "http://hl7.org/fhir/us/core/StructureDefinition/us-core-ethnicity",
        "extension": [ {
          "url": "ombCategory",
          "valueCoding": {
            "system": "urn:oid:2.16.840.1.113883.6.238",
            "code": "2135-2",
            "display": "Hispanic or Latino",
            "userSelected": true
          }
        }, {
          "url": "text",
          "valueString": "Hispanic or Latino"
        } ]
      } ],
      "identifier": [ {
        "type": {
          "coding": [ {
            "system": "http://terminology.hl7.org/CodeSystem/v2-0203",
            "code": "MR"
          } ]
        },
        "system": "https://bonnie-fhir.healthit.gov/",
        "value": "612e6ae402c62a011f2eba14"
      } ],
      "active": true,
      "name": [ {
        "use": "usual",
        "family": "NUMERFail",
        "given": [ "PtRefusalEDGT1HrAdm1DayBFAdm" ]
      } ],
      "gender": "male",
      "birthDate": "1975-01-02"
    },
    "request": {
      "method": "PUT",
      "url": "Patient/d04c2856-3708-4809-b4e3-4d1746ff274b"
    }
  }, {
    "fullUrl": "https://madie.cms.gov/Encounter/a4e6282e-8bb9-4ffd-aa39-035489e53fec",
    "resource": {
      "resourceType": "Encounter",
      "id": "a4e6282e-8bb9-4ffd-aa39-035489e53fec",
      "meta": {
        "profile": [ "http://hl7.org/fhir/us/qicore/StructureDefinition/qicore-encounter" ]
      },
      "status": "finished",
      "class": {
        "system": "http://terminology.hl7.org/CodeSystem/v3-ActCode",
        "code": "EMER",
        "display": "emergency"
      },
      "type": [ {
        "coding": [ {
          "system": "http://snomed.info/sct",
          "code": "4525004"
        } ]
      } ],
      "subject": {
        "reference": "Patient/d04c2856-3708-4809-b4e3-4d1746ff274b"
      },
      "period": {
        "start": "2026-10-31T05:00:00.000+00:00",
        "end": "2026-11-01T07:15:00.000+00:00"
      },
      "length": {
        "value": 1,
        "unit": "days"
      }
    },
    "request": {
      "method": "PUT",
      "url": "Encounter/a4e6282e-8bb9-4ffd-aa39-035489e53fec"
    }
  }, {
    "fullUrl": "https://madie.cms.gov/Encounter/0675f4fc-f78d-441c-97cb-1f846f00cc93",
    "resource": {
      "resourceType": "Encounter",
      "id": "0675f4fc-f78d-441c-97cb-1f846f00cc93",
      "meta": {
        "profile": [ "http://hl7.org/fhir/us/qicore/StructureDefinition/qicore-encounter" ]
      },
      "status": "finished",
      "class": {
        "system": "http://terminology.hl7.org/CodeSystem/v3-ActCode",
        "code": "IMP",
        "display": "inpatient encounter"
      },
      "type": [ {
        "coding": [ {
          "system": "http://snomed.info/sct",
          "code": "8715000"
        } ]
      } ],
      "subject": {
        "reference": "Patient/d04c2856-3708-4809-b4e3-4d1746ff274b"
      },
      "period": {
        "start": "2026-11-01T10:00:00.000+00:00",
        "end": "2026-11-03T08:15:00.000+00:00"
      },
      "length": {
        "value": 2,
        "unit": "days"
      }
    },
    "request": {
      "method": "PUT",
      "url": "Encounter/0675f4fc-f78d-441c-97cb-1f846f00cc93"
    }
  }, {
    "fullUrl": "https://madie.cms.gov/Coverage/fc94c5a6-5b72-4375-a31b-01fa60613024",
    "resource": {
      "resourceType": "Coverage",
      "id": "fc94c5a6-5b72-4375-a31b-01fa60613024",
      "status": "active",
      "beneficiary": {
        "reference": "Patient/d04c2856-3708-4809-b4e3-4d1746ff274b"
      },
      "period": {
        "start": "1975-01-02T08:00:00.000+00:00"
      },
      "payor": [ {
        "reference": "Organization/d0932ac0-9735-4105-a15f-b2de4ddb7603"
      } ]
    },
    "request": {
      "method": "PUT",
      "url": "Coverage/fc94c5a6-5b72-4375-a31b-01fa60613024"
    }
  }, {
    "fullUrl": "https://madie.cms.gov/MedicationAdministration/3c508464-0348-470a-8b95-1db91e81ed72",
    "resource": {
      "resourceType": "MedicationAdministration",
      "id": "3c508464-0348-470a-8b95-1db91e81ed72",
      "meta": {
        "profile": [ "http://hl7.org/fhir/us/qicore/StructureDefinition/qicore-medicationadministrationnotdone" ]
      },
      "extension": [ {
        "url": "http://hl7.org/fhir/us/qicore/StructureDefinition/qicore-recorded",
        "valueDateTime": "2026-10-31T07:00:00.000+00:00"
      } ],
      "status": "completed",
      "statusReason": [ {
        "coding": [ {
          "system": "http://snomed.info/sct",
          "code": "443390004",
          "display": "Refusal of treatment by patient (situation)"
        } ]
      } ],
      "medicationCodeableConcept": {
        "coding": [ {
          "system": "http://www.nlm.nih.gov/research/umls/rxnorm",
          "code": "1361607"
        } ]
      },
      "subject": {
        "reference": "Patient/d04c2856-3708-4809-b4e3-4d1746ff274b"
      },
      "effectivePeriod": {
        "start": "2026-10-31T07:00:00.000+00:00"
      },
      "reasonCode": [ {
        "coding": [ {
          "system": "http://snomed.info/sct",
          "code": "105480006",
          "display": "Refusal of treatment by patient (situation)",
          "userSelected": true
        } ]
      } ]
    },
    "request": {
      "method": "PUT",
      "url": "MedicationAdministration/3c508464-0348-470a-8b95-1db91e81ed72"
    }
  }, {
    "fullUrl": "https://madie.cms.gov/MedicationRequest/f910c1f2-d085-4815-ad71-b7c0b66d7a46",
    "resource": {
      "resourceType": "MedicationRequest",
      "id": "f910c1f2-d085-4815-ad71-b7c0b66d7a46",
      "meta": {
        "profile": [ "http://hl7.org/fhir/us/qicore/StructureDefinition/qicore-medicationnotrequested" ]
      },
      "status": "completed",
      "intent": "order",
      "doNotPerform": true,
      "medicationCodeableConcept": {
        "coding": [ {
          "system": "http://www.nlm.nih.gov/research/umls/rxnorm",
          "code": "854228"
        } ]
      },
      "subject": {
        "reference": "Patient/d04c2856-3708-4809-b4e3-4d1746ff274b"
      },
      "authoredOn": "2026-10-31T07:00:00.000+00:00",
      "requester": {
        "reference": "Practitioner/123456"
      },
      "reasonCode": [ {
        "coding": [ {
          "system": "http://snomed.info/sct",
          "code": "183932001",
          "display": "Procedure contraindicated (situation)",
          "userSelected": true
        } ]
      } ],
      "dosageInstruction": [ {
        "timing": {
          "repeat": {
            "boundsPeriod": {
              "start": "2026-10-31T07:00:00.000+00:00"
            }
          }
        }
      } ]
    },
    "request": {
      "method": "PUT",
      "url": "MedicationRequest/f910c1f2-d085-4815-ad71-b7c0b66d7a46"
    }
  }, {
    "fullUrl": "https://madie.cms.gov/MedicationRequest/d99985e8-330b-47da-9264-f54c7061eff8",
    "resource": {
      "resourceType": "MedicationRequest",
      "id": "d99985e8-330b-47da-9264-f54c7061eff8",
      "status": "active",
      "intent": "order",
      "medicationCodeableConcept": {
        "coding": [ {
          "system": "http://www.nlm.nih.gov/research/umls/rxnorm",
          "code": "861356"
        } ]
      },
      "subject": {
        "reference": "Patient/d04c2856-3708-4809-b4e3-4d1746ff274b"
      },
      "authoredOn": "2026-10-31T07:00:00.000+00:00",
      "requester": {
        "reference": "Practitioner/123456"
      },
      "dosageInstruction": [ {
        "timing": {
          "repeat": {
            "boundsPeriod": {
              "start": "2026-10-31T07:00:00.000+00:00"
            }
          }
        }
      } ]
    },
    "request": {
      "method": "PUT",
      "url": "MedicationRequest/d99985e8-330b-47da-9264-f54c7061eff8"
    }
  }, {
    "fullUrl": "https://madie.cms.gov/MedicationRequest/d7cbac48-f7d7-4aa0-8ac0-2230c5cc1759",
    "resource": {
      "resourceType": "MedicationRequest",
      "id": "d7cbac48-f7d7-4aa0-8ac0-2230c5cc1759",
      "status": "active",
      "intent": "order",
      "medicationCodeableConcept": {
        "coding": [ {
          "system": "http://www.nlm.nih.gov/research/umls/rxnorm",
          "code": "855288"
        } ]
      },
      "subject": {
        "reference": "Patient/d04c2856-3708-4809-b4e3-4d1746ff274b"
      },
      "authoredOn": "2026-10-31T07:00:00.000+00:00",
      "requester": {
        "reference": "Practitioner/123456"
      },
      "dosageInstruction": [ {
        "timing": {
          "repeat": {
            "boundsPeriod": {
              "start": "2026-10-31T07:00:00.000+00:00"
            }
          }
        }
      } ]
    },
    "request": {
      "method": "PUT",
      "url": "MedicationRequest/d7cbac48-f7d7-4aa0-8ac0-2230c5cc1759"
    }
  }, {
    "fullUrl": "https://madie.cms.gov/Organization/d0932ac0-9735-4105-a15f-b2de4ddb7603",
    "resource": {
      "resourceType": "Organization",
      "id": "d0932ac0-9735-4105-a15f-b2de4ddb7603",
      "meta": {
        "profile": [ "http://hl7.org/fhir/us/qicore/StructureDefinition/qicore-organization" ]
      },
      "identifier": [ {
        "use": "temp",
        "system": "urn:oid:2.16.840.1.113883.4.4",
        "value": "21-3259825"
      } ],
      "active": true,
      "type": [ {
        "coding": [ {
          "system": "http://terminology.hl7.org/CodeSystem/organization-type",
          "code": "pay",
          "display": "Payer"
        } ]
      } ],
      "name": "Blue Cross Blue Shield of Texas",
      "telecom": [ {
        "system": "phone",
        "value": "(+1) 972-766-6900"
      } ],
      "address": [ {
        "use": "billing",
        "type": "postal",
        "line": [ "P.O. Box 660044" ],
        "city": "Dallas",
        "state": "TX",
        "postalCode": "75266-0044",
        "country": "USA"
      } ]
    },
    "request": {
      "method": "PUT",
      "url": "Organization/d0932ac0-9735-4105-a15f-b2de4ddb7603"
    }
  }, {
    "fullUrl": "https://madie.cms.gov/Practitioner/3b83c8a6-2932-48a9-b4ae-b42534175ab0",
    "resource": {
      "resourceType": "Practitioner",
      "id": "3b83c8a6-2932-48a9-b4ae-b42534175ab0",
      "identifier": [ {
        "system": "http://hl7.org/fhir/sid/us-npi",
        "value": "123456"
      } ],
      "name": [ {
        "family": "Evil",
        "prefix": [ "Dr" ]
      } ]
    },
    "request": {
      "method": "PUT",
      "url": "Practitioner/3b83c8a6-2932-48a9-b4ae-b42534175ab0"
    }
  }, {
    "fullUrl": "https://madie.cms.gov/MeasureReport/e0bf6d5b-9513-4838-beab-9e1481c57e0d",
    "resource": {
      "resourceType": "MeasureReport",
      "id": "e0bf6d5b-9513-4838-beab-9e1481c57e0d",
      "meta": {
        "profile": [ "http://hl7.org/fhir/us/cqfmeasures/StructureDefinition/test-case-cqfm" ]
      },
      "contained": [ {
        "resourceType": "Parameters",
        "id": "64e9d9fd-5277-4d21-aba1-e6ee5a87118d-parameters",
        "parameter": [ {
          "name": "subject",
          "valueString": "d04c2856-3708-4809-b4e3-4d1746ff274b"
        } ]
      } ],
      "extension": [ {
        "url": "http://hl7.org/fhir/StructureDefinition/cqf-inputParameters",
        "valueReference": {
          "reference": "#64e9d9fd-5277-4d21-aba1-e6ee5a87118d-parameters"
        }
      }, {
        "url": "http://hl7.org/fhir/us/cqfmeasures/StructureDefinition/cqfm-testCaseDescription",
        "valueMarkdown": "patient refused GCS, unfractionated heparin, lmwh, vfp, warfarin, factor Xa, IPC in ED but ED is .1 hour before Adm AND Refusal 1 day before Adm\n"
      } ],
      "modifierExtension": [ {
        "url": "http://hl7.org/fhir/us/cqfmeasures/StructureDefinition/cqfm-isTestCase",
        "valueBoolean": true
      } ],
      "status": "complete",
      "type": "individual",
      "measure": "https://madie.cms.gov/Measure/CMS108FHIRVTEProphylaxis",
      "period": {
        "start": "2026-01-01",
        "end": "2026-12-31"
      },
      "group": [ {
        "id": "Group_1",
        "population": [ {
          "id": "InitialPopulation_1",
          "code": {
            "coding": [ {
              "system": "http://terminology.hl7.org/CodeSystem/measure-population",
              "code": "initial-population",
              "display": "Initial Population"
            } ]
          },
          "count": 1
        }, {
          "id": "Denominator_1",
          "code": {
            "coding": [ {
              "system": "http://terminology.hl7.org/CodeSystem/measure-population",
              "code": "denominator",
              "display": "Denominator"
            } ]
          },
          "count": 1
        }, {
          "id": "DenominatorExclusion_1",
          "code": {
            "coding": [ {
              "system": "http://terminology.hl7.org/CodeSystem/measure-population",
              "code": "denominator-exclusion",
              "display": "Denominator Exclusion"
            } ]
          },
          "count": 0
        }, {
          "id": "Numerator_1",
          "code": {
            "coding": [ {
              "system": "http://terminology.hl7.org/CodeSystem/measure-population",
              "code": "numerator",
              "display": "Numerator"
            } ]
          },
          "count": 0
        } ],
        "measureScore": {
          "value": 0.0
        }
      } ],
      "evaluatedResource": [ {
        "reference": "Patient/d04c2856-3708-4809-b4e3-4d1746ff274b"
      }, {
        "reference": "Encounter/a4e6282e-8bb9-4ffd-aa39-035489e53fec"
      }, {
        "reference": "Encounter/0675f4fc-f78d-441c-97cb-1f846f00cc93"
      }, {
        "reference": "Coverage/fc94c5a6-5b72-4375-a31b-01fa60613024"
      }, {
        "reference": "MedicationAdministration/3c508464-0348-470a-8b95-1db91e81ed72"
      }, {
        "reference": "MedicationRequest/f910c1f2-d085-4815-ad71-b7c0b66d7a46"
      }, {
        "reference": "MedicationRequest/d99985e8-330b-47da-9264-f54c7061eff8"
      }, {
        "reference": "MedicationRequest/d7cbac48-f7d7-4aa0-8ac0-2230c5cc1759"
      }, {
        "reference": "Organization/d0932ac0-9735-4105-a15f-b2de4ddb7603"
      }, {
        "reference": "Practitioner/3b83c8a6-2932-48a9-b4ae-b42534175ab0"
      } ]
    },
    "request": {
      "method": "PUT",
      "url": "MeasureReport/e0bf6d5b-9513-4838-beab-9e1481c57e0d"
    }
  } ]
}