{
  "resourceType": "Bundle",
  "id": "4613103103131",
  "type": "collection",
  "entry": [ {
    "fullUrl": "https://madie.cms.gov/Patient/40ac7a7f-5aa0-48d5-9dbf-289ad5ecf863",
    "resource": {
      "resourceType": "Patient",
      "id": "40ac7a7f-5aa0-48d5-9dbf-289ad5ecf863",
      "meta": {
        "profile": [ "http://hl7.org/fhir/us/qicore/StructureDefinition/qicore-patient" ]
      },
      "extension": [ {
        "url": "http://hl7.org/fhir/us/core/StructureDefinition/us-core-race",
        "extension": [ {
          "url": "ombCategory",
          "valueCoding": {
            "system": "urn:oid:2.16.840.1.113883.6.238",
            "code": "2106-3",
            "display": "White"
          }
        }, {
          "url": "text",
          "valueString": "White"
        } ]
      }, {
        "url": "http://hl7.org/fhir/us/core/StructureDefinition/us-core-ethnicity",
        "extension": [ {
          "url": "ombCategory",
          "valueCoding": {
            "system": "urn:oid:2.16.840.1.113883.6.238",
            "code": "2135-2",
            "display": "Hispanic or Latino"
          }
        }, {
          "url": "text",
          "valueString": "Hispanic or Latino"
        } ]
      } ],
      "identifier": [ {
        "type": {
          "coding": [ {
            "system": "http://terminology.hl7.org/CodeSystem/v2-0203",
            "code": "MR"
          } ]
        },
        "system": "https://bonnie-fhir.healthit.gov/",
        "value": "613103ab313C414126351"
      } ],
      "name": [ {
        "family": "DENEXCEPPass",
        "given": [ "BCGNotGivenLastDay6Mo" ]
      } ],
      "gender": "female",
      "birthDate": "1948-12-27"
    }
  }, {
    "fullUrl": "https://madie.cms.gov/Condition/4c6e8863-d648-42df-9d28-44d477ece12a",
    "resource": {
      "resourceType": "Condition",
      "id": "4c6e8863-d648-42df-9d28-44d477ece12a",
      "meta": {
        "profile": [ "http://hl7.org/fhir/us/qicore/StructureDefinition/qicore-condition-problems-health-concerns" ]
      },
      "clinicalStatus": {
        "coding": [ {
          "system": "http://terminology.hl7.org/CodeSystem/condition-clinical",
          "code": "active",
          "display": "Active"
        } ]
      },
      "verificationStatus": {
        "coding": [ {
          "system": "http://terminology.hl7.org/CodeSystem/condition-ver-status",
          "code": "confirmed",
          "display": "Confirmed"
        } ]
      },
      "category": [ {
        "coding": [ {
          "system": "http://terminology.hl7.org/CodeSystem/condition-category",
          "code": "problem-list-item",
          "display": "Problem List Item"
        } ]
      } ],
      "code": {
        "coding": [ {
          "system": "http://hl7.org/fhir/sid/icd-10-cm",
          "version": "2024",
          "code": "C67.1",
          "display": "Malignant neoplasm of dome of bladder"
        } ]
      },
      "subject": {
        "reference": "Patient/40ac7a7f-5aa0-48d5-9dbf-289ad5ecf863"
      },
      "onsetDateTime": "2026-03-05T08:00:00.000Z"
    }
  }, {
    "fullUrl": "https://madie.cms.gov/Encounter/55955966-b589-4fb1-9dd1-4581db152f47",
    "resource": {
      "resourceType": "Encounter",
      "id": "55955966-b589-4fb1-9dd1-4581db152f47",
      "meta": {
        "profile": [ "http://hl7.org/fhir/us/qicore/StructureDefinition/qicore-encounter" ]
      },
      "status": "finished",
      "class": {
        "system": "http://terminology.hl7.org/CodeSystem/v3-ActCode",
        "code": "AMB",
        "display": "ambulatory"
      },
      "type": [ {
        "coding": [ {
          "system": "http://www.ama-assn.org/go/cpt",
          "version": "2024",
          "code": "99202"
        } ]
      } ],
      "subject": {
        "reference": "Patient/40ac7a7f-5aa0-48d5-9dbf-289ad5ecf863"
      },
      "period": {
        "start": "2026-03-05T08:00:00.000Z",
        "end": "2026-03-05T08:15:00.000Z"
      }
    }
  }, {
    "fullUrl": "https://madie.cms.gov/MedicationAdministration/b6fd5107-b9e2-4f1b-9aaf-00359d314ef6",
    "resource": {
      "resourceType": "MedicationAdministration",
      "id": "b6fd5107-b9e2-4f1b-9aaf-00359d314ef6",
      "meta": {
        "profile": [ "http://hl7.org/fhir/us/qicore/StructureDefinition/qicore-medicationadministrationnotdone" ]
      },
      "extension": [ {
        "url": "http://hl7.org/fhir/us/qicore/StructureDefinition/qicore-recorded",
        "valueDateTime": "2024-09-05T08:00:00.000Z"
      } ],
      "status": "not-done",
      "statusReason": [ {
        "coding": [ {
          "system": "http://snomed.info/sct",
          "version": "http://snomed.info/sct/731000124108/version/20240301",
          "code": "242990004",
          "display": "Drug not available for administration (event)"
        } ]
      } ],
      "medicationCodeableConcept": {
        "coding": [ {
          "system": "http://www.nlm.nih.gov/research/umls/rxnorm",
          "version": "06052023",
          "code": "1653484",
          "display": "BCG, live, Tice strain 50 MG/ML Topical Suspension"
        } ]
      },
      "subject": {
        "reference": "Patient/40ac7a7f-5aa0-48d5-9dbf-289ad5ecf863"
      },
      "effectivePeriod": {
        "start": "2024-09-05T08:00:00.000Z",
        "end": "2024-09-05T08:00:00.000Z"
      }
    }
  }, {
    "fullUrl": "https://madie.cms.gov/Procedure/8d95344b-01f4-404b-86d9-5d0ccd8f2192",
    "resource": {
      "resourceType": "Procedure",
      "id": "8d95344b-01f4-404b-86d9-5d0ccd8f2192",
      "meta": {
        "profile": [ "http://hl7.org/fhir/us/qicore/StructureDefinition/qicore-procedure" ]
      },
      "extension": [ {
        "url": "http://hl7.org/fhir/us/qicore/StructureDefinition/qicore-recorded",
        "valueDateTime": "2026-04-06T08:00:00.000Z"
      } ],
      "status": "completed",
      "code": {
        "coding": [ {
          "system": "http://snomed.info/sct",
          "version": "http://snomed.info/sct/731000124108/version/20250301",
          "code": "254292007",
          "display": "Tumor staging"
        } ]
      },
      "subject": {
        "reference": "Patient/40ac7a7f-5aa0-48d5-9dbf-289ad5ecf863"
      },
      "performedPeriod": {
        "start": "2026-03-05T08:00:00.000Z",
        "end": "2026-03-06T08:15:00.000Z"
      }
    }
  }, {
    "fullUrl": "https://madie.cms.gov/Observation/5ece0876-753c-4087-9e62-1b449dd8c512",
    "resource": {
      "resourceType": "Observation",
      "id": "5ece0876-753c-4087-9e62-1b449dd8c512",
      "meta": {
        "profile": [ "http://hl7.org/fhir/us/qicore/StructureDefinition/qicore-observation-lab" ]
      },
      "partOf": [ {
        "reference": "Procedure/8d95344b-01f4-404b-86d9-5d0ccd8f2192"
      } ],
      "status": "final",
      "category": [ {
        "coding": [ {
          "system": "http://terminology.hl7.org/CodeSystem/observation-category",
          "code": "procedure",
          "display": "Procedure"
        } ]
      }, {
        "coding": [ {
          "system": "http://terminology.hl7.org/CodeSystem/observation-category",
          "code": "laboratory",
          "display": "Laboratory"
        } ]
      } ],
      "code": {
        "coding": [ {
          "system": "http://loinc.org",
          "version": "2.76",
          "code": "21902-2",
          "display": "Stage group.pathology Cancer"
        } ]
      },
      "subject": {
        "reference": "Patient/40ac7a7f-5aa0-48d5-9dbf-289ad5ecf863"
      },
      "effectivePeriod": {
        "start": "2026-03-05T08:00:00.000Z",
        "end": "2026-03-06T08:15:00.000Z"
      },
      "issued": "2026-03-05T08:00:00.000Z",
      "valueCodeableConcept": {
        "coding": [ {
          "system": "http://snomed.info/sct",
          "version": "http://snomed.info/sct/731000124108/version/20240301",
          "code": "1228883000",
          "display": "American Joint Committee on Cancer cTa (qualifier value)"
        } ]
      }
    }
  }, {
    "fullUrl": "https://madie.cms.gov/MeasureReport/dadad85c-a8c2-43f4-a4d3-2d597c25fc69",
    "resource": {
      "resourceType": "MeasureReport",
      "id": "dadad85c-a8c2-43f4-a4d3-2d597c25fc69",
      "meta": {
        "profile": [ "http://hl7.org/fhir/us/cqfmeasures/StructureDefinition/test-case-cqfm" ]
      },
      "contained": [ {
        "resourceType": "Parameters",
        "id": "0dab58cc-9f90-4a60-9c70-fba3facfaa3f-parameters",
        "parameter": [ {
          "name": "subject",
          "valueString": "40ac7a7f-5aa0-48d5-9dbf-289ad5ecf863"
        } ]
      } ],
      "extension": [ {
        "url": "http://hl7.org/fhir/StructureDefinition/cqf-inputParameters",
        "valueReference": {
          "reference": "#0dab58cc-9f90-4a60-9c70-fba3facfaa3f-parameters"
        }
      }, {
        "url": "http://hl7.org/fhir/us/cqfmeasures/StructureDefinition/cqfm-testCaseDescription",
        "valueMarkdown": "Patient meets IPP.  BCG not available during MP. Should pass. Note: Issue with Denominator Exception due to negation issue."
      } ],
      "modifierExtension": [ {
        "url": "http://hl7.org/fhir/us/cqfmeasures/StructureDefinition/cqfm-isTestCase",
        "valueBoolean": true
      } ],
      "status": "complete",
      "type": "individual",
      "measure": "https://madie.cms.gov/Measure/CMS646FHIRIntravesicalBCGTherapy",
      "period": {
        "start": "2026-01-01",
        "end": "2026-12-31"
      },
      "group": [ {
        "id": "Group_1",
        "population": [ {
          "id": "InitialPopulation_1",
          "code": {
            "coding": [ {
              "system": "http://terminology.hl7.org/CodeSystem/measure-population",
              "code": "initial-population",
              "display": "Initial Population"
            } ]
          },
          "count": 1
        }, {
          "id": "Denominator_1",
          "code": {
            "coding": [ {
              "system": "http://terminology.hl7.org/CodeSystem/measure-population",
              "code": "denominator",
              "display": "Denominator"
            } ]
          },
          "count": 1
        }, {
          "id": "DenominatorExclusion_1",
          "code": {
            "coding": [ {
              "system": "http://terminology.hl7.org/CodeSystem/measure-population",
              "code": "denominator-exclusion",
              "display": "Denominator Exclusion"
            } ]
          },
          "count": 0
        }, {
          "id": "Numerator_1",
          "code": {
            "coding": [ {
              "system": "http://terminology.hl7.org/CodeSystem/measure-population",
              "code": "numerator",
              "display": "Numerator"
            } ]
          },
          "count": 0
        }, {
          "id": "DenominatorException_1",
          "code": {
            "coding": [ {
              "system": "http://terminology.hl7.org/CodeSystem/measure-population",
              "code": "denominator-exception",
              "display": "Denominator Exception"
            } ]
          },
          "count": 0
        } ],
        "measureScore": {
          "value": 1.0
        }
      } ],
      "evaluatedResource": [ {
        "reference": "Patient/40ac7a7f-5aa0-48d5-9dbf-289ad5ecf863"
      }, {
        "reference": "Condition/4c6e8863-d648-42df-9d28-44d477ece12a"
      }, {
        "reference": "Encounter/55955966-b589-4fb1-9dd1-4581db152f47"
      }, {
        "reference": "MedicationAdministration/b6fd5107-b9e2-4f1b-9aaf-00359d314ef6"
      }, {
        "reference": "Procedure/8d95344b-01f4-404b-86d9-5d0ccd8f2192"
      }, {
        "reference": "Observation/5ece0876-753c-4087-9e62-1b449dd8c512"
      } ]
    }
  } ]
}