{
  "resourceType": "Bundle",
  "id": "6109658e98086b538055b9df",
  "type": "collection",
  "entry": [ {
    "fullUrl": "https://madie.cms.gov/Patient/523eeca6-d45d-4326-a397-627bea696810",
    "resource": {
      "resourceType": "Patient",
      "id": "523eeca6-d45d-4326-a397-627bea696810",
      "meta": {
        "profile": [ "http://hl7.org/fhir/us/qicore/StructureDefinition/qicore-patient" ]
      },
      "extension": [ {
        "url": "http://hl7.org/fhir/us/core/StructureDefinition/us-core-race",
        "extension": [ {
          "url": "ombCategory",
          "valueCoding": {
            "system": "urn:oid:2.16.840.1.113883.6.238",
            "code": "1002-5",
            "display": "American Indian or Alaska Native",
            "userSelected": true
          }
        }, {
          "url": "text",
          "valueString": "American Indian or Alaska Native"
        } ]
      }, {
        "url": "http://hl7.org/fhir/us/core/StructureDefinition/us-core-ethnicity",
        "extension": [ {
          "url": "ombCategory",
          "valueCoding": {
            "system": "urn:oid:2.16.840.1.113883.6.238",
            "code": "2135-2",
            "display": "Hispanic or Latino",
            "userSelected": true
          }
        }, {
          "url": "text",
          "valueString": "Hispanic or Latino"
        } ]
      } ],
      "identifier": [ {
        "type": {
          "coding": [ {
            "system": "http://terminology.hl7.org/CodeSystem/v2-0203",
            "code": "MR"
          } ]
        },
        "system": "https://bonnie-fhir.healthit.gov/",
        "value": "6109658e98086b538055b9df"
      } ],
      "active": true,
      "name": [ {
        "use": "usual",
        "family": "DENEXCEPFail",
        "given": [ "DiscExamNotDoneNoMR" ]
      } ],
      "gender": "male",
      "birthDate": "1968-06-14"
    }
  }, {
    "fullUrl": "https://madie.cms.gov/Condition/a8c26364-2490-4bd1-b84d-5826803de464",
    "resource": {
      "resourceType": "Condition",
      "id": "a8c26364-2490-4bd1-b84d-5826803de464",
      "meta": {
        "profile": [ "http://hl7.org/fhir/us/qicore/StructureDefinition/qicore-condition-problems-health-concerns" ]
      },
      "clinicalStatus": {
        "coding": [ {
          "system": "http://terminology.hl7.org/CodeSystem/condition-clinical",
          "code": "active",
          "display": "active",
          "userSelected": true
        } ]
      },
      "category": [ {
        "coding": [ {
          "system": "http://terminology.hl7.org/CodeSystem/condition-category",
          "code": "problem-list-item",
          "display": "Problem List Item",
          "userSelected": true
        } ]
      } ],
      "code": {
        "coding": [ {
          "system": "http://snomed.info/sct",
          "version": "http://snomed.info/sct/731000124108/version/20250301",
          "code": "111513000",
          "display": "Advanced open-angle glaucoma (disorder)",
          "userSelected": true
        }, {
          "system": "http://hl7.org/fhir/sid/icd-10-cm",
          "code": "H40.10X0",
          "userSelected": true
        } ]
      },
      "subject": {
        "reference": "Patient/523eeca6-d45d-4326-a397-627bea696810"
      },
      "onsetDateTime": "2014-04-11T08:00:00.000+00:00",
      "recordedDate": "2014-04-11T12:40:00.000+00:00"
    }
  }, {
    "fullUrl": "https://madie.cms.gov/Encounter/0e318169-5871-49cf-830e-b6a2b9cf6a5e",
    "resource": {
      "resourceType": "Encounter",
      "id": "0e318169-5871-49cf-830e-b6a2b9cf6a5e",
      "meta": {
        "profile": [ "http://hl7.org/fhir/us/qicore/StructureDefinition/qicore-encounter" ]
      },
      "status": "finished",
      "class": {
        "system": "http://terminology.hl7.org/CodeSystem/v3-ActCode",
        "code": "AMB",
        "display": "ambulatory",
        "userSelected": true
      },
      "type": [ {
        "coding": [ {
          "system": "http://snomed.info/sct",
          "version": "http://snomed.info/sct/731000124108/version/202303",
          "code": "359960003",
          "display": "Ophthalmologic examination and evaluation under general anesthesia, limited (procedure)",
          "userSelected": true
        }, {
          "system": "http://www.ama-assn.org/go/cpt",
          "version": "2023",
          "code": "92004",
          "userSelected": true
        } ]
      } ],
      "subject": {
        "reference": "Patient/523eeca6-d45d-4326-a397-627bea696810"
      },
      "period": {
        "start": "2026-03-15T08:00:00.000+00:00",
        "end": "2026-03-15T08:30:00.000+00:00"
      }
    }
  }, {
    "fullUrl": "https://madie.cms.gov/Observation/b7bdbff4-a13e-46ae-a932-22a6940e0aed",
    "resource": {
      "resourceType": "Observation",
      "id": "b7bdbff4-a13e-46ae-a932-22a6940e0aed",
      "meta": {
        "profile": [ "http://hl7.org/fhir/us/qicore/StructureDefinition/qicore-observation-clinical-result" ]
      },
      "status": "unknown",
      "category": [ {
        "coding": [ {
          "system": "http://terminology.hl7.org/CodeSystem/observation-category",
          "code": "laboratory",
          "display": "laboratory",
          "userSelected": true
        } ]
      }, {
        "coding": [ {
          "system": "http://terminology.hl7.org/CodeSystem/observation-category",
          "code": "survey"
        } ]
      } ],
      "code": {
        "coding": [ {
          "system": "http://loinc.org",
          "version": "2.73",
          "code": "71486-5",
          "display": "Left eye Optic disc or retinal nerve fiber layer structural abnormalities by Ophthalmoscopy",
          "userSelected": true
        } ]
      },
      "subject": {
        "reference": "Patient/523eeca6-d45d-4326-a397-627bea696810"
      },
      "effectiveDateTime": "2026-03-15T08:15:00.000+00:00",
      "dataAbsentReason": {
        "coding": [ {
          "system": "http://terminology.hl7.org/CodeSystem/data-absent-reason",
          "code": "unknown",
          "display": "Unknown"
        } ]
      }
    }
  }, {
    "fullUrl": "https://madie.cms.gov/MeasureReport/e91f5ae2-2626-4028-8ec3-a583da6ea1bc",
    "resource": {
      "resourceType": "MeasureReport",
      "id": "e91f5ae2-2626-4028-8ec3-a583da6ea1bc",
      "meta": {
        "profile": [ "http://hl7.org/fhir/us/cqfmeasures/StructureDefinition/test-case-cqfm" ]
      },
      "contained": [ {
        "resourceType": "Parameters",
        "id": "d17a9ba7-cbdb-47d6-ba6b-b8db987b2215-parameters",
        "parameter": [ {
          "name": "subject",
          "valueString": "523eeca6-d45d-4326-a397-627bea696810"
        } ]
      } ],
      "extension": [ {
        "url": "http://hl7.org/fhir/StructureDefinition/cqf-inputParameters",
        "valueReference": {
          "reference": "#d17a9ba7-cbdb-47d6-ba6b-b8db987b2215-parameters"
        }
      }, {
        "url": "http://hl7.org/fhir/us/cqfmeasures/StructureDefinition/cqfm-testCaseDescription",
        "valueMarkdown": "Patient with Diagnosis: Primary Open-Angle Glaucoma.   Diagnostic Study Performed: Left eye Optic disc or retinal nerve fiber layer structural abnormalities by Ophthalmoscopy result not recorded, but no medical reason noted"
      } ],
      "modifierExtension": [ {
        "url": "http://hl7.org/fhir/us/cqfmeasures/StructureDefinition/cqfm-isTestCase",
        "valueBoolean": true
      } ],
      "status": "complete",
      "type": "individual",
      "measure": "https://madie.cms.gov/Measure/CMS143FHIRPOAGOpticNerveEval",
      "period": {
        "start": "2026-01-01",
        "end": "2026-12-31"
      },
      "group": [ {
        "id": "Group_1",
        "population": [ {
          "id": "InitialPopulation_1",
          "code": {
            "coding": [ {
              "system": "http://terminology.hl7.org/CodeSystem/measure-population",
              "code": "initial-population",
              "display": "Initial Population"
            } ]
          },
          "count": 1
        }, {
          "id": "Denominator_1",
          "code": {
            "coding": [ {
              "system": "http://terminology.hl7.org/CodeSystem/measure-population",
              "code": "denominator",
              "display": "Denominator"
            } ]
          },
          "count": 1
        }, {
          "id": "Numerator_1",
          "code": {
            "coding": [ {
              "system": "http://terminology.hl7.org/CodeSystem/measure-population",
              "code": "numerator",
              "display": "Numerator"
            } ]
          },
          "count": 0
        }, {
          "id": "DenominatorException_1",
          "code": {
            "coding": [ {
              "system": "http://terminology.hl7.org/CodeSystem/measure-population",
              "code": "denominator-exception",
              "display": "Denominator Exception"
            } ]
          },
          "count": 0
        } ],
        "measureScore": {
          "value": 1.0
        }
      } ],
      "evaluatedResource": [ {
        "reference": "Patient/523eeca6-d45d-4326-a397-627bea696810"
      }, {
        "reference": "Condition/a8c26364-2490-4bd1-b84d-5826803de464"
      }, {
        "reference": "Encounter/0e318169-5871-49cf-830e-b6a2b9cf6a5e"
      }, {
        "reference": "Observation/b7bdbff4-a13e-46ae-a932-22a6940e0aed"
      } ]
    }
  } ]
}