{
  "resourceType": "Bundle",
  "id": "6129133e02c62a011f2e6a2c",
  "type": "transaction",
  "entry": [ {
    "fullUrl": "https://madie.cms.gov/Patient/264ec8d1-8e92-4b73-a6cb-e8856b22890d",
    "resource": {
      "resourceType": "Patient",
      "id": "264ec8d1-8e92-4b73-a6cb-e8856b22890d",
      "meta": {
        "profile": [ "http://hl7.org/fhir/us/qicore/StructureDefinition/qicore-patient" ]
      },
      "text": {
        "status": "generated",
        "div": "<div xmlns=\"http://www.w3.org/1999/xhtml\"><div class=\"hapiHeaderText\">CMOdurObs_ED&lt;1hrObs&lt;1hrBFEnc <b>DENEXPASS </b></div><table class=\"hapiPropertyTable\"><tbody><tr><td>Identifier</td><td>be1b0e9bc1417561cde46dac918ff4d2</td></tr><tr><td>Date of birth</td><td><span>21 August 1994</span></td></tr></tbody></table></div>"
      },
      "extension": [ {
        "url": "http://hl7.org/fhir/us/core/StructureDefinition/us-core-race",
        "extension": [ {
          "url": "ombCategory",
          "valueCoding": {
            "system": "urn:oid:2.16.840.1.113883.6.238",
            "code": "1002-5",
            "display": "American Indian or Alaska Native",
            "userSelected": true
          }
        }, {
          "url": "text",
          "valueString": "American Indian or Alaska Native"
        } ]
      }, {
        "url": "http://hl7.org/fhir/us/core/StructureDefinition/us-core-ethnicity",
        "extension": [ {
          "url": "ombCategory",
          "valueCoding": {
            "system": "urn:oid:2.16.840.1.113883.6.238",
            "code": "2135-2",
            "display": "Hispanic or Latino",
            "userSelected": true
          }
        }, {
          "url": "text",
          "valueString": "Hispanic or Latino"
        } ]
      } ],
      "identifier": [ {
        "type": {
          "coding": [ {
            "system": "http://terminology.hl7.org/CodeSystem/v2-0203",
            "code": "MR"
          } ]
        },
        "system": "https://bonnie-fhir.healthit.gov/",
        "value": "6129133e02c62a011f2e6a2c"
      } ],
      "active": true,
      "name": [ {
        "use": "usual",
        "family": "DENEXPass",
        "given": [ "CMOdurObs_ED<1hrObs<1hrBFEnc" ]
      } ],
      "gender": "male",
      "birthDate": "1995-08-21"
    },
    "request": {
      "method": "PUT",
      "url": "Patient/264ec8d1-8e92-4b73-a6cb-e8856b22890d"
    }
  }, {
    "fullUrl": "https://madie.cms.gov/Encounter/fdb51b85-bd8e-4e57-82ea-f9c01fc2242e",
    "resource": {
      "resourceType": "Encounter",
      "id": "fdb51b85-bd8e-4e57-82ea-f9c01fc2242e",
      "meta": {
        "profile": [ "http://hl7.org/fhir/us/qicore/StructureDefinition/qicore-encounter" ]
      },
      "status": "finished",
      "class": {
        "system": "http://terminology.hl7.org/CodeSystem/v3-ActCode",
        "code": "EMER",
        "display": "emergency",
        "userSelected": true
      },
      "type": [ {
        "coding": [ {
          "system": "http://snomed.info/sct",
          "code": "4525004"
        } ]
      } ],
      "subject": {
        "reference": "Patient/264ec8d1-8e92-4b73-a6cb-e8856b22890d"
      },
      "period": {
        "start": "2026-10-10T07:30:00.000+00:00",
        "end": "2026-10-10T07:31:00.000+00:00"
      },
      "length": {
        "value": 0,
        "unit": "days"
      }
    },
    "request": {
      "method": "PUT",
      "url": "Encounter/fdb51b85-bd8e-4e57-82ea-f9c01fc2242e"
    }
  }, {
    "fullUrl": "https://madie.cms.gov/Encounter/7e5163e3-2814-4b58-a0bb-d609c9c9fc56",
    "resource": {
      "resourceType": "Encounter",
      "id": "7e5163e3-2814-4b58-a0bb-d609c9c9fc56",
      "meta": {
        "profile": [ "http://hl7.org/fhir/us/qicore/StructureDefinition/qicore-encounter" ]
      },
      "status": "finished",
      "class": {
        "system": "http://terminology.hl7.org/CodeSystem/v3-ActCode",
        "code": "OBSENC",
        "display": "observation encounter",
        "userSelected": true
      },
      "type": [ {
        "coding": [ {
          "system": "http://snomed.info/sct",
          "code": "448851000124103"
        } ]
      } ],
      "subject": {
        "reference": "Patient/264ec8d1-8e92-4b73-a6cb-e8856b22890d"
      },
      "period": {
        "start": "2026-10-10T07:32:00.000+00:00",
        "end": "2026-10-10T08:00:00.000+00:00"
      },
      "length": {
        "value": 0,
        "unit": "days"
      }
    },
    "request": {
      "method": "PUT",
      "url": "Encounter/7e5163e3-2814-4b58-a0bb-d609c9c9fc56"
    }
  }, {
    "fullUrl": "https://madie.cms.gov/Encounter/df4b52ad-84f1-42e4-8aa0-c6dfbc1533b0",
    "resource": {
      "resourceType": "Encounter",
      "id": "df4b52ad-84f1-42e4-8aa0-c6dfbc1533b0",
      "meta": {
        "profile": [ "http://hl7.org/fhir/us/qicore/StructureDefinition/qicore-encounter" ]
      },
      "status": "finished",
      "class": {
        "system": "http://terminology.hl7.org/CodeSystem/v3-ActCode",
        "code": "IMP",
        "display": "inpatient encounter",
        "userSelected": true
      },
      "type": [ {
        "coding": [ {
          "system": "http://snomed.info/sct",
          "code": "32485007"
        } ]
      } ],
      "subject": {
        "reference": "Patient/264ec8d1-8e92-4b73-a6cb-e8856b22890d"
      },
      "period": {
        "start": "2026-10-10T08:01:00.000+00:00",
        "end": "2026-10-12T10:30:00.000+00:00"
      },
      "length": {
        "value": 2,
        "unit": "days"
      },
      "diagnosis": [ {
        "condition": {
          "reference": "Condition/60cf8936-df34-4956-8c35-c6ed63a650d0"
        },
        "use": {
          "coding": [ {
            "system": "http://terminology.hl7.org/CodeSystem/diagnosis-role",
            "code": "billing",
            "display": "Billing"
          } ]
        },
        "rank": 1
      } ]
    },
    "request": {
      "method": "PUT",
      "url": "Encounter/df4b52ad-84f1-42e4-8aa0-c6dfbc1533b0"
    }
  }, {
    "fullUrl": "https://madie.cms.gov/Procedure/aabd12f7-0103-4cb2-9d3b-e1df2b25281f",
    "resource": {
      "resourceType": "Procedure",
      "id": "aabd12f7-0103-4cb2-9d3b-e1df2b25281f",
      "meta": {
        "profile": [ "http://hl7.org/fhir/us/qicore/StructureDefinition/qicore-procedure" ]
      },
      "extension": [ {
        "url": "http://hl7.org/fhir/us/qicore/StructureDefinition/qicore-recorded",
        "valueDateTime": "2013-11-02T13:35:00.000+00:00"
      } ],
      "status": "completed",
      "code": {
        "coding": [ {
          "system": "http://snomed.info/sct",
          "code": "133918004",
          "display": "Comfort measures (regime/therapy)"
        } ]
      },
      "subject": {
        "reference": "Patient/264ec8d1-8e92-4b73-a6cb-e8856b22890d"
      },
      "performedPeriod": {
        "start": "2026-10-10T08:00:00.000+00:00"
      }
    },
    "request": {
      "method": "PUT",
      "url": "Procedure/aabd12f7-0103-4cb2-9d3b-e1df2b25281f"
    }
  }, {
    "fullUrl": "https://madie.cms.gov/Condition/60cf8936-df34-4956-8c35-c6ed63a650d0",
    "resource": {
      "resourceType": "Condition",
      "id": "60cf8936-df34-4956-8c35-c6ed63a650d0",
      "meta": {
        "profile": [ "http://hl7.org/fhir/us/qicore/StructureDefinition/qicore-condition-encounter-diagnosis" ]
      },
      "clinicalStatus": {
        "coding": [ {
          "system": "http://terminology.hl7.org/CodeSystem/condition-clinical",
          "code": "active"
        } ]
      },
      "verificationStatus": {
        "coding": [ {
          "system": "http://terminology.hl7.org/CodeSystem/condition-ver-status",
          "code": "confirmed"
        } ]
      },
      "category": [ {
        "coding": [ {
          "system": "http://terminology.hl7.org/CodeSystem/condition-category",
          "code": "encounter-diagnosis",
          "display": "Encounter Diagnosis"
        } ]
      } ],
      "code": {
        "coding": [ {
          "system": "http://snomed.info/sct",
          "version": "2020-09",
          "code": "111297002",
          "display": "Nonparalytic stroke (disorder)",
          "userSelected": true
        } ]
      },
      "subject": {
        "reference": "Patient/264ec8d1-8e92-4b73-a6cb-e8856b22890d"
      },
      "recordedDate": "2026-07-15T08:00:00.000+00:00"
    },
    "request": {
      "method": "PUT",
      "url": "Condition/60cf8936-df34-4956-8c35-c6ed63a650d0"
    }
  }, {
    "fullUrl": "https://madie.cms.gov/claim/5ca62962b8484628b8de1ec5",
    "resource": {
      "resourceType": "Claim",
      "id": "5ca62962b8484628b8de1ec5",
      "meta": {
        "profile": [ "http://hl7.org/fhir/us/qicore/StructureDefinition/qicore-claim" ]
      },
      "status": "active",
      "type": {
        "coding": [ {
          "system": "http://terminology.hl7.org/CodeSystem/claim-type",
          "code": "institutional"
        } ]
      },
      "use": "claim",
      "patient": {
        "reference": "Patient/d170a0a8-b5ad-4303-b6df-e304dd5f92ad"
      },
      "created": "2026-12-01",
      "provider": {
        "reference": "Practitioner/practitioner-123456"
      },
      "priority": {
        "coding": [ {
          "system": "http://terminology.hl7.org/CodeSystem/processpriority",
          "code": "normal"
        } ]
      },
      "diagnosis": [ {
        "sequence": 1,
        "diagnosisCodeableConcept": {
          "coding": [ {
            "system": "http://hl7.org/fhir/sid/icd-10-cm",
            "code": "I63.00"
          } ]
        },
        "type": [ {
          "coding": [ {
            "system": "http://terminology.hl7.org/CodeSystem/ex-diagnosistype",
            "code": "principal"
          } ]
        } ]
      } ],
      "insurance": [ {
        "sequence": 1,
        "focal": true,
        "coverage": {
          "reference": "Coverage/5fa041661c76ba66d9959367"
        }
      } ],
      "item": [ {
        "sequence": 1,
        "diagnosisSequence": [ 1 ],
        "productOrService": {
          "coding": [ {
            "system": "http://terminology.hl7.org/CodeSystem/ex-USCLS",
            "code": "99555"
          } ]
        },
        "encounter": [ {
          "reference": "Encounter/df4b52ad-84f1-42e4-8aa0-c6dfbc1533b0"
        } ]
      } ]
    },
    "request": {
      "method": "PUT",
      "url": "Claim/5ca62962b8484628b8de1ec5"
    }
  }, {
    "fullUrl": "https://madie.cms.gov/Coverage/a7b99076-32fe-4d3b-aead-f38e68cb597c",
    "resource": {
      "resourceType": "Coverage",
      "id": "a7b99076-32fe-4d3b-aead-f38e68cb597c",
      "meta": {
        "profile": [ "http://hl7.org/fhir/us/qicore/StructureDefinition/qicore-coverage" ]
      },
      "status": "active",
      "subscriberId": "523435",
      "beneficiary": {
        "reference": "Patient/39a21e09-33d0-45ca-99eb-b839c1676e1a"
      },
      "relationship": {
        "coding": [ {
          "system": "http://terminology.hl7.org/CodeSystem/subscriber-relationship",
          "code": "self"
        } ]
      },
      "payor": [ {
        "reference": "Organization/d37057b6-773c-4d70-a79d-ae426343fb03"
      } ]
    },
    "request": {
      "method": "PUT",
      "url": "Coverage/a7b99076-32fe-4d3b-aead-f38e68cb597c"
    }
  }, {
    "fullUrl": "https://madie.cms.gov/Organization/d37057b6-773c-4d70-a79d-ae426343fb03",
    "resource": {
      "resourceType": "Organization",
      "id": "d37057b6-773c-4d70-a79d-ae426343fb03",
      "meta": {
        "profile": [ "http://hl7.org/fhir/us/qicore/StructureDefinition/qicore-organization" ]
      },
      "identifier": [ {
        "use": "temp",
        "system": "urn:oid:2.16.840.1.113883.4.4",
        "value": "21-3259825"
      } ],
      "active": true,
      "type": [ {
        "coding": [ {
          "system": "http://terminology.hl7.org/CodeSystem/organization-type",
          "code": "pay",
          "display": "Payer"
        } ]
      } ],
      "name": "Blue Cross Blue Shield of Texas",
      "telecom": [ {
        "system": "phone",
        "value": "(+1) 972-766-6900"
      } ],
      "address": [ {
        "use": "billing",
        "type": "postal",
        "line": [ "P.O. Box 660044" ],
        "city": "Dallas",
        "state": "TX",
        "postalCode": "75266-0044",
        "country": "USA"
      } ]
    },
    "request": {
      "method": "PUT",
      "url": "Organization/d37057b6-773c-4d70-a79d-ae426343fb03"
    }
  }, {
    "fullUrl": "https://madie.cms.gov/MeasureReport/73af38ed-070d-46ba-8091-4dca8007cf56",
    "resource": {
      "resourceType": "MeasureReport",
      "id": "73af38ed-070d-46ba-8091-4dca8007cf56",
      "meta": {
        "profile": [ "http://hl7.org/fhir/us/cqfmeasures/StructureDefinition/test-case-cqfm" ]
      },
      "contained": [ {
        "resourceType": "Parameters",
        "id": "d0831f96-d1f9-4c06-bdcc-e3bba1828bad-parameters",
        "parameter": [ {
          "name": "subject",
          "valueString": "264ec8d1-8e92-4b73-a6cb-e8856b22890d"
        } ]
      } ],
      "extension": [ {
        "url": "http://hl7.org/fhir/StructureDefinition/cqf-inputParameters",
        "valueReference": {
          "reference": "#d0831f96-d1f9-4c06-bdcc-e3bba1828bad-parameters"
        }
      }, {
        "url": "http://hl7.org/fhir/us/cqfmeasures/StructureDefinition/cqfm-testCaseDescription",
        "valueMarkdown": "Patient receives comfort measures as procedure during ED visit that ends <= 1 hour before IP Encounter"
      } ],
      "modifierExtension": [ {
        "url": "http://hl7.org/fhir/us/cqfmeasures/StructureDefinition/cqfm-isTestCase",
        "valueBoolean": true
      } ],
      "status": "complete",
      "type": "individual",
      "measure": "https://madie.cms.gov/Measure/CMS104FHIRSTKDCAntithrombotic",
      "period": {
        "start": "2026-01-01",
        "end": "2026-12-31"
      },
      "group": [ {
        "id": "Group_1",
        "population": [ {
          "id": "InitialPopulation_1",
          "code": {
            "coding": [ {
              "system": "http://terminology.hl7.org/CodeSystem/measure-population",
              "code": "initial-population",
              "display": "Initial Population"
            } ]
          },
          "count": 1
        }, {
          "id": "Denominator_1",
          "code": {
            "coding": [ {
              "system": "http://terminology.hl7.org/CodeSystem/measure-population",
              "code": "denominator",
              "display": "Denominator"
            } ]
          },
          "count": 1
        }, {
          "id": "DenominatorExclusion_1",
          "code": {
            "coding": [ {
              "system": "http://terminology.hl7.org/CodeSystem/measure-population",
              "code": "denominator-exclusion",
              "display": "Denominator Exclusion"
            } ]
          },
          "count": 1
        }, {
          "id": "Numerator_1",
          "code": {
            "coding": [ {
              "system": "http://terminology.hl7.org/CodeSystem/measure-population",
              "code": "numerator",
              "display": "Numerator"
            } ]
          },
          "count": 0
        }, {
          "id": "DenominatorException_1",
          "code": {
            "coding": [ {
              "system": "http://terminology.hl7.org/CodeSystem/measure-population",
              "code": "denominator-exception",
              "display": "Denominator Exception"
            } ]
          },
          "count": 0
        } ],
        "measureScore": {
          "value": 0.0
        }
      } ],
      "evaluatedResource": [ {
        "reference": "Patient/264ec8d1-8e92-4b73-a6cb-e8856b22890d"
      }, {
        "reference": "Encounter/fdb51b85-bd8e-4e57-82ea-f9c01fc2242e"
      }, {
        "reference": "Encounter/7e5163e3-2814-4b58-a0bb-d609c9c9fc56"
      }, {
        "reference": "Encounter/df4b52ad-84f1-42e4-8aa0-c6dfbc1533b0"
      }, {
        "reference": "Procedure/aabd12f7-0103-4cb2-9d3b-e1df2b25281f"
      }, {
        "reference": "Condition/60cf8936-df34-4956-8c35-c6ed63a650d0"
      }, {
        "reference": "Claim/5ca62962b8484628b8de1ec5"
      }, {
        "reference": "Coverage/a7b99076-32fe-4d3b-aead-f38e68cb597c"
      }, {
        "reference": "Organization/d37057b6-773c-4d70-a79d-ae426343fb03"
      } ]
    },
    "request": {
      "method": "PUT",
      "url": "MeasureReport/73af38ed-070d-46ba-8091-4dca8007cf56"
    }
  } ]
}