{
  "resourceType": "Bundle",
  "id": "63487c2d0968f80122540151",
  "type": "transaction",
  "entry": [ {
    "fullUrl": "https://madie.cms.gov/Patient/e5271b0a-fc73-4edb-a855-828959e04e37",
    "resource": {
      "resourceType": "Patient",
      "id": "e5271b0a-fc73-4edb-a855-828959e04e37",
      "meta": {
        "profile": [ "http://hl7.org/fhir/us/qicore/StructureDefinition/qicore-patient" ]
      },
      "text": {
        "status": "generated",
        "div": "<div xmlns=\"http://www.w3.org/1999/xhtml\"><div class=\"hapiHeaderText\">AssessPreTerm1<b>DENOMFail</b></div><table class=\"hapiPropertyTable\"><tbody><tr><td>Identifier</td><td>f15d9136a3bc08952ca0f089f657bacdb16a6343586e5ae123eb3e7fb58cd71d</td></tr><tr><td>Date of birth</td><td><span>14 February 1985</span></td></tr></tbody></table></div>"
      },
      "extension": [ {
        "url": "http://hl7.org/fhir/us/core/StructureDefinition/us-core-race",
        "extension": [ {
          "url": "ombCategory",
          "valueCoding": {
            "system": "urn:oid:2.16.840.1.113883.6.238",
            "code": "1002-5",
            "display": "American Indian or Alaska Native",
            "userSelected": true
          }
        }, {
          "url": "text",
          "valueString": "American Indian or Alaska Native"
        } ]
      }, {
        "url": "http://hl7.org/fhir/us/core/StructureDefinition/us-core-ethnicity",
        "extension": [ {
          "url": "ombCategory",
          "valueCoding": {
            "system": "urn:oid:2.16.840.1.113883.6.238",
            "code": "2135-2",
            "display": "Hispanic or Latino",
            "userSelected": true
          }
        }, {
          "url": "text",
          "valueString": "Hispanic or Latino"
        } ]
      } ],
      "identifier": [ {
        "type": {
          "coding": [ {
            "system": "http://terminology.hl7.org/CodeSystem/v2-0203",
            "code": "MR"
          } ]
        },
        "system": "https://bonnie-fhir.healthit.gov/",
        "value": "63487c2d0968f80122540151"
      } ],
      "active": true,
      "name": [ {
        "use": "usual",
        "family": "DENOMFail",
        "given": [ "AssessPreTerm1" ]
      } ],
      "gender": "female",
      "birthDate": "1998-02-14"
    },
    "request": {
      "method": "PUT",
      "url": "Patient/e5271b0a-fc73-4edb-a855-828959e04e37"
    }
  }, {
    "fullUrl": "https://madie.cms.gov/Observation/93d53423-4082-4f88-8907-cf0238594323",
    "resource": {
      "resourceType": "Observation",
      "id": "93d53423-4082-4f88-8907-cf0238594323",
      "meta": {
        "profile": [ "http://hl7.org/fhir/us/qicore/StructureDefinition/qicore-simple-observation" ]
      },
      "status": "final",
      "category": [ {
        "coding": [ {
          "system": "http://terminology.hl7.org/CodeSystem/observation-category",
          "code": "exam",
          "display": "exam",
          "userSelected": true
        } ]
      } ],
      "code": {
        "coding": [ {
          "system": "http://loinc.org",
          "code": "11637-6"
        } ]
      },
      "subject": {
        "reference": "Patient/e5271b0a-fc73-4edb-a855-828959e04e37"
      },
      "effectiveDateTime": "2025-09-19T09:00:00.000+00:00",
      "valueInteger": 1
    },
    "request": {
      "method": "PUT",
      "url": "Observation/93d53423-4082-4f88-8907-cf0238594323"
    }
  }, {
    "fullUrl": "https://madie.cms.gov/Observation/f6c9277d-9801-4bb2-9f39-6c73172e515b",
    "resource": {
      "resourceType": "Observation",
      "id": "f6c9277d-9801-4bb2-9f39-6c73172e515b",
      "meta": {
        "profile": [ "http://hl7.org/fhir/us/qicore/StructureDefinition/qicore-simple-observation" ]
      },
      "status": "final",
      "category": [ {
        "coding": [ {
          "system": "http://terminology.hl7.org/CodeSystem/observation-category",
          "code": "exam",
          "display": "exam",
          "userSelected": true
        } ]
      } ],
      "code": {
        "coding": [ {
          "system": "http://loinc.org",
          "code": "11639-2"
        } ]
      },
      "subject": {
        "reference": "Patient/e5271b0a-fc73-4edb-a855-828959e04e37"
      },
      "effectiveDateTime": "2025-09-19T09:00:00.000+00:00",
      "valueInteger": 0
    },
    "request": {
      "method": "PUT",
      "url": "Observation/f6c9277d-9801-4bb2-9f39-6c73172e515b"
    }
  }, {
    "fullUrl": "https://madie.cms.gov/Observation/56ba67c5-5957-4a19-92f5-dec834000775",
    "resource": {
      "resourceType": "Observation",
      "id": "56ba67c5-5957-4a19-92f5-dec834000775",
      "meta": {
        "profile": [ "http://hl7.org/fhir/us/qicore/StructureDefinition/qicore-simple-observation" ]
      },
      "status": "final",
      "category": [ {
        "coding": [ {
          "system": "http://terminology.hl7.org/CodeSystem/observation-category",
          "code": "exam",
          "display": "exam",
          "userSelected": true
        } ]
      } ],
      "code": {
        "coding": [ {
          "system": "http://loinc.org",
          "code": "11884-4"
        } ]
      },
      "subject": {
        "reference": "Patient/e5271b0a-fc73-4edb-a855-828959e04e37"
      },
      "effectiveDateTime": "2026-06-08T20:00:00.000+00:00",
      "valueQuantity": {
        "value": 37,
        "system": "http://unitsofmeasure.org",
        "code": "wk"
      }
    },
    "request": {
      "method": "PUT",
      "url": "Observation/56ba67c5-5957-4a19-92f5-dec834000775"
    }
  }, {
    "fullUrl": "https://madie.cms.gov/Observation/f416e6a6-5616-447c-b56f-e304207fe6e6",
    "resource": {
      "resourceType": "Observation",
      "id": "f416e6a6-5616-447c-b56f-e304207fe6e6",
      "meta": {
        "profile": [ "http://hl7.org/fhir/us/qicore/StructureDefinition/qicore-simple-observation" ]
      },
      "status": "final",
      "category": [ {
        "coding": [ {
          "system": "http://terminology.hl7.org/CodeSystem/observation-category",
          "code": "exam",
          "display": "exam",
          "userSelected": true
        } ]
      } ],
      "code": {
        "coding": [ {
          "system": "http://loinc.org",
          "code": "93857-1"
        } ]
      },
      "subject": {
        "reference": "Patient/e5271b0a-fc73-4edb-a855-828959e04e37"
      },
      "effectiveDateTime": "2026-06-08T20:00:00.000+00:00",
      "valueDateTime": "2026-06-08T20:00:00.000+00:00"
    },
    "request": {
      "method": "PUT",
      "url": "Observation/f416e6a6-5616-447c-b56f-e304207fe6e6"
    }
  }, {
    "fullUrl": "https://madie.cms.gov/Encounter/1d90bc1e-0e60-4014-8a10-96981b334b6b",
    "resource": {
      "resourceType": "Encounter",
      "id": "1d90bc1e-0e60-4014-8a10-96981b334b6b",
      "meta": {
        "profile": [ "http://hl7.org/fhir/us/qicore/StructureDefinition/qicore-encounter" ]
      },
      "status": "finished",
      "class": {
        "system": "http://terminology.hl7.org/CodeSystem/v3-ActCode",
        "code": "IMP",
        "display": "inpatient encounter"
      },
      "type": [ {
        "coding": [ {
          "system": "http://snomed.info/sct",
          "code": "8715000"
        } ]
      } ],
      "subject": {
        "reference": "Patient/e5271b0a-fc73-4edb-a855-828959e04e37"
      },
      "period": {
        "start": "2026-06-08T08:00:00.000+00:00",
        "end": "2026-06-10T08:15:00.000+00:00"
      },
      "length": {
        "value": 2,
        "unit": "days"
      },
      "reasonReference": [ {
        "reference": "Condition/2d164f4d-d5ae-4a87-8bf4-974d9123b9f0"
      } ]
    },
    "request": {
      "method": "PUT",
      "url": "Encounter/1d90bc1e-0e60-4014-8a10-96981b334b6b"
    }
  }, {
    "fullUrl": "https://madie.cms.gov/Procedure/37838b78-930f-4604-a33e-70ed777dce21",
    "resource": {
      "resourceType": "Procedure",
      "id": "37838b78-930f-4604-a33e-70ed777dce21",
      "meta": {
        "profile": [ "http://hl7.org/fhir/us/qicore/StructureDefinition/qicore-procedure" ]
      },
      "extension": [ {
        "url": "http://hl7.org/fhir/us/qicore/StructureDefinition/qicore-recorded",
        "valueDateTime": "2014-04-05T13:35:00.000+00:00"
      } ],
      "status": "completed",
      "code": {
        "coding": [ {
          "system": "http://www.cms.gov/Medicare/Coding/ICD10",
          "code": "10D00Z0"
        }, {
          "system": "http://snomed.info/sct",
          "code": "4504004"
        }, {
          "system": "http://www.icd10data.com/icd10pcs",
          "code": "10D00Z0",
          "userSelected": true
        } ]
      },
      "subject": {
        "reference": "Patient/e5271b0a-fc73-4edb-a855-828959e04e37"
      },
      "performedPeriod": {
        "start": "2026-06-08T20:00:00.000+00:00",
        "end": "2026-06-08T20:15:00.000+00:00"
      }
    },
    "request": {
      "method": "PUT",
      "url": "Procedure/37838b78-930f-4604-a33e-70ed777dce21"
    }
  }, {
    "fullUrl": "https://madie.cms.gov/Condition/2d164f4d-d5ae-4a87-8bf4-974d9123b9f0",
    "resource": {
      "resourceType": "Condition",
      "id": "2d164f4d-d5ae-4a87-8bf4-974d9123b9f0",
      "meta": {
        "profile": [ "http://hl7.org/fhir/us/qicore/StructureDefinition/qicore-condition-encounter-diagnosis" ]
      },
      "category": [ {
        "coding": [ {
          "system": "http://terminology.hl7.org/CodeSystem/condition-category",
          "code": "encounter-diagnosis",
          "display": "Encounter Diagnosis"
        } ]
      } ],
      "code": {
        "coding": [ {
          "system": "http://snomed.info/sct",
          "version": "2022-09",
          "code": "169826009",
          "display": "Single live birth from singleton pregnancy (finding)",
          "userSelected": true
        } ]
      },
      "subject": {
        "reference": "Patient/e5271b0a-fc73-4edb-a855-828959e04e37"
      },
      "encounter": {
        "reference": "Encounter/5d014eb1b848460872380470"
      },
      "recordedDate": "2026-10-21T08:00:00.000+00:00"
    },
    "request": {
      "method": "PUT",
      "url": "Condition/2d164f4d-d5ae-4a87-8bf4-974d9123b9f0"
    }
  }, {
    "fullUrl": "https://madie.cms.gov/Coverage/33885ff9-3180-4d33-ad70-95b6e4bb79a4",
    "resource": {
      "resourceType": "Coverage",
      "id": "33885ff9-3180-4d33-ad70-95b6e4bb79a4",
      "meta": {
        "profile": [ "http://hl7.org/fhir/us/qicore/StructureDefinition/qicore-coverage" ]
      },
      "status": "active",
      "beneficiary": {
        "reference": "Patient/e5271b0a-fc73-4edb-a855-828959e04e37"
      },
      "payor": [ {
        "reference": "Organization/8330d937-571a-40b9-bac6-3efb4254b7a4"
      } ]
    },
    "request": {
      "method": "PUT",
      "url": "Coverage/33885ff9-3180-4d33-ad70-95b6e4bb79a4"
    }
  }, {
    "fullUrl": "https://madie.cms.gov/Organization/8330d937-571a-40b9-bac6-3efb4254b7a4",
    "resource": {
      "resourceType": "Organization",
      "id": "8330d937-571a-40b9-bac6-3efb4254b7a4",
      "meta": {
        "profile": [ "http://hl7.org/fhir/us/qicore/StructureDefinition/qicore-organization" ]
      },
      "identifier": [ {
        "use": "temp",
        "system": "urn:oid:2.16.840.1.113883.4.4",
        "value": "21-3259825"
      } ],
      "active": true,
      "type": [ {
        "coding": [ {
          "system": "http://terminology.hl7.org/CodeSystem/organization-type",
          "code": "pay",
          "display": "Payer"
        } ]
      } ],
      "name": "Blue Cross Blue Shield of Texas",
      "telecom": [ {
        "system": "phone",
        "value": "(+1) 972-766-6900"
      } ],
      "address": [ {
        "use": "billing",
        "type": "postal",
        "line": [ "P.O. Box 660044" ],
        "city": "Dallas",
        "state": "TX",
        "postalCode": "75266-0044",
        "country": "USA"
      } ]
    },
    "request": {
      "method": "PUT",
      "url": "Organization/8330d937-571a-40b9-bac6-3efb4254b7a4"
    }
  }, {
    "fullUrl": "https://madie.cms.gov/Practitioner/6207b439-83ae-46af-bd57-d585ff68049d",
    "resource": {
      "resourceType": "Practitioner",
      "id": "6207b439-83ae-46af-bd57-d585ff68049d",
      "identifier": [ {
        "system": "http://hl7.org/fhir/sid/us-npi",
        "value": "123456"
      } ],
      "name": [ {
        "family": "Evil",
        "prefix": [ "Dr" ]
      } ]
    },
    "request": {
      "method": "PUT",
      "url": "Practitioner/6207b439-83ae-46af-bd57-d585ff68049d"
    }
  }, {
    "fullUrl": "https://madie.cms.gov/MeasureReport/0c004b02-78a7-4aee-976c-3c9950fdb097",
    "resource": {
      "resourceType": "MeasureReport",
      "id": "0c004b02-78a7-4aee-976c-3c9950fdb097",
      "meta": {
        "profile": [ "http://hl7.org/fhir/us/cqfmeasures/StructureDefinition/test-case-cqfm" ]
      },
      "contained": [ {
        "resourceType": "Parameters",
        "id": "a50c33d3-c8af-4fae-98b9-d5fe10895adb-parameters",
        "parameter": [ {
          "name": "subject",
          "valueString": "e5271b0a-fc73-4edb-a855-828959e04e37"
        } ]
      } ],
      "extension": [ {
        "url": "http://hl7.org/fhir/StructureDefinition/cqf-inputParameters",
        "valueReference": {
          "reference": "#a50c33d3-c8af-4fae-98b9-d5fe10895adb-parameters"
        }
      }, {
        "url": "http://hl7.org/fhir/us/cqfmeasures/StructureDefinition/cqfm-testCaseDescription",
        "valueMarkdown": "\"Preterm Births=1, Rel date/time < 42weeks prior to Asse delivery  FAILS\nTerm Newborn=0, Rel date/time < 42weeks prior to Asse delivery\"\n"
      } ],
      "modifierExtension": [ {
        "url": "http://hl7.org/fhir/us/cqfmeasures/StructureDefinition/cqfm-isTestCase",
        "valueBoolean": true
      } ],
      "status": "complete",
      "type": "individual",
      "measure": "https://madie.cms.gov/Measure/CMS0334FHIRPCCesareanBirth",
      "period": {
        "start": "2026-01-01",
        "end": "2026-12-31"
      },
      "group": [ {
        "id": "Group_1",
        "population": [ {
          "id": "InitialPopulation_1",
          "code": {
            "coding": [ {
              "system": "http://terminology.hl7.org/CodeSystem/measure-population",
              "code": "initial-population",
              "display": "Initial Population"
            } ]
          },
          "count": 1
        }, {
          "id": "Denominator_1",
          "code": {
            "coding": [ {
              "system": "http://terminology.hl7.org/CodeSystem/measure-population",
              "code": "denominator",
              "display": "Denominator"
            } ]
          },
          "count": 0
        }, {
          "id": "DenominatorExclusion_1",
          "code": {
            "coding": [ {
              "system": "http://terminology.hl7.org/CodeSystem/measure-population",
              "code": "denominator-exclusion",
              "display": "Denominator Exclusion"
            } ]
          },
          "count": 0
        }, {
          "id": "Numerator_1",
          "code": {
            "coding": [ {
              "system": "http://terminology.hl7.org/CodeSystem/measure-population",
              "code": "numerator",
              "display": "Numerator"
            } ]
          },
          "count": 0
        } ],
        "measureScore": {
          "value": 0.0
        }
      } ],
      "evaluatedResource": [ {
        "reference": "Patient/e5271b0a-fc73-4edb-a855-828959e04e37"
      }, {
        "reference": "Observation/93d53423-4082-4f88-8907-cf0238594323"
      }, {
        "reference": "Observation/f6c9277d-9801-4bb2-9f39-6c73172e515b"
      }, {
        "reference": "Observation/56ba67c5-5957-4a19-92f5-dec834000775"
      }, {
        "reference": "Observation/f416e6a6-5616-447c-b56f-e304207fe6e6"
      }, {
        "reference": "Encounter/1d90bc1e-0e60-4014-8a10-96981b334b6b"
      }, {
        "reference": "Procedure/37838b78-930f-4604-a33e-70ed777dce21"
      }, {
        "reference": "Condition/2d164f4d-d5ae-4a87-8bf4-974d9123b9f0"
      }, {
        "reference": "Coverage/33885ff9-3180-4d33-ad70-95b6e4bb79a4"
      }, {
        "reference": "Organization/8330d937-571a-40b9-bac6-3efb4254b7a4"
      }, {
        "reference": "Practitioner/6207b439-83ae-46af-bd57-d585ff68049d"
      } ]
    },
    "request": {
      "method": "PUT",
      "url": "MeasureReport/0c004b02-78a7-4aee-976c-3c9950fdb097"
    }
  } ]
}