{
  "resourceType": "Bundle",
  "id": "661476b015ed5841a5547ebf",
  "type": "transaction",
  "entry": [ {
    "fullUrl": "https://madie.cms.gov/Patient/9ec1a135-fb47-4c1c-8f6b-98afab15274e",
    "resource": {
      "resourceType": "Patient",
      "id": "9ec1a135-fb47-4c1c-8f6b-98afab15274e",
      "meta": {
        "profile": [ "http://hl7.org/fhir/us/qicore/StructureDefinition/qicore-patient" ]
      },
      "extension": [ {
        "url": "http://hl7.org/fhir/us/core/StructureDefinition/us-core-race",
        "extension": [ {
          "url": "ombCategory",
          "valueCoding": {
            "system": "urn:oid:2.16.840.1.113883.6.238",
            "code": "1002-5",
            "display": "American Indian or Alaska Native",
            "userSelected": true
          }
        }, {
          "url": "text",
          "valueString": "American Indian or Alaska Native"
        } ]
      }, {
        "url": "http://hl7.org/fhir/us/core/StructureDefinition/us-core-ethnicity",
        "extension": [ {
          "url": "ombCategory",
          "valueCoding": {
            "system": "urn:oid:2.16.840.1.113883.6.238",
            "code": "2135-2",
            "display": "Hispanic or Latino",
            "userSelected": true
          }
        }, {
          "url": "text",
          "valueString": "Hispanic or Latino"
        } ]
      }, {
        "url": "http://hl7.org/fhir/us/core/StructureDefinition/us-core-sex",
        "valueCode": "248153007"
      } ],
      "identifier": [ {
        "type": {
          "coding": [ {
            "system": "http://terminology.hl7.org/CodeSystem/v2-0203",
            "code": "MR"
          } ]
        },
        "system": "https://bonnie-fhir.healthit.gov/",
        "value": "661476b015ed5841a5547ebf"
      } ],
      "name": [ {
        "family": "NUMEXStrat3Pass",
        "given": [ "PatientTransferToAnotherHospital" ]
      } ],
      "gender": "male",
      "birthDate": "2010-01-01"
    },
    "request": {
      "method": "PUT",
      "url": "Patient/9ec1a135-fb47-4c1c-8f6b-98afab15274e"
    }
  }, {
    "fullUrl": "https://madie.cms.gov/Encounter/d6a366b7-ef3b-4b32-9053-3a8b126e72f3",
    "resource": {
      "resourceType": "Encounter",
      "id": "d6a366b7-ef3b-4b32-9053-3a8b126e72f3",
      "meta": {
        "profile": [ "http://hl7.org/fhir/us/qicore/StructureDefinition/qicore-encounter" ]
      },
      "status": "finished",
      "class": {
        "system": "http://terminology.hl7.org/CodeSystem/v3-ActCode",
        "code": "EMER",
        "display": "emergency department"
      },
      "type": [ {
        "coding": [ {
          "system": "http://snomed.info/sct",
          "version": "2023-09",
          "code": "4525004",
          "display": "Emergency department patient visit (procedure)",
          "userSelected": true
        } ]
      } ],
      "subject": {
        "reference": "Patient/9ec1a135-fb47-4c1c-8f6b-98afab15274e"
      },
      "period": {
        "start": "2027-05-01T00:00:00.000+00:00",
        "end": "2027-05-01T06:00:00.000+00:00"
      },
      "diagnosis": [ {
        "condition": {
          "reference": "Condition/6817f9b4-ec37-41be-a1ee-0761a30ddd8a"
        },
        "use": {
          "coding": [ {
            "system": "http://terminology.hl7.org/CodeSystem/diagnosis-role",
            "code": "billing"
          } ]
        },
        "rank": 1
      } ],
      "location": [ {
        "location": {
          "reference": "Location/bd832d6d-1cdf-4011-bbcb-e0d2aed64a18"
        },
        "period": {
          "start": "2027-05-01T00:00:00.000+00:00",
          "end": "2027-05-01T06:01:00.000+00:00"
        }
      } ]
    },
    "request": {
      "method": "PUT",
      "url": "Encounter/d6a366b7-ef3b-4b32-9053-3a8b126e72f3"
    }
  }, {
    "fullUrl": "https://madie.cms.gov/ServiceRequest/2a319648-b9ff-4b0a-ae85-3d1bdb80129b",
    "resource": {
      "resourceType": "ServiceRequest",
      "id": "2a319648-b9ff-4b0a-ae85-3d1bdb80129b",
      "meta": {
        "profile": [ "http://hl7.org/fhir/us/qicore/StructureDefinition/qicore-servicerequest" ]
      },
      "status": "completed",
      "intent": "order",
      "code": {
        "coding": [ {
          "system": "http://snomed.info/sct",
          "code": "448551000124100",
          "display": "Patient transfer to another hospital (procedure)",
          "userSelected": true
        } ]
      },
      "subject": {
        "reference": "Patient/9ec1a135-fb47-4c1c-8f6b-98afab15274e"
      },
      "authoredOn": "2027-05-01T02:00:00.000+00:00"
    },
    "request": {
      "method": "PUT",
      "url": "ServiceRequest/2a319648-b9ff-4b0a-ae85-3d1bdb80129b"
    }
  }, {
    "fullUrl": "https://madie.cms.gov/Location/bd832d6d-1cdf-4011-bbcb-e0d2aed64a18",
    "resource": {
      "resourceType": "Location",
      "id": "bd832d6d-1cdf-4011-bbcb-e0d2aed64a18",
      "meta": {
        "profile": [ "http://hl7.org/fhir/us/qicore/StructureDefinition/qicore-location" ]
      },
      "identifier": [ {
        "use": "usual",
        "system": "http://exampleoflocation.com",
        "value": "B1-S.F2"
      } ],
      "name": "Emergency Department",
      "type": [ {
        "coding": [ {
          "system": "https://www.cdc.gov/nhsn/cdaportal/terminology/codesystem/hsloc.html",
          "version": "2022",
          "code": "1108-0",
          "display": "Emergency Department",
          "userSelected": true
        } ]
      } ]
    },
    "request": {
      "method": "PUT",
      "url": "Location/bd832d6d-1cdf-4011-bbcb-e0d2aed64a18"
    }
  }, {
    "fullUrl": "https://madie.cms.gov/claim/ClaimBehavior-NotSubsAbuse",
    "resource": {
      "resourceType": "Claim",
      "id": "ClaimBehavior-NotSubsAbuse",
      "meta": {
        "profile": [ "http://hl7.org/fhir/us/qicore/StructureDefinition/qicore-claim" ]
      },
      "status": "active",
      "type": {
        "coding": [ {
          "system": "http://terminology.hl7.org/CodeSystem/claim-type",
          "code": "institutional"
        } ]
      },
      "use": "claim",
      "patient": {
        "reference": "Patient/9ec1a135-fb47-4c1c-8f6b-98afab15274e"
      },
      "created": "2027-05-01",
      "provider": {
        "reference": "Practitioner/practitioner-123456"
      },
      "priority": {
        "coding": [ {
          "system": "http://terminology.hl7.org/CodeSystem/processpriority",
          "code": "normal"
        } ]
      },
      "diagnosis": [ {
        "sequence": 1,
        "diagnosisReference": {
          "reference": "Condition/6817f9b4-ec37-41be-a1ee-0761a30ddd8a"
        },
        "type": [ {
          "coding": [ {
            "system": "http://terminology.hl7.org/CodeSystem/ex-diagnosistype",
            "code": "principal"
          } ]
        } ]
      } ],
      "insurance": [ {
        "sequence": 1,
        "focal": true,
        "coverage": {
          "reference": "Coverage/e2fe5ff2-a468-42d3-8d50-906b5d7c22ab"
        }
      } ],
      "item": [ {
        "sequence": 1,
        "diagnosisSequence": [ 1 ],
        "productOrService": {
          "coding": [ {
            "system": "http://terminology.hl7.org/CodeSystem/ex-USCLS",
            "code": "99555"
          } ]
        },
        "encounter": [ {
          "reference": "Encounter/d6a366b7-ef3b-4b32-9053-3a8b126e72f3"
        } ]
      } ]
    },
    "request": {
      "method": "PUT",
      "url": "Claim/ClaimBehavior-NotSubsAbuse"
    }
  }, {
    "fullUrl": "https://madie.cms.gov/Coverage/e2fe5ff2-a468-42d3-8d50-906b5d7c22ab",
    "resource": {
      "resourceType": "Coverage",
      "id": "e2fe5ff2-a468-42d3-8d50-906b5d7c22ab",
      "meta": {
        "profile": [ "http://hl7.org/fhir/us/qicore/StructureDefinition/qicore-coverage" ]
      },
      "identifier": [ {
        "type": {
          "coding": [ {
            "system": "http://terminology.hl7.org/CodeSystem/v2-0203",
            "code": "MB"
          } ]
        }
      } ],
      "status": "active",
      "beneficiary": {
        "reference": "Patient/9ec1a135-fb47-4c1c-8f6b-98afab15274e"
      },
      "relationship": {
        "coding": [ {
          "system": "http://terminology.hl7.org/CodeSystem/subscriber-relationship",
          "code": "self"
        } ]
      },
      "payor": [ {
        "reference": "Organization/e08931b2-1c19-411b-993f-52ec8e3b69d5"
      } ]
    },
    "request": {
      "method": "PUT",
      "url": "Coverage/e2fe5ff2-a468-42d3-8d50-906b5d7c22ab"
    }
  }, {
    "fullUrl": "https://madie.cms.gov/Condition/6817f9b4-ec37-41be-a1ee-0761a30ddd8a",
    "resource": {
      "resourceType": "Condition",
      "id": "6817f9b4-ec37-41be-a1ee-0761a30ddd8a",
      "meta": {
        "profile": [ "http://hl7.org/fhir/us/qicore/StructureDefinition/qicore-condition-encounter-diagnosis" ]
      },
      "category": [ {
        "coding": [ {
          "system": "http://terminology.hl7.org/CodeSystem/condition-category",
          "code": "encounter-diagnosis",
          "display": "Encounter Diagnosis"
        } ]
      } ],
      "code": {
        "coding": [ {
          "system": "http://snomed.info/sct",
          "version": "2023-09",
          "code": "66344007",
          "display": "Recurrent major depression (disorder)",
          "userSelected": true
        } ]
      },
      "subject": {
        "reference": "Patient/9ec1a135-fb47-4c1c-8f6b-98afab15274e"
      },
      "recordedDate": "2026-04-18T08:00:00.000+00:00"
    },
    "request": {
      "method": "PUT",
      "url": "Condition/6817f9b4-ec37-41be-a1ee-0761a30ddd8a"
    }
  }, {
    "fullUrl": "https://madie.cms.gov/Encounter/4858a7da-5102-4342-b364-6684c9ea1ad3",
    "resource": {
      "resourceType": "Encounter",
      "id": "4858a7da-5102-4342-b364-6684c9ea1ad3",
      "meta": {
        "profile": [ "http://hl7.org/fhir/us/qicore/StructureDefinition/qicore-encounter" ]
      },
      "status": "finished",
      "class": {
        "system": "http://terminology.hl7.org/CodeSystem/v3-ActCode",
        "code": "EMER",
        "display": "emergency"
      },
      "type": [ {
        "coding": [ {
          "system": "http://snomed.info/sct",
          "code": "448951000124107",
          "display": "Admission to observation unit (procedure)",
          "userSelected": true
        } ]
      } ],
      "subject": {
        "reference": "Patient/9ec1a135-fb47-4c1c-8f6b-98afab15274e"
      },
      "period": {
        "start": "2027-05-01T02:01:00.000+00:00",
        "end": "2027-05-01T05:59:00.000+00:00"
      }
    },
    "request": {
      "method": "PUT",
      "url": "Encounter/4858a7da-5102-4342-b364-6684c9ea1ad3"
    }
  }, {
    "fullUrl": "https://madie.cms.gov/Organization/e08931b2-1c19-411b-993f-52ec8e3b69d5",
    "resource": {
      "resourceType": "Organization",
      "id": "e08931b2-1c19-411b-993f-52ec8e3b69d5",
      "meta": {
        "profile": [ "http://hl7.org/fhir/us/qicore/StructureDefinition/qicore-organization" ]
      },
      "identifier": [ {
        "use": "temp",
        "system": "urn:oid:2.16.840.1.113883.4.4",
        "value": "21-3259825"
      } ],
      "active": true,
      "type": [ {
        "coding": [ {
          "system": "http://terminology.hl7.org/CodeSystem/organization-type",
          "code": "pay",
          "display": "Payer"
        } ]
      } ],
      "name": "Blue Cross Blue Shield of Texas",
      "telecom": [ {
        "system": "phone",
        "value": "(+1) 972-766-6900"
      } ],
      "address": [ {
        "use": "billing",
        "type": "postal",
        "line": [ "P.O. Box 660044" ],
        "city": "Dallas",
        "state": "TX",
        "postalCode": "75266-0044",
        "country": "USA"
      } ]
    },
    "request": {
      "method": "PUT",
      "url": "Organization/e08931b2-1c19-411b-993f-52ec8e3b69d5"
    }
  }, {
    "fullUrl": "https://madie.cms.gov/Practitioner/00cf0751-303d-448b-a92f-faa44c1d3ce5",
    "resource": {
      "resourceType": "Practitioner",
      "id": "00cf0751-303d-448b-a92f-faa44c1d3ce5",
      "meta": {
        "profile": [ "http://hl7.org/fhir/us/qicore/StructureDefinition/qicore-practitioner" ]
      },
      "identifier": [ {
        "system": "http://hl7.org/fhir/sid/us-npi",
        "value": "9999999896"
      } ],
      "name": [ {
        "family": "Evil",
        "prefix": [ "Dr" ]
      } ]
    },
    "request": {
      "method": "PUT",
      "url": "Practitioner/00cf0751-303d-448b-a92f-faa44c1d3ce5"
    }
  }, {
    "fullUrl": "https://madie.cms.gov/MeasureReport/157ca8e1-8d77-42c6-96aa-a820025cb208",
    "resource": {
      "resourceType": "MeasureReport",
      "id": "157ca8e1-8d77-42c6-96aa-a820025cb208",
      "meta": {
        "profile": [ "http://hl7.org/fhir/us/cqfmeasures/StructureDefinition/test-case-cqfm" ]
      },
      "contained": [ {
        "resourceType": "Parameters",
        "id": "93d26f34-ab98-4624-bb2f-74299d9025aa-parameters",
        "parameter": [ {
          "name": "subject",
          "valueString": "9ec1a135-fb47-4c1c-8f6b-98afab15274e"
        } ]
      } ],
      "extension": [ {
        "url": "http://hl7.org/fhir/StructureDefinition/cqf-inputParameters",
        "valueReference": {
          "reference": "#93d26f34-ab98-4624-bb2f-74299d9025aa-parameters"
        }
      }, {
        "url": "http://hl7.org/fhir/us/cqfmeasures/StructureDefinition/cqfm-testCaseDescription",
        "valueMarkdown": "Child, transfer order during ED enc where patient was boarded 6 hrs 1 min; Enc 8 hrs, enc departure 8 hrs 1 min. dx asthma "
      } ],
      "modifierExtension": [ {
        "url": "http://hl7.org/fhir/us/cqfmeasures/StructureDefinition/cqfm-isTestCase",
        "valueBoolean": true
      } ],
      "status": "complete",
      "type": "individual",
      "measure": "https://madie.cms.gov/Measure/CMS1264FHIRECATREHQR",
      "period": {
        "start": "2027-01-01",
        "end": "2027-12-31"
      },
      "group": [ {
        "id": "Group_1",
        "population": [ {
          "id": "InitialPopulation_1",
          "code": {
            "coding": [ {
              "system": "http://terminology.hl7.org/CodeSystem/measure-population",
              "code": "initial-population",
              "display": "Initial Population"
            } ]
          },
          "count": 1
        }, {
          "id": "Denominator_1",
          "code": {
            "coding": [ {
              "system": "http://terminology.hl7.org/CodeSystem/measure-population",
              "code": "denominator",
              "display": "Denominator"
            } ]
          },
          "count": 1
        }, {
          "id": "Numerator_1",
          "code": {
            "coding": [ {
              "system": "http://terminology.hl7.org/CodeSystem/measure-population",
              "code": "numerator",
              "display": "Numerator"
            } ]
          },
          "count": 0
        } ],
        "measureScore": {
          "value": 0.0
        },
        "stratifier": [ {
          "id": "Stratification_1_1",
          "code": [ {
            "text": "Strata-1"
          } ],
          "stratum": [ {
            "value": {
              "text": "Strata-1"
            },
            "population": [ {
              "id": "InitialPopulation_1",
              "code": {
                "coding": [ {
                  "system": "http://terminology.hl7.org/CodeSystem/measure-population",
                  "code": "initial-population",
                  "display": "Initial Population"
                } ]
              },
              "count": 0
            }, {
              "id": "Denominator_1",
              "code": {
                "coding": [ {
                  "system": "http://terminology.hl7.org/CodeSystem/measure-population",
                  "code": "denominator",
                  "display": "Denominator"
                } ]
              },
              "count": 0
            }, {
              "id": "Numerator_1",
              "code": {
                "coding": [ {
                  "system": "http://terminology.hl7.org/CodeSystem/measure-population",
                  "code": "numerator",
                  "display": "Numerator"
                } ]
              },
              "count": 0
            } ]
          } ]
        }, {
          "id": "Stratification_1_2",
          "code": [ {
            "text": "Strata-2"
          } ],
          "stratum": [ {
            "value": {
              "text": "Strata-2"
            },
            "population": [ {
              "id": "InitialPopulation_1",
              "code": {
                "coding": [ {
                  "system": "http://terminology.hl7.org/CodeSystem/measure-population",
                  "code": "initial-population",
                  "display": "Initial Population"
                } ]
              },
              "count": 0
            }, {
              "id": "Denominator_1",
              "code": {
                "coding": [ {
                  "system": "http://terminology.hl7.org/CodeSystem/measure-population",
                  "code": "denominator",
                  "display": "Denominator"
                } ]
              },
              "count": 0
            }, {
              "id": "Numerator_1",
              "code": {
                "coding": [ {
                  "system": "http://terminology.hl7.org/CodeSystem/measure-population",
                  "code": "numerator",
                  "display": "Numerator"
                } ]
              },
              "count": 0
            } ]
          } ]
        }, {
          "id": "Stratification_1_3",
          "code": [ {
            "text": "Strata-3"
          } ],
          "stratum": [ {
            "value": {
              "text": "Strata-3"
            },
            "population": [ {
              "id": "InitialPopulation_1",
              "code": {
                "coding": [ {
                  "system": "http://terminology.hl7.org/CodeSystem/measure-population",
                  "code": "initial-population",
                  "display": "Initial Population"
                } ]
              },
              "count": 1
            }, {
              "id": "Denominator_1",
              "code": {
                "coding": [ {
                  "system": "http://terminology.hl7.org/CodeSystem/measure-population",
                  "code": "denominator",
                  "display": "Denominator"
                } ]
              },
              "count": 1
            }, {
              "id": "Numerator_1",
              "code": {
                "coding": [ {
                  "system": "http://terminology.hl7.org/CodeSystem/measure-population",
                  "code": "numerator",
                  "display": "Numerator"
                } ]
              },
              "count": 0
            } ]
          } ]
        }, {
          "id": "Stratification_1_4",
          "code": [ {
            "text": "Strata-4"
          } ],
          "stratum": [ {
            "value": {
              "text": "Strata-4"
            },
            "population": [ {
              "id": "InitialPopulation_1",
              "code": {
                "coding": [ {
                  "system": "http://terminology.hl7.org/CodeSystem/measure-population",
                  "code": "initial-population",
                  "display": "Initial Population"
                } ]
              },
              "count": 0
            }, {
              "id": "Denominator_1",
              "code": {
                "coding": [ {
                  "system": "http://terminology.hl7.org/CodeSystem/measure-population",
                  "code": "denominator",
                  "display": "Denominator"
                } ]
              },
              "count": 0
            }, {
              "id": "Numerator_1",
              "code": {
                "coding": [ {
                  "system": "http://terminology.hl7.org/CodeSystem/measure-population",
                  "code": "numerator",
                  "display": "Numerator"
                } ]
              },
              "count": 0
            } ]
          } ]
        } ]
      } ],
      "evaluatedResource": [ {
        "reference": "Patient/9ec1a135-fb47-4c1c-8f6b-98afab15274e"
      }, {
        "reference": "Encounter/d6a366b7-ef3b-4b32-9053-3a8b126e72f3"
      }, {
        "reference": "ServiceRequest/2a319648-b9ff-4b0a-ae85-3d1bdb80129b"
      }, {
        "reference": "Location/bd832d6d-1cdf-4011-bbcb-e0d2aed64a18"
      }, {
        "reference": "Claim/ClaimBehavior-NotSubsAbuse"
      }, {
        "reference": "Coverage/e2fe5ff2-a468-42d3-8d50-906b5d7c22ab"
      }, {
        "reference": "Condition/6817f9b4-ec37-41be-a1ee-0761a30ddd8a"
      }, {
        "reference": "Encounter/4858a7da-5102-4342-b364-6684c9ea1ad3"
      }, {
        "reference": "Organization/e08931b2-1c19-411b-993f-52ec8e3b69d5"
      }, {
        "reference": "Practitioner/00cf0751-303d-448b-a92f-faa44c1d3ce5"
      } ]
    },
    "request": {
      "method": "PUT",
      "url": "MeasureReport/157ca8e1-8d77-42c6-96aa-a820025cb208"
    }
  } ]
}