{
  "resourceType": "Bundle",
  "id": "62c880ec0111a60120dc21f8",
  "type": "transaction",
  "entry": [ {
    "fullUrl": "https://madie.cms.gov/Patient/0cadffba-143c-4a8f-9260-fcd45aa2c9c1",
    "resource": {
      "resourceType": "Patient",
      "id": "0cadffba-143c-4a8f-9260-fcd45aa2c9c1",
      "meta": {
        "profile": [ "http://hl7.org/fhir/us/qicore/StructureDefinition/qicore-patient" ]
      },
      "extension": [ {
        "url": "http://hl7.org/fhir/us/core/StructureDefinition/us-core-race",
        "extension": [ {
          "url": "ombCategory",
          "valueCoding": {
            "system": "urn:oid:2.16.840.1.113883.6.238",
            "code": "1002-5",
            "display": "American Indian or Alaska Native",
            "userSelected": true
          }
        }, {
          "url": "text",
          "valueString": "American Indian or Alaska Native"
        } ]
      }, {
        "url": "http://hl7.org/fhir/us/core/StructureDefinition/us-core-ethnicity",
        "extension": [ {
          "url": "ombCategory",
          "valueCoding": {
            "system": "urn:oid:2.16.840.1.113883.6.238",
            "code": "2135-2",
            "display": "Hispanic or Latino",
            "userSelected": true
          }
        }, {
          "url": "text",
          "valueString": "Hispanic or Latino"
        } ]
      } ],
      "identifier": [ {
        "type": {
          "coding": [ {
            "system": "http://terminology.hl7.org/CodeSystem/v2-0203",
            "code": "MR"
          } ]
        },
        "system": "https://bonnie-fhir.healthit.gov/",
        "value": "62c880ec0111a60120dc21f8"
      } ],
      "active": true,
      "name": [ {
        "use": "usual",
        "family": "NUMERFailPop2",
        "given": [ "PainAssess1DayAfterRadTx" ]
      } ],
      "gender": "male",
      "birthDate": "1976-04-25"
    },
    "request": {
      "method": "PUT",
      "url": "Patient/0cadffba-143c-4a8f-9260-fcd45aa2c9c1"
    }
  }, {
    "fullUrl": "https://madie.cms.gov/Observation/6c8d60ee-fc4f-4756-bb52-389354bef9c0",
    "resource": {
      "resourceType": "Observation",
      "id": "6c8d60ee-fc4f-4756-bb52-389354bef9c0",
      "meta": {
        "profile": [ "http://hl7.org/fhir/us/qicore/StructureDefinition/qicore-observation-screening-assessment" ]
      },
      "status": "final",
      "category": [ {
        "coding": [ {
          "system": "http://terminology.hl7.org/CodeSystem/observation-category",
          "code": "survey",
          "display": "Survey"
        } ],
        "text": "Survey"
      } ],
      "code": {
        "coding": [ {
          "system": "http://loinc.org",
          "code": "38208-5",
          "display": "Pain severity - Reported"
        } ],
        "text": "Pain severity - Reported"
      },
      "subject": {
        "reference": "Patient/0cadffba-143c-4a8f-9260-fcd45aa2c9c1"
      },
      "effectiveDateTime": "2026-05-07T12:45:00.000+00:00",
      "valueInteger": 5
    },
    "request": {
      "method": "PUT",
      "url": "Observation/6c8d60ee-fc4f-4756-bb52-389354bef9c0"
    }
  }, {
    "fullUrl": "https://madie.cms.gov/Condition/a2107157-d17f-4e6c-be34-f2d001d421c2",
    "resource": {
      "resourceType": "Condition",
      "id": "a2107157-d17f-4e6c-be34-f2d001d421c2",
      "meta": {
        "profile": [ "http://hl7.org/fhir/us/qicore/StructureDefinition/qicore-condition-problems-health-concerns" ]
      },
      "clinicalStatus": {
        "coding": [ {
          "system": "http://terminology.hl7.org/CodeSystem/condition-clinical",
          "code": "active",
          "display": "active",
          "userSelected": true
        } ]
      },
      "verificationStatus": {
        "coding": [ {
          "system": "http://terminology.hl7.org/CodeSystem/condition-ver-status",
          "code": "confirmed",
          "display": "Confirmed"
        } ]
      },
      "category": [ {
        "coding": [ {
          "system": "http://terminology.hl7.org/CodeSystem/condition-category",
          "code": "problem-list-item",
          "display": "Problem List Item"
        } ]
      } ],
      "code": {
        "coding": [ {
          "system": "http://snomed.info/sct",
          "code": "107691000119101"
        } ]
      },
      "subject": {
        "reference": "Patient/0cadffba-143c-4a8f-9260-fcd45aa2c9c1"
      },
      "onsetDateTime": "2025-11-01T12:45:00.000+00:00"
    },
    "request": {
      "method": "PUT",
      "url": "Condition/a2107157-d17f-4e6c-be34-f2d001d421c2"
    }
  }, {
    "fullUrl": "https://madie.cms.gov/Coverage/20d32102-e868-4876-a2de-642628a942d5",
    "resource": {
      "resourceType": "Coverage",
      "id": "20d32102-e868-4876-a2de-642628a942d5",
      "meta": {
        "profile": [ "http://hl7.org/fhir/us/qicore/StructureDefinition/qicore-coverage" ]
      },
      "status": "active",
      "beneficiary": {
        "reference": "Patient/0cadffba-143c-4a8f-9260-fcd45aa2c9c1"
      },
      "period": {
        "start": "1976-04-25T08:00:00.000+00:00"
      },
      "payor": [ {
        "reference": "Organization/b9c11ad4-3ca1-4dea-8b08-b6eea2d93571"
      } ]
    },
    "request": {
      "method": "PUT",
      "url": "Coverage/20d32102-e868-4876-a2de-642628a942d5"
    }
  }, {
    "fullUrl": "https://madie.cms.gov/Encounter/6eba6eaa-4586-4328-b273-5d8cf9753a42",
    "resource": {
      "resourceType": "Encounter",
      "id": "6eba6eaa-4586-4328-b273-5d8cf9753a42",
      "meta": {
        "profile": [ "http://hl7.org/fhir/us/qicore/StructureDefinition/qicore-encounter" ]
      },
      "status": "finished",
      "class": {
        "system": "http://terminology.hl7.org/CodeSystem/v3-ActCode",
        "code": "AMB",
        "display": "ambulatory",
        "userSelected": true
      },
      "type": [ {
        "coding": [ {
          "system": "http://snomed.info/sct",
          "version": "2023-09",
          "code": "84755001",
          "display": "Radiation therapy treatment management (procedure)",
          "userSelected": true
        } ]
      } ],
      "subject": {
        "reference": "Patient/0cadffba-143c-4a8f-9260-fcd45aa2c9c1"
      },
      "period": {
        "start": "2026-05-06T12:45:00.000+00:00",
        "end": "2026-05-06T13:00:00.000+00:00"
      }
    },
    "request": {
      "method": "PUT",
      "url": "Encounter/6eba6eaa-4586-4328-b273-5d8cf9753a42"
    }
  }, {
    "fullUrl": "https://madie.cms.gov/Organization/b9c11ad4-3ca1-4dea-8b08-b6eea2d93571",
    "resource": {
      "resourceType": "Organization",
      "id": "b9c11ad4-3ca1-4dea-8b08-b6eea2d93571",
      "meta": {
        "profile": [ "http://hl7.org/fhir/us/qicore/StructureDefinition/qicore-organization" ]
      },
      "identifier": [ {
        "use": "temp",
        "system": "urn:oid:2.16.840.1.113883.4.4",
        "value": "21-3259825"
      } ],
      "active": true,
      "type": [ {
        "coding": [ {
          "system": "http://terminology.hl7.org/CodeSystem/organization-type",
          "code": "pay",
          "display": "Payer"
        } ]
      } ],
      "name": "Blue Cross Blue Shield of Texas",
      "telecom": [ {
        "system": "phone",
        "value": "(+1) 972-766-6900"
      } ],
      "address": [ {
        "use": "billing",
        "type": "postal",
        "line": [ "P.O. Box 660044" ],
        "city": "Dallas",
        "state": "TX",
        "postalCode": "75266-0044",
        "country": "USA"
      } ]
    },
    "request": {
      "method": "PUT",
      "url": "Organization/b9c11ad4-3ca1-4dea-8b08-b6eea2d93571"
    }
  }, {
    "fullUrl": "https://madie.cms.gov/Practitioner/b6877e1e-86dd-45b1-8ca8-405becbbf966",
    "resource": {
      "resourceType": "Practitioner",
      "id": "b6877e1e-86dd-45b1-8ca8-405becbbf966",
      "meta": {
        "profile": [ "http://hl7.org/fhir/us/qicore/StructureDefinition/qicore-practitioner" ]
      },
      "identifier": [ {
        "system": "http://hl7.org/fhir/sid/us-npi",
        "value": "1234567890"
      } ],
      "name": [ {
        "family": "Evil",
        "prefix": [ "Dr" ]
      } ]
    },
    "request": {
      "method": "PUT",
      "url": "Practitioner/b6877e1e-86dd-45b1-8ca8-405becbbf966"
    }
  }, {
    "fullUrl": "https://madie.cms.gov/MeasureReport/bbd8bd8b-0fe9-4392-bee7-56f383bece02",
    "resource": {
      "resourceType": "MeasureReport",
      "id": "bbd8bd8b-0fe9-4392-bee7-56f383bece02",
      "meta": {
        "profile": [ "http://hl7.org/fhir/us/cqfmeasures/StructureDefinition/test-case-cqfm" ]
      },
      "contained": [ {
        "resourceType": "Parameters",
        "id": "f31a8895-df88-4ee6-b4b1-cda48ad1988b-parameters",
        "parameter": [ {
          "name": "subject",
          "valueString": "0cadffba-143c-4a8f-9260-fcd45aa2c9c1"
        } ]
      } ],
      "extension": [ {
        "url": "http://hl7.org/fhir/StructureDefinition/cqf-inputParameters",
        "valueReference": {
          "reference": "#f31a8895-df88-4ee6-b4b1-cda48ad1988b-parameters"
        }
      }, {
        "url": "http://hl7.org/fhir/us/cqfmeasures/StructureDefinition/cqfm-testCaseDescription",
        "valueMarkdown": "Patient with cancer diagnosis that overlaps radiation treatment management during measurement period. Pain intensity assessment was performed 1 day after radiation treatment management.\n"
      } ],
      "modifierExtension": [ {
        "url": "http://hl7.org/fhir/us/cqfmeasures/StructureDefinition/cqfm-isTestCase",
        "valueBoolean": true
      } ],
      "status": "complete",
      "type": "individual",
      "measure": "https://madie.cms.gov/Measure/CMS157FHIRPainIntensityQuantified",
      "period": {
        "start": "2026-01-01",
        "end": "2026-12-31"
      },
      "group": [ {
        "id": "Group_1",
        "population": [ {
          "id": "InitialPopulation_1",
          "code": {
            "coding": [ {
              "system": "http://terminology.hl7.org/CodeSystem/measure-population",
              "code": "initial-population",
              "display": "Initial Population"
            } ]
          },
          "count": 0
        }, {
          "id": "Denominator_1",
          "code": {
            "coding": [ {
              "system": "http://terminology.hl7.org/CodeSystem/measure-population",
              "code": "denominator",
              "display": "Denominator"
            } ]
          },
          "count": 0
        }, {
          "id": "Numerator_1",
          "code": {
            "coding": [ {
              "system": "http://terminology.hl7.org/CodeSystem/measure-population",
              "code": "numerator",
              "display": "Numerator"
            } ]
          },
          "count": 0
        } ],
        "measureScore": {
          "value": 0.0
        }
      }, {
        "id": "Group_2",
        "population": [ {
          "id": "InitialPopulation_2",
          "code": {
            "coding": [ {
              "system": "http://terminology.hl7.org/CodeSystem/measure-population",
              "code": "initial-population",
              "display": "Initial Population"
            } ]
          },
          "count": 1
        }, {
          "id": "Denominator_2",
          "code": {
            "coding": [ {
              "system": "http://terminology.hl7.org/CodeSystem/measure-population",
              "code": "denominator",
              "display": "Denominator"
            } ]
          },
          "count": 1
        }, {
          "id": "Numerator_2",
          "code": {
            "coding": [ {
              "system": "http://terminology.hl7.org/CodeSystem/measure-population",
              "code": "numerator",
              "display": "Numerator"
            } ]
          },
          "count": 0
        } ],
        "measureScore": {
          "value": 0.0
        }
      } ],
      "evaluatedResource": [ {
        "reference": "Patient/0cadffba-143c-4a8f-9260-fcd45aa2c9c1"
      }, {
        "reference": "Observation/6c8d60ee-fc4f-4756-bb52-389354bef9c0"
      }, {
        "reference": "Condition/a2107157-d17f-4e6c-be34-f2d001d421c2"
      }, {
        "reference": "Coverage/20d32102-e868-4876-a2de-642628a942d5"
      }, {
        "reference": "Encounter/6eba6eaa-4586-4328-b273-5d8cf9753a42"
      }, {
        "reference": "Organization/b9c11ad4-3ca1-4dea-8b08-b6eea2d93571"
      }, {
        "reference": "Practitioner/b6877e1e-86dd-45b1-8ca8-405becbbf966"
      } ]
    },
    "request": {
      "method": "PUT",
      "url": "MeasureReport/bbd8bd8b-0fe9-4392-bee7-56f383bece02"
    }
  } ]
}