{
  "resourceType": "Bundle",
  "id": "60f82c2e98086b570510e26c",
  "type": "transaction",
  "entry": [ {
    "fullUrl": "https://madie.cms.gov/Patient/ff9ea2c7-7a68-486d-809e-f0e2cd94d6eb",
    "resource": {
      "resourceType": "Patient",
      "id": "ff9ea2c7-7a68-486d-809e-f0e2cd94d6eb",
      "meta": {
        "profile": [ "http://hl7.org/fhir/us/qicore/StructureDefinition/qicore-patient" ]
      },
      "text": {
        "status": "generated",
        "div": "<div xmlns=\"http://www.w3.org/1999/xhtml\"><div class=\"hapiHeaderText\">LOS=2Days_EDstarts1Day23HoursB4IPEncEnds <b>DENEXFAIL </b></div><table class=\"hapiPropertyTable\"><tbody><tr><td>Identifier</td><td>bf1322b8dda82ca552d7dd81fbfd64f6</td></tr><tr><td>Date of birth</td><td><span>20 August 1994</span></td></tr></tbody></table></div>"
      },
      "extension": [ {
        "url": "http://hl7.org/fhir/us/core/StructureDefinition/us-core-race",
        "extension": [ {
          "url": "ombCategory",
          "valueCoding": {
            "system": "urn:oid:2.16.840.1.113883.6.238",
            "code": "1002-5",
            "display": "American Indian or Alaska Native",
            "userSelected": true
          }
        }, {
          "url": "text",
          "valueString": "American Indian or Alaska Native"
        } ]
      }, {
        "url": "http://hl7.org/fhir/us/core/StructureDefinition/us-core-ethnicity",
        "extension": [ {
          "url": "ombCategory",
          "valueCoding": {
            "system": "urn:oid:2.16.840.1.113883.6.238",
            "code": "2135-2",
            "display": "Hispanic or Latino",
            "userSelected": true
          }
        }, {
          "url": "text",
          "valueString": "Hispanic or Latino"
        } ]
      } ],
      "identifier": [ {
        "type": {
          "coding": [ {
            "system": "http://terminology.hl7.org/CodeSystem/v2-0203",
            "code": "MR"
          } ]
        },
        "system": "https://bonnie-fhir.healthit.gov/",
        "value": "60f82c2e98086b570510e26c"
      } ],
      "active": true,
      "name": [ {
        "use": "usual",
        "family": "DENEXFail",
        "given": [ "LOSEQ2DaysEDstarts1Day23HoursB4IPEncEnds" ]
      } ],
      "gender": "male",
      "birthDate": "1995-08-20"
    },
    "request": {
      "method": "PUT",
      "url": "Patient/ff9ea2c7-7a68-486d-809e-f0e2cd94d6eb"
    }
  }, {
    "fullUrl": "https://madie.cms.gov/Encounter/2b2e0630-a86b-485a-a002-325979464e12",
    "resource": {
      "resourceType": "Encounter",
      "id": "2b2e0630-a86b-485a-a002-325979464e12",
      "meta": {
        "profile": [ "http://hl7.org/fhir/us/qicore/StructureDefinition/qicore-encounter" ]
      },
      "status": "finished",
      "class": {
        "system": "http://terminology.hl7.org/CodeSystem/v3-ActCode",
        "code": "EMER",
        "display": "emergency",
        "userSelected": true
      },
      "type": [ {
        "coding": [ {
          "system": "http://snomed.info/sct",
          "code": "4525004"
        } ]
      } ],
      "subject": {
        "reference": "Patient/ff9ea2c7-7a68-486d-809e-f0e2cd94d6eb"
      },
      "period": {
        "start": "2026-08-19T22:59:00.000+00:00",
        "end": "2026-08-20T23:59:00.000+00:00"
      },
      "length": {
        "value": 1,
        "unit": "days"
      }
    },
    "request": {
      "method": "PUT",
      "url": "Encounter/2b2e0630-a86b-485a-a002-325979464e12"
    }
  }, {
    "fullUrl": "https://madie.cms.gov/Encounter/dcc16794-8cfc-4709-8d14-210cb35b8c11",
    "resource": {
      "resourceType": "Encounter",
      "id": "dcc16794-8cfc-4709-8d14-210cb35b8c11",
      "meta": {
        "profile": [ "http://hl7.org/fhir/us/qicore/StructureDefinition/qicore-encounter" ]
      },
      "status": "finished",
      "class": {
        "system": "http://terminology.hl7.org/CodeSystem/v3-ActCode",
        "code": "IMP",
        "display": "inpatient encounter",
        "userSelected": true
      },
      "type": [ {
        "coding": [ {
          "system": "http://snomed.info/sct",
          "code": "32485007"
        } ]
      } ],
      "subject": {
        "reference": "Patient/ff9ea2c7-7a68-486d-809e-f0e2cd94d6eb"
      },
      "period": {
        "start": "2026-08-21T00:00:00.000+00:00",
        "end": "2026-08-21T23:59:00.000+00:00"
      },
      "length": {
        "value": 0,
        "unit": "days"
      },
      "reasonReference": [ {
        "reference": "Condition/0461d3f6-3915-4c8d-ba4f-e049471e26cf"
      } ]
    },
    "request": {
      "method": "PUT",
      "url": "Encounter/dcc16794-8cfc-4709-8d14-210cb35b8c11"
    }
  }, {
    "fullUrl": "https://madie.cms.gov/Coverage/1518746f-fbeb-4002-acbb-2928ff2b088a",
    "resource": {
      "resourceType": "Coverage",
      "id": "1518746f-fbeb-4002-acbb-2928ff2b088a",
      "status": "active",
      "beneficiary": {
        "reference": "Patient/ff9ea2c7-7a68-486d-809e-f0e2cd94d6eb"
      },
      "period": {
        "start": "1995-08-20T07:00:00.000+00:00"
      },
      "payor": [ {
        "reference": "Organization/439de32f-d015-4b3b-ad61-907bd59e08ca"
      } ]
    },
    "request": {
      "method": "PUT",
      "url": "Coverage/1518746f-fbeb-4002-acbb-2928ff2b088a"
    }
  }, {
    "fullUrl": "https://madie.cms.gov/Condition/ab0b2c82-b736-49f6-bd65-7c92a23684db",
    "resource": {
      "resourceType": "Condition",
      "id": "ab0b2c82-b736-49f6-bd65-7c92a23684db",
      "meta": {
        "profile": [ "http://hl7.org/fhir/us/qicore/StructureDefinition/qicore-condition-encounter-diagnosis" ]
      },
      "clinicalStatus": {
        "coding": [ {
          "system": "http://terminology.hl7.org/CodeSystem/condition-clinical",
          "code": "active"
        } ]
      },
      "verificationStatus": {
        "coding": [ {
          "system": "http://terminology.hl7.org/CodeSystem/condition-ver-status",
          "code": "confirmed"
        } ]
      },
      "category": [ {
        "coding": [ {
          "system": "http://terminology.hl7.org/CodeSystem/condition-category",
          "code": "encounter-diagnosis",
          "display": "Encounter Diagnosis"
        } ]
      } ],
      "code": {
        "coding": [ {
          "system": "http://snomed.info/sct",
          "version": "2020-09",
          "code": "111297002",
          "display": "Nonparalytic stroke (disorder)",
          "userSelected": true
        } ]
      },
      "subject": {
        "reference": "Patient/ff9ea2c7-7a68-486d-809e-f0e2cd94d6eb"
      },
      "encounter": {
        "reference": "Encounter/dcc16794-8cfc-4709-8d14-210cb35b8c11"
      },
      "recordedDate": "2026-08-12T08:00:00.000+00:00"
    },
    "request": {
      "method": "PUT",
      "url": "Condition/ab0b2c82-b736-49f6-bd65-7c92a23684db"
    }
  }, {
    "fullUrl": "https://madie.cms.gov/Condition/0461d3f6-3915-4c8d-ba4f-e049471e26cf",
    "resource": {
      "resourceType": "Condition",
      "id": "0461d3f6-3915-4c8d-ba4f-e049471e26cf",
      "meta": {
        "profile": [ "http://hl7.org/fhir/us/qicore/StructureDefinition/qicore-condition-encounter-diagnosis" ]
      },
      "clinicalStatus": {
        "coding": [ {
          "system": "http://terminology.hl7.org/CodeSystem/condition-clinical",
          "code": "active"
        } ]
      },
      "verificationStatus": {
        "coding": [ {
          "system": "http://terminology.hl7.org/CodeSystem/condition-ver-status",
          "code": "confirmed"
        } ]
      },
      "category": [ {
        "coding": [ {
          "system": "http://terminology.hl7.org/CodeSystem/condition-category",
          "code": "encounter-diagnosis",
          "display": "Encounter Diagnosis"
        } ]
      } ],
      "code": {
        "coding": [ {
          "system": "http://snomed.info/sct",
          "version": "2020-09",
          "code": "111297002",
          "display": "Nonparalytic stroke (disorder)",
          "userSelected": true
        } ]
      },
      "subject": {
        "reference": "Patient/ff9ea2c7-7a68-486d-809e-f0e2cd94d6eb"
      },
      "encounter": {
        "reference": "Encounter/dcc16794-8cfc-4709-8d14-210cb35b8c11"
      },
      "recordedDate": "2026-08-12T08:00:00.000+00:00"
    },
    "request": {
      "method": "PUT",
      "url": "Condition/0461d3f6-3915-4c8d-ba4f-e049471e26cf"
    }
  }, {
    "fullUrl": "https://madie.cms.gov/claim/5ca62962b8484628b8de1ec5",
    "resource": {
      "resourceType": "Claim",
      "id": "5ca62962b8484628b8de1ec5",
      "meta": {
        "profile": [ "http://hl7.org/fhir/us/qicore/StructureDefinition/qicore-claim" ]
      },
      "status": "active",
      "type": {
        "coding": [ {
          "system": "http://terminology.hl7.org/CodeSystem/claim-type",
          "code": "institutional"
        } ]
      },
      "use": "claim",
      "patient": {
        "reference": "Patient/5450abfd-a667-4eb9-9b59-e85feed4865c"
      },
      "created": "2026-12-01",
      "provider": {
        "reference": "Practitioner/practitioner-123456"
      },
      "priority": {
        "coding": [ {
          "system": "http://terminology.hl7.org/CodeSystem/processpriority",
          "code": "normal"
        } ]
      },
      "diagnosis": [ {
        "sequence": 1,
        "diagnosisCodeableConcept": {
          "coding": [ {
            "system": "http://hl7.org/fhir/sid/icd-10-cm",
            "code": "I63.00"
          } ]
        },
        "type": [ {
          "coding": [ {
            "system": "http://terminology.hl7.org/CodeSystem/ex-diagnosistype",
            "code": "principal"
          } ]
        } ]
      } ],
      "insurance": [ {
        "sequence": 1,
        "focal": true,
        "coverage": {
          "reference": "Coverage/5fa041661c76ba66d9959367"
        }
      } ],
      "item": [ {
        "sequence": 1,
        "diagnosisSequence": [ 1 ],
        "productOrService": {
          "coding": [ {
            "system": "http://terminology.hl7.org/CodeSystem/ex-USCLS",
            "code": "99555"
          } ]
        },
        "encounter": [ {
          "reference": "Encounter/dcc16794-8cfc-4709-8d14-210cb35b8c11"
        } ]
      } ]
    },
    "request": {
      "method": "PUT",
      "url": "Claim/5ca62962b8484628b8de1ec5"
    }
  }, {
    "fullUrl": "https://madie.cms.gov/Organization/439de32f-d015-4b3b-ad61-907bd59e08ca",
    "resource": {
      "resourceType": "Organization",
      "id": "439de32f-d015-4b3b-ad61-907bd59e08ca",
      "meta": {
        "profile": [ "http://hl7.org/fhir/us/qicore/StructureDefinition/qicore-organization" ]
      },
      "identifier": [ {
        "use": "temp",
        "system": "urn:oid:2.16.840.1.113883.4.4",
        "value": "21-3259825"
      } ],
      "active": true,
      "type": [ {
        "coding": [ {
          "system": "http://terminology.hl7.org/CodeSystem/organization-type",
          "code": "pay",
          "display": "Payer"
        } ]
      } ],
      "name": "Blue Cross Blue Shield of Texas",
      "telecom": [ {
        "system": "phone",
        "value": "(+1) 972-766-6900"
      } ],
      "address": [ {
        "use": "billing",
        "type": "postal",
        "line": [ "P.O. Box 660044" ],
        "city": "Dallas",
        "state": "TX",
        "postalCode": "75266-0044",
        "country": "USA"
      } ]
    },
    "request": {
      "method": "PUT",
      "url": "Organization/439de32f-d015-4b3b-ad61-907bd59e08ca"
    }
  }, {
    "fullUrl": "https://madie.cms.gov/MeasureReport/dc1bdbc4-862b-4445-95c6-519c9c850667",
    "resource": {
      "resourceType": "MeasureReport",
      "id": "dc1bdbc4-862b-4445-95c6-519c9c850667",
      "meta": {
        "profile": [ "http://hl7.org/fhir/us/cqfmeasures/StructureDefinition/test-case-cqfm" ]
      },
      "contained": [ {
        "resourceType": "Parameters",
        "id": "254475f2-237a-454b-a7b6-f0d3fe4fff98-parameters",
        "parameter": [ {
          "name": "subject",
          "valueString": "ff9ea2c7-7a68-486d-809e-f0e2cd94d6eb"
        } ]
      } ],
      "extension": [ {
        "url": "http://hl7.org/fhir/StructureDefinition/cqf-inputParameters",
        "valueReference": {
          "reference": "#254475f2-237a-454b-a7b6-f0d3fe4fff98-parameters"
        }
      }, {
        "url": "http://hl7.org/fhir/us/cqfmeasures/StructureDefinition/cqfm-testCaseDescription",
        "valueMarkdown": "LOS=2 days, Patient has ED visit that starts 1 day and 23 hours before end of IP encounter, global.Hospitalization ( =Ed +IP)\n"
      } ],
      "modifierExtension": [ {
        "url": "http://hl7.org/fhir/us/cqfmeasures/StructureDefinition/cqfm-isTestCase",
        "valueBoolean": true
      } ],
      "status": "complete",
      "type": "individual",
      "measure": "https://madie.cms.gov/Measure/CMS72FHIRSTKAntithromboticDay2",
      "period": {
        "start": "2026-01-01",
        "end": "2026-12-31"
      },
      "group": [ {
        "id": "Group_1",
        "population": [ {
          "id": "InitialPopulation_1",
          "code": {
            "coding": [ {
              "system": "http://terminology.hl7.org/CodeSystem/measure-population",
              "code": "initial-population",
              "display": "Initial Population"
            } ]
          },
          "count": 1
        }, {
          "id": "Denominator_1",
          "code": {
            "coding": [ {
              "system": "http://terminology.hl7.org/CodeSystem/measure-population",
              "code": "denominator",
              "display": "Denominator"
            } ]
          },
          "count": 1
        }, {
          "id": "DenominatorExclusion_1",
          "code": {
            "coding": [ {
              "system": "http://terminology.hl7.org/CodeSystem/measure-population",
              "code": "denominator-exclusion",
              "display": "Denominator Exclusion"
            } ]
          },
          "count": 0
        }, {
          "id": "Numerator_1",
          "code": {
            "coding": [ {
              "system": "http://terminology.hl7.org/CodeSystem/measure-population",
              "code": "numerator",
              "display": "Numerator"
            } ]
          },
          "count": 0
        }, {
          "id": "DenominatorException_1",
          "code": {
            "coding": [ {
              "system": "http://terminology.hl7.org/CodeSystem/measure-population",
              "code": "denominator-exception",
              "display": "Denominator Exception"
            } ]
          },
          "count": 0
        } ],
        "measureScore": {
          "value": 0.0
        }
      } ],
      "evaluatedResource": [ {
        "reference": "Patient/ff9ea2c7-7a68-486d-809e-f0e2cd94d6eb"
      }, {
        "reference": "Encounter/2b2e0630-a86b-485a-a002-325979464e12"
      }, {
        "reference": "Encounter/dcc16794-8cfc-4709-8d14-210cb35b8c11"
      }, {
        "reference": "Coverage/1518746f-fbeb-4002-acbb-2928ff2b088a"
      }, {
        "reference": "Condition/ab0b2c82-b736-49f6-bd65-7c92a23684db"
      }, {
        "reference": "Condition/0461d3f6-3915-4c8d-ba4f-e049471e26cf"
      }, {
        "reference": "Claim/5ca62962b8484628b8de1ec5"
      }, {
        "reference": "Organization/439de32f-d015-4b3b-ad61-907bd59e08ca"
      } ]
    },
    "request": {
      "method": "PUT",
      "url": "MeasureReport/dc1bdbc4-862b-4445-95c6-519c9c850667"
    }
  } ]
}