{
  "resourceType": "Bundle",
  "id": "632368e98d26c655c5601f01",
  "type": "transaction",
  "entry": [ {
    "fullUrl": "https://madie.cms.gov/Patient/26b12d5b-823a-4a45-9f1d-d52aa26d27a7",
    "resource": {
      "resourceType": "Patient",
      "id": "26b12d5b-823a-4a45-9f1d-d52aa26d27a7",
      "meta": {
        "profile": [ "http://hl7.org/fhir/us/qicore/StructureDefinition/qicore-patient" ]
      },
      "extension": [ {
        "url": "http://hl7.org/fhir/us/core/StructureDefinition/us-core-race",
        "extension": [ {
          "url": "ombCategory",
          "valueCoding": {
            "system": "urn:oid:2.16.840.1.113883.6.238",
            "code": "2054-5",
            "display": "Black or African American",
            "userSelected": true
          }
        }, {
          "url": "text",
          "valueString": "Black or African American"
        } ]
      }, {
        "url": "http://hl7.org/fhir/us/core/StructureDefinition/us-core-ethnicity",
        "extension": [ {
          "url": "ombCategory",
          "valueCoding": {
            "system": "urn:oid:2.16.840.1.113883.6.238",
            "code": "2186-5",
            "display": "Not Hispanic or Latino",
            "userSelected": true
          }
        }, {
          "url": "text",
          "valueString": "Not Hispanic or Latino"
        } ]
      } ],
      "identifier": [ {
        "system": "http://hospital.smarthealthit.org",
        "value": "999999999"
      } ],
      "name": [ {
        "family": "NUMERFail",
        "given": [ "OpioidDuringEncBenzoAtDC" ]
      } ],
      "gender": "female",
      "birthDate": "2006-12-31"
    },
    "request": {
      "method": "PUT",
      "url": "Patient/26b12d5b-823a-4a45-9f1d-d52aa26d27a7"
    }
  }, {
    "fullUrl": "https://madie.cms.gov/Encounter/535d592b-6480-4215-a19a-cf7b7dac60f3",
    "resource": {
      "resourceType": "Encounter",
      "id": "535d592b-6480-4215-a19a-cf7b7dac60f3",
      "meta": {
        "profile": [ "http://hl7.org/fhir/us/qicore/StructureDefinition/qicore-encounter" ]
      },
      "status": "finished",
      "class": {
        "system": "http://terminology.hl7.org/CodeSystem/v3-ActCode",
        "code": "IMP",
        "display": "inpatient encounter"
      },
      "type": [ {
        "coding": [ {
          "system": "http://snomed.info/sct",
          "code": "183452005",
          "display": "Emergency hospital admission (procedure)",
          "userSelected": true
        } ]
      } ],
      "subject": {
        "reference": "Patient/26b12d5b-823a-4a45-9f1d-d52aa26d27a7"
      },
      "period": {
        "start": "2026-01-01T00:00:00.000+00:00",
        "end": "2026-01-02T00:15:00.000+00:00"
      }
    },
    "request": {
      "method": "PUT",
      "url": "Encounter/535d592b-6480-4215-a19a-cf7b7dac60f3"
    }
  }, {
    "fullUrl": "https://madie.cms.gov/MedicationRequest/ebd4e816-34cd-420f-96a5-f43467131342",
    "resource": {
      "resourceType": "MedicationRequest",
      "id": "ebd4e816-34cd-420f-96a5-f43467131342",
      "meta": {
        "profile": [ "http://hl7.org/fhir/us/qicore/StructureDefinition/qicore-medicationrequest" ]
      },
      "status": "active",
      "intent": "order",
      "category": [ {
        "coding": [ {
          "system": "http://terminology.hl7.org/CodeSystem/medicationrequest-category",
          "code": "inpatient",
          "display": "Inpatient",
          "userSelected": true
        } ]
      } ],
      "doNotPerform": false,
      "medicationCodeableConcept": {
        "coding": [ {
          "system": "http://www.nlm.nih.gov/research/umls/rxnorm",
          "code": "1014632",
          "display": "acetaminophen 300 MG / oxycodone hydrochloride 7.5 MG Oral Tablet",
          "userSelected": true
        } ]
      },
      "subject": {
        "reference": "Patient/26b12d5b-823a-4a45-9f1d-d52aa26d27a7"
      },
      "authoredOn": "2026-01-02T00:01:00.000+00:00",
      "requester": {
        "reference": "Practitioner/78a568bc-0910-4b7c-8f77-36561a8325e4"
      }
    },
    "request": {
      "method": "PUT",
      "url": "MedicationRequest/ebd4e816-34cd-420f-96a5-f43467131342"
    }
  }, {
    "fullUrl": "https://madie.cms.gov/Practitioner/78a568bc-0910-4b7c-8f77-36561a8325e4",
    "resource": {
      "resourceType": "Practitioner",
      "id": "78a568bc-0910-4b7c-8f77-36561a8325e4",
      "meta": {
        "profile": [ "http://hl7.org/fhir/us/qicore/StructureDefinition/qicore-practitioner" ]
      },
      "identifier": [ {
        "system": "http://hl7.org/fhir/sid/us-npi",
        "value": "9999999896"
      } ],
      "active": true,
      "name": [ {
        "family": "Ramires",
        "given": [ "Alma" ],
        "prefix": [ "Dr" ]
      } ],
      "address": [ {
        "use": "home",
        "line": [ "534 Erewhon St" ],
        "city": "Netherville",
        "state": "IN",
        "postalCode": "46131"
      } ],
      "qualification": [ {
        "identifier": [ {
          "system": "http://goodhealth.org/prIdentifier",
          "value": "12345"
        } ],
        "code": {
          "coding": [ {
            "system": "http://terminology.hl7.org/CodeSystem/v2-0360|2.7",
            "code": "BS",
            "display": "Bachelor of Science"
          } ],
          "text": "Bachelor of Science"
        },
        "period": {
          "start": "1995"
        },
        "issuer": {
          "display": "Example University"
        }
      } ]
    },
    "request": {
      "method": "PUT",
      "url": "Practitioner/78a568bc-0910-4b7c-8f77-36561a8325e4"
    }
  }, {
    "fullUrl": "https://madie.cms.gov/MedicationRequest/e785ed56-e6ce-48b6-b33f-94f4b016f7b3",
    "resource": {
      "resourceType": "MedicationRequest",
      "id": "e785ed56-e6ce-48b6-b33f-94f4b016f7b3",
      "meta": {
        "profile": [ "http://hl7.org/fhir/us/qicore/StructureDefinition/qicore-medicationrequest" ]
      },
      "status": "active",
      "intent": "order",
      "category": [ {
        "coding": [ {
          "system": "http://terminology.hl7.org/CodeSystem/medicationrequest-category",
          "code": "community",
          "display": "Community",
          "userSelected": true
        } ]
      } ],
      "doNotPerform": false,
      "medicationCodeableConcept": {
        "coding": [ {
          "system": "http://www.nlm.nih.gov/research/umls/rxnorm",
          "code": "1298088",
          "display": "flurazepam hydrochloride 15 MG Oral Capsule",
          "userSelected": true
        } ]
      },
      "subject": {
        "reference": "Patient/26b12d5b-823a-4a45-9f1d-d52aa26d27a7"
      },
      "authoredOn": "2026-01-02T00:15:00.000+00:00",
      "requester": {
        "reference": "Practitioner/78a568bc-0910-4b7c-8f77-36561a8325e4"
      }
    },
    "request": {
      "method": "PUT",
      "url": "MedicationRequest/e785ed56-e6ce-48b6-b33f-94f4b016f7b3"
    }
  }, {
    "fullUrl": "https://madie.cms.gov/Coverage/4feed37c-d89c-4420-8157-f291ae3be637",
    "resource": {
      "resourceType": "Coverage",
      "id": "4feed37c-d89c-4420-8157-f291ae3be637",
      "meta": {
        "profile": [ "http://hl7.org/fhir/us/qicore/StructureDefinition/qicore-coverage" ]
      },
      "status": "active",
      "subscriberId": "523435",
      "beneficiary": {
        "reference": "Patient/26b12d5b-823a-4a45-9f1d-d52aa26d27a7"
      },
      "relationship": {
        "coding": [ {
          "system": "http://terminology.hl7.org/CodeSystem/subscriber-relationship",
          "code": "self"
        } ]
      },
      "payor": [ {
        "reference": "Organization/9ff7b344-40ee-431b-ba3f-b4cccf2cd560"
      } ]
    },
    "request": {
      "method": "PUT",
      "url": "Coverage/4feed37c-d89c-4420-8157-f291ae3be637"
    }
  }, {
    "fullUrl": "https://madie.cms.gov/Organization/9ff7b344-40ee-431b-ba3f-b4cccf2cd560",
    "resource": {
      "resourceType": "Organization",
      "id": "9ff7b344-40ee-431b-ba3f-b4cccf2cd560",
      "meta": {
        "profile": [ "http://hl7.org/fhir/us/qicore/StructureDefinition/qicore-organization" ]
      },
      "identifier": [ {
        "use": "temp",
        "system": "urn:oid:2.16.840.1.113883.4.4",
        "value": "21-3259825"
      } ],
      "active": true,
      "type": [ {
        "coding": [ {
          "system": "http://terminology.hl7.org/CodeSystem/organization-type",
          "code": "pay",
          "display": "Payer"
        } ]
      } ],
      "name": "Blue Cross Blue Shield of Texas",
      "telecom": [ {
        "system": "phone",
        "value": "(+1) 972-766-6900"
      } ],
      "address": [ {
        "use": "billing",
        "type": "postal",
        "line": [ "P.O. Box 660044" ],
        "city": "Dallas",
        "state": "TX",
        "postalCode": "75266-0044",
        "country": "USA"
      } ]
    },
    "request": {
      "method": "PUT",
      "url": "Organization/9ff7b344-40ee-431b-ba3f-b4cccf2cd560"
    }
  }, {
    "fullUrl": "https://madie.cms.gov/MeasureReport/b7c8fd8e-1246-4202-b9ef-43e56a66a22e",
    "resource": {
      "resourceType": "MeasureReport",
      "id": "b7c8fd8e-1246-4202-b9ef-43e56a66a22e",
      "meta": {
        "profile": [ "http://hl7.org/fhir/us/cqfmeasures/StructureDefinition/test-case-cqfm" ]
      },
      "contained": [ {
        "resourceType": "Parameters",
        "id": "2529bcac-be9b-42b0-b2c0-f0f0307881d9-parameters",
        "parameter": [ {
          "name": "subject",
          "valueString": "26b12d5b-823a-4a45-9f1d-d52aa26d27a7"
        } ]
      } ],
      "extension": [ {
        "url": "http://hl7.org/fhir/StructureDefinition/cqf-inputParameters",
        "valueReference": {
          "reference": "#2529bcac-be9b-42b0-b2c0-f0f0307881d9-parameters"
        }
      }, {
        "url": "http://hl7.org/fhir/us/cqfmeasures/StructureDefinition/cqfm-testCaseDescription",
        "valueMarkdown": "Inpatient enc first day of MP. Opioid category \"inpatient\" (consumed in inpatient setting) for MedicationRequest-1 and Benzo prescribed at discharge MedicationRequest-2. "
      } ],
      "modifierExtension": [ {
        "url": "http://hl7.org/fhir/us/cqfmeasures/StructureDefinition/cqfm-isTestCase",
        "valueBoolean": true
      } ],
      "status": "complete",
      "type": "individual",
      "measure": "https://madie.cms.gov/Measure/CMS506FHIRSafeUseofOpioids",
      "period": {
        "start": "2026-01-01",
        "end": "2026-12-31"
      },
      "group": [ {
        "id": "Group_1",
        "population": [ {
          "id": "InitialPopulation_1",
          "code": {
            "coding": [ {
              "system": "http://terminology.hl7.org/CodeSystem/measure-population",
              "code": "initial-population",
              "display": "Initial Population"
            } ]
          },
          "count": 1
        }, {
          "id": "Denominator_1",
          "code": {
            "coding": [ {
              "system": "http://terminology.hl7.org/CodeSystem/measure-population",
              "code": "denominator",
              "display": "Denominator"
            } ]
          },
          "count": 1
        }, {
          "id": "DenominatorExclusion_1",
          "code": {
            "coding": [ {
              "system": "http://terminology.hl7.org/CodeSystem/measure-population",
              "code": "denominator-exclusion",
              "display": "Denominator Exclusion"
            } ]
          },
          "count": 0
        }, {
          "id": "Numerator_1",
          "code": {
            "coding": [ {
              "system": "http://terminology.hl7.org/CodeSystem/measure-population",
              "code": "numerator",
              "display": "Numerator"
            } ]
          },
          "count": 0
        } ],
        "measureScore": {
          "value": 0.0
        }
      } ],
      "evaluatedResource": [ {
        "reference": "Patient/26b12d5b-823a-4a45-9f1d-d52aa26d27a7"
      }, {
        "reference": "Encounter/535d592b-6480-4215-a19a-cf7b7dac60f3"
      }, {
        "reference": "MedicationRequest/ebd4e816-34cd-420f-96a5-f43467131342"
      }, {
        "reference": "Practitioner/78a568bc-0910-4b7c-8f77-36561a8325e4"
      }, {
        "reference": "MedicationRequest/e785ed56-e6ce-48b6-b33f-94f4b016f7b3"
      }, {
        "reference": "Coverage/4feed37c-d89c-4420-8157-f291ae3be637"
      }, {
        "reference": "Organization/9ff7b344-40ee-431b-ba3f-b4cccf2cd560"
      } ]
    },
    "request": {
      "method": "PUT",
      "url": "MeasureReport/b7c8fd8e-1246-4202-b9ef-43e56a66a22e"
    }
  } ]
}