{
  "resourceType": "Bundle",
  "id": "657cbdc9b4f1f0343662347a",
  "type": "transaction",
  "entry": [ {
    "fullUrl": "https://madie.cms.gov/Patient/b247e1af-4d1a-42c1-be34-7c74987da0bd",
    "resource": {
      "resourceType": "Patient",
      "id": "b247e1af-4d1a-42c1-be34-7c74987da0bd",
      "meta": {
        "profile": [ "http://hl7.org/fhir/us/qicore/StructureDefinition/qicore-patient" ]
      },
      "extension": [ {
        "url": "http://hl7.org/fhir/us/core/StructureDefinition/us-core-race",
        "extension": [ {
          "url": "ombCategory",
          "valueCoding": {
            "system": "urn:oid:2.16.840.1.113883.6.238",
            "code": "2106-3",
            "display": "White",
            "userSelected": true
          }
        }, {
          "url": "text",
          "valueString": "White"
        } ]
      }, {
        "url": "http://hl7.org/fhir/us/core/StructureDefinition/us-core-ethnicity",
        "extension": [ {
          "url": "ombCategory",
          "valueCoding": {
            "system": "urn:oid:2.16.840.1.113883.6.238",
            "code": "2186-5",
            "display": "Not Hispanic or Latino",
            "userSelected": true
          }
        }, {
          "url": "text",
          "valueString": "Not Hispanic or Latino"
        } ]
      } ],
      "identifier": [ {
        "type": {
          "coding": [ {
            "system": "http://terminology.hl7.org/CodeSystem/v2-0203",
            "code": "MR"
          } ]
        },
        "system": "https://bonnie-fhir.healthit.gov/",
        "value": "657cbdc9b4f1f0343662347a"
      } ],
      "name": [ {
        "family": "ConditionPass",
        "given": [ "Condition" ]
      } ],
      "gender": "female",
      "birthDate": "2008-01-01"
    },
    "request": {
      "method": "PUT",
      "url": "Patient/b247e1af-4d1a-42c1-be34-7c74987da0bd"
    }
  }, {
    "fullUrl": "https://madie.cms.gov/Encounter/90c8ad2b-9847-4629-b728-5bb6af82b35f",
    "resource": {
      "resourceType": "Encounter",
      "id": "90c8ad2b-9847-4629-b728-5bb6af82b35f",
      "meta": {
        "profile": [ "http://hl7.org/fhir/us/qicore/StructureDefinition/qicore-encounter" ]
      },
      "status": "finished",
      "class": {
        "system": "http://terminology.hl7.org/CodeSystem/v3-ActCode",
        "code": "ACUTE",
        "display": "inpatient acute"
      },
      "type": [ {
        "coding": [ {
          "system": "http://snomed.info/sct",
          "version": "2024",
          "code": "32485007",
          "display": "Hospital admission (procedure)",
          "userSelected": true
        } ]
      } ],
      "subject": {
        "reference": "Patient/b247e1af-4d1a-42c1-be34-7c74987da0bd"
      },
      "period": {
        "start": "2026-01-01T08:00:00.000+00:00",
        "end": "2026-01-02T09:15:00.000+00:00"
      }
    },
    "request": {
      "method": "PUT",
      "url": "Encounter/90c8ad2b-9847-4629-b728-5bb6af82b35f"
    }
  }, {
    "fullUrl": "https://madie.cms.gov/Location/947eb09a-6e05-4660-b30a-96038d91b206",
    "resource": {
      "resourceType": "Location",
      "id": "947eb09a-6e05-4660-b30a-96038d91b206",
      "meta": {
        "profile": [ "http://hl7.org/fhir/us/qicore/StructureDefinition/qicore-location" ]
      },
      "identifier": [ {
        "use": "usual",
        "system": "http://exampleoflocation.com",
        "value": "B1-S.F2"
      } ],
      "name": "Medical Surgical East, first floor",
      "type": [ {
        "coding": [ {
          "system": "https://www.cdc.gov/nhsn/cdaportal/terminology/codesystem/hsloc.html",
          "code": "1028-0",
          "display": "Medical Cardiac Critical Care",
          "userSelected": true
        } ]
      } ]
    },
    "request": {
      "method": "PUT",
      "url": "Location/947eb09a-6e05-4660-b30a-96038d91b206"
    }
  }, {
    "fullUrl": "https://madie.cms.gov/MedicationRequest/d4873f1f-2fe5-45e3-b4f7-0238e75ede66",
    "resource": {
      "resourceType": "MedicationRequest",
      "id": "d4873f1f-2fe5-45e3-b4f7-0238e75ede66",
      "meta": {
        "profile": [ "http://hl7.org/fhir/us/qicore/StructureDefinition/qicore-medicationrequest" ]
      },
      "status": "completed",
      "intent": "order",
      "medicationCodeableConcept": {
        "coding": [ {
          "system": "http://www.nlm.nih.gov/research/umls/rxnorm",
          "version": "06052023",
          "code": "1007184"
        } ]
      },
      "subject": {
        "reference": "Patient/b247e1af-4d1a-42c1-be34-7c74987da0bd"
      },
      "authoredOn": "2026-01-01T08:15:00.000+00:00",
      "requester": {
        "reference": "Practitioner/33d87640-6b2a-40b0-ab11-542478a88d5a"
      },
      "dosageInstruction": [ {
        "timing": {
          "repeat": {
            "boundsPeriod": {
              "start": "2025-01-01T08:15:00.000+00:00"
            }
          }
        }
      } ]
    },
    "request": {
      "method": "PUT",
      "url": "MedicationRequest/d4873f1f-2fe5-45e3-b4f7-0238e75ede66"
    }
  }, {
    "fullUrl": "https://madie.cms.gov/Condition/40af5555-5413-4dc1-8514-7e6cfa3fafd6",
    "resource": {
      "resourceType": "Condition",
      "id": "40af5555-5413-4dc1-8514-7e6cfa3fafd6",
      "meta": {
        "profile": [ "http://hl7.org/fhir/us/qicore/StructureDefinition/qicore-condition-problems-health-concerns" ]
      },
      "clinicalStatus": {
        "coding": [ {
          "system": "http://terminology.hl7.org/CodeSystem/condition-clinical",
          "code": "active",
          "display": "Active",
          "userSelected": true
        } ]
      },
      "verificationStatus": {
        "coding": [ {
          "system": "http://terminology.hl7.org/CodeSystem/condition-ver-status",
          "code": "confirmed",
          "display": "confirmed",
          "userSelected": true
        } ]
      },
      "category": [ {
        "coding": [ {
          "system": "http://terminology.hl7.org/CodeSystem/condition-category",
          "code": "encounter-diagnosis",
          "display": "Encounter Diagnosis"
        }, {
          "system": "http://snomed.info/sct",
          "code": "439401001",
          "display": "Diagnosis"
        }, {
          "system": "http://terminology.hl7.org/CodeSystem/condition-category",
          "code": "problem-list-item",
          "display": "Problem List Item"
        } ]
      } ],
      "code": {
        "coding": [ {
          "system": "http://snomed.info/sct",
          "version": "2023-09",
          "code": "46635009",
          "display": "Diabetes mellitus type 1",
          "userSelected": true
        } ]
      },
      "subject": {
        "reference": "Patient/b247e1af-4d1a-42c1-be34-7c74987da0bd"
      },
      "onsetDateTime": "2026-01-01T08:00:00.000+00:00",
      "recordedDate": "2026-01-01T08:10:00.000+00:00"
    },
    "request": {
      "method": "PUT",
      "url": "Condition/40af5555-5413-4dc1-8514-7e6cfa3fafd6"
    }
  }, {
    "fullUrl": "https://madie.cms.gov/Coverage/56957e2a-5b8f-4640-a67e-5a8e72275039",
    "resource": {
      "resourceType": "Coverage",
      "id": "56957e2a-5b8f-4640-a67e-5a8e72275039",
      "meta": {
        "profile": [ "http://hl7.org/fhir/us/qicore/StructureDefinition/qicore-coverage" ]
      },
      "identifier": [ {
        "system": "http://benefitsinc.com/certificate",
        "value": "12345"
      } ],
      "status": "active",
      "type": {
        "coding": [ {
          "system": "https://nahdo.org/sopt",
          "version": "1.0.1",
          "code": "1",
          "display": "MEDICARE",
          "userSelected": true
        } ]
      },
      "subscriberId": "AB9876",
      "beneficiary": {
        "reference": "Patient/b247e1af-4d1a-42c1-be34-7c74987da0bd"
      },
      "relationship": {
        "coding": [ {
          "system": "http://terminology.hl7.org/CodeSystem/subscriber-relationship",
          "code": "self"
        } ]
      },
      "payor": [ {
        "reference": "Organization/e98260f8-2785-47b7-bdc1-60c8490808cd"
      } ]
    },
    "request": {
      "method": "PUT",
      "url": "Coverage/56957e2a-5b8f-4640-a67e-5a8e72275039"
    }
  }, {
    "fullUrl": "https://madie.cms.gov/Organization/e98260f8-2785-47b7-bdc1-60c8490808cd",
    "resource": {
      "resourceType": "Organization",
      "id": "e98260f8-2785-47b7-bdc1-60c8490808cd",
      "meta": {
        "profile": [ "http://hl7.org/fhir/us/qicore/StructureDefinition/qicore-organization" ]
      },
      "identifier": [ {
        "use": "temp",
        "system": "urn:oid:2.16.840.1.113883.4.4",
        "value": "21-3259825"
      } ],
      "active": true,
      "type": [ {
        "coding": [ {
          "system": "http://terminology.hl7.org/CodeSystem/organization-type",
          "code": "pay",
          "display": "Payer"
        } ]
      } ],
      "name": "Blue Cross Blue Shield of Texas",
      "telecom": [ {
        "system": "phone",
        "value": "(+1) 972-766-6900"
      } ],
      "address": [ {
        "use": "billing",
        "type": "postal",
        "line": [ "P.O. Box 660044" ],
        "city": "Dallas",
        "state": "TX",
        "postalCode": "75266-0044",
        "country": "USA"
      } ]
    },
    "request": {
      "method": "PUT",
      "url": "Organization/e98260f8-2785-47b7-bdc1-60c8490808cd"
    }
  }, {
    "fullUrl": "https://madie.cms.gov/Practitioner/f454360e-681e-4dab-bd5e-b92d941044ed",
    "resource": {
      "resourceType": "Practitioner",
      "id": "f454360e-681e-4dab-bd5e-b92d941044ed",
      "meta": {
        "profile": [ "http://hl7.org/fhir/us/qicore/StructureDefinition/qicore-practitioner" ]
      },
      "identifier": [ {
        "system": "http://hl7.org/fhir/sid/us-npi",
        "value": "0723660813"
      } ],
      "name": [ {
        "family": "Evil",
        "prefix": [ "Dr" ]
      } ]
    },
    "request": {
      "method": "PUT",
      "url": "Practitioner/f454360e-681e-4dab-bd5e-b92d941044ed"
    }
  }, {
    "fullUrl": "https://madie.cms.gov/MeasureReport/d16d9140-a94f-4f84-8659-aba18d3ea3ea",
    "resource": {
      "resourceType": "MeasureReport",
      "id": "d16d9140-a94f-4f84-8659-aba18d3ea3ea",
      "meta": {
        "profile": [ "http://hl7.org/fhir/us/cqfmeasures/StructureDefinition/test-case-cqfm" ]
      },
      "contained": [ {
        "resourceType": "Parameters",
        "id": "9b7ec607-7622-4ece-add5-e64ea0c67e4c-parameters",
        "parameter": [ {
          "name": "subject",
          "valueString": "b247e1af-4d1a-42c1-be34-7c74987da0bd"
        } ]
      } ],
      "extension": [ {
        "url": "http://hl7.org/fhir/StructureDefinition/cqf-inputParameters",
        "valueReference": {
          "reference": "#9b7ec607-7622-4ece-add5-e64ea0c67e4c-parameters"
        }
      }, {
        "url": "http://hl7.org/fhir/us/cqfmeasures/StructureDefinition/cqfm-testCaseDescription",
        "valueMarkdown": "Inpatient encounter with diabetic medication during MP with SDE condition"
      } ],
      "modifierExtension": [ {
        "url": "http://hl7.org/fhir/us/cqfmeasures/StructureDefinition/cqfm-isTestCase",
        "valueBoolean": true
      } ],
      "status": "complete",
      "type": "individual",
      "measure": "https://madie.cms.gov/Measure/NHSNGlycemicControlHypoglycemiaInitialPopulation",
      "period": {
        "start": "2026-01-01",
        "end": "2026-12-31"
      },
      "group": [ {
        "id": "Group_1",
        "population": [ {
          "id": "InitialPopulation_1",
          "code": {
            "coding": [ {
              "system": "http://terminology.hl7.org/CodeSystem/measure-population",
              "code": "initial-population",
              "display": "Initial Population"
            } ]
          },
          "count": 1
        } ],
        "measureScore": {
          "value": 0.0
        }
      } ],
      "evaluatedResource": [ {
        "reference": "Patient/b247e1af-4d1a-42c1-be34-7c74987da0bd"
      }, {
        "reference": "Encounter/90c8ad2b-9847-4629-b728-5bb6af82b35f"
      }, {
        "reference": "Location/947eb09a-6e05-4660-b30a-96038d91b206"
      }, {
        "reference": "MedicationRequest/d4873f1f-2fe5-45e3-b4f7-0238e75ede66"
      }, {
        "reference": "Condition/40af5555-5413-4dc1-8514-7e6cfa3fafd6"
      }, {
        "reference": "Coverage/56957e2a-5b8f-4640-a67e-5a8e72275039"
      }, {
        "reference": "Organization/e98260f8-2785-47b7-bdc1-60c8490808cd"
      }, {
        "reference": "Practitioner/f454360e-681e-4dab-bd5e-b92d941044ed"
      } ]
    },
    "request": {
      "method": "PUT",
      "url": "MeasureReport/d16d9140-a94f-4f84-8659-aba18d3ea3ea"
    }
  } ]
}