{
  "resourceType": "Bundle",
  "id": "661476b015ed5841a5547ebf",
  "type": "transaction",
  "entry": [ {
    "fullUrl": "https://madie.cms.gov/Patient/50270eff-f1ed-4cb3-b22b-467d89937c3a",
    "resource": {
      "resourceType": "Patient",
      "id": "50270eff-f1ed-4cb3-b22b-467d89937c3a",
      "meta": {
        "profile": [ "http://hl7.org/fhir/us/qicore/StructureDefinition/qicore-patient" ]
      },
      "extension": [ {
        "url": "http://hl7.org/fhir/us/core/StructureDefinition/us-core-race",
        "extension": [ {
          "url": "ombCategory",
          "valueCoding": {
            "system": "urn:oid:2.16.840.1.113883.6.238",
            "code": "1002-5",
            "display": "American Indian or Alaska Native",
            "userSelected": true
          }
        }, {
          "url": "text",
          "valueString": "American Indian or Alaska Native"
        } ]
      }, {
        "url": "http://hl7.org/fhir/us/core/StructureDefinition/us-core-ethnicity",
        "extension": [ {
          "url": "ombCategory",
          "valueCoding": {
            "system": "urn:oid:2.16.840.1.113883.6.238",
            "code": "2135-2",
            "display": "Hispanic or Latino",
            "userSelected": true
          }
        }, {
          "url": "text",
          "valueString": "Hispanic or Latino"
        } ]
      }, {
        "url": "http://hl7.org/fhir/us/core/StructureDefinition/us-core-sex",
        "valueCode": "248153007"
      } ],
      "identifier": [ {
        "type": {
          "coding": [ {
            "system": "http://terminology.hl7.org/CodeSystem/v2-0203",
            "code": "MR"
          } ]
        },
        "system": "https://bonnie-fhir.healthit.gov/",
        "value": "661476b015ed5841a5547ebf"
      } ],
      "name": [ {
        "family": "NUMERStrat1Fail",
        "given": [ "PatientBedAssignment240Minutes" ]
      } ],
      "gender": "male",
      "birthDate": "2010-01-01"
    },
    "request": {
      "method": "PUT",
      "url": "Patient/50270eff-f1ed-4cb3-b22b-467d89937c3a"
    }
  }, {
    "fullUrl": "https://madie.cms.gov/Encounter/1e459651-ba49-4595-bb91-deff08a1a472",
    "resource": {
      "resourceType": "Encounter",
      "id": "1e459651-ba49-4595-bb91-deff08a1a472",
      "meta": {
        "profile": [ "http://hl7.org/fhir/us/qicore/StructureDefinition/qicore-encounter" ]
      },
      "status": "finished",
      "class": {
        "system": "http://terminology.hl7.org/CodeSystem/v3-ActCode",
        "code": "EMER",
        "display": "emergency department"
      },
      "type": [ {
        "coding": [ {
          "system": "http://snomed.info/sct",
          "version": "2023-09",
          "code": "4525004",
          "display": "Emergency department patient visit (procedure)",
          "userSelected": true
        } ]
      } ],
      "subject": {
        "reference": "Patient/50270eff-f1ed-4cb3-b22b-467d89937c3a"
      },
      "period": {
        "start": "2027-05-01T00:00:00.000+00:00",
        "end": "2027-05-01T04:00:00.000+00:00"
      },
      "diagnosis": [ {
        "condition": {
          "reference": "Condition/non-behavioral-health-diagnosis-without-substance-use-disorders-8a64"
        },
        "use": {
          "coding": [ {
            "system": "http://terminology.hl7.org/CodeSystem/diagnosis-role",
            "code": "billing"
          } ]
        },
        "rank": 1
      } ],
      "location": [ {
        "location": {
          "reference": "Location/fd4eb096-3d77-4796-9aa2-b10b389791ef"
        },
        "period": {
          "start": "2027-05-01T00:00:00.000+00:00",
          "end": "2027-05-01T04:00:00.000+00:00"
        }
      } ]
    },
    "request": {
      "method": "PUT",
      "url": "Encounter/1e459651-ba49-4595-bb91-deff08a1a472"
    }
  }, {
    "fullUrl": "https://madie.cms.gov/Encounter/5f2915ec-97a6-41f0-ab48-72f592c1a890",
    "resource": {
      "resourceType": "Encounter",
      "id": "5f2915ec-97a6-41f0-ab48-72f592c1a890",
      "meta": {
        "profile": [ "http://hl7.org/fhir/us/qicore/StructureDefinition/qicore-encounter" ]
      },
      "status": "finished",
      "class": {
        "system": "http://terminology.hl7.org/CodeSystem/v3-ActCode",
        "code": "IMP",
        "display": "inpatient encounter"
      },
      "type": [ {
        "coding": [ {
          "system": "http://snomed.info/sct",
          "version": "2023-09",
          "code": "183452005",
          "display": "Emergency hospital admission (procedure)",
          "userSelected": true
        } ]
      } ],
      "subject": {
        "reference": "Patient/50270eff-f1ed-4cb3-b22b-467d89937c3a"
      },
      "period": {
        "start": "2027-05-01T05:00:00.000+00:00",
        "end": "2027-05-03T06:15:00.000+00:00"
      }
    },
    "request": {
      "method": "PUT",
      "url": "Encounter/5f2915ec-97a6-41f0-ab48-72f592c1a890"
    }
  }, {
    "fullUrl": "https://madie.cms.gov/ServiceRequest/b8f427e7-f423-469e-a3b9-a9a6972f634a",
    "resource": {
      "resourceType": "ServiceRequest",
      "id": "b8f427e7-f423-469e-a3b9-a9a6972f634a",
      "meta": {
        "profile": [ "http://hl7.org/fhir/us/qicore/StructureDefinition/qicore-servicerequest" ]
      },
      "status": "active",
      "intent": "order",
      "code": {
        "coding": [ {
          "system": "http://snomed.info/sct",
          "code": "5751000175101",
          "display": "Patient bed assigned (finding)",
          "userSelected": true
        } ]
      },
      "subject": {
        "reference": "Patient/50270eff-f1ed-4cb3-b22b-467d89937c3a"
      },
      "authoredOn": "2027-05-01T01:59:00.000+00:00"
    },
    "request": {
      "method": "PUT",
      "url": "ServiceRequest/b8f427e7-f423-469e-a3b9-a9a6972f634a"
    }
  }, {
    "fullUrl": "https://madie.cms.gov/Location/fd4eb096-3d77-4796-9aa2-b10b389791ef",
    "resource": {
      "resourceType": "Location",
      "id": "fd4eb096-3d77-4796-9aa2-b10b389791ef",
      "meta": {
        "profile": [ "http://hl7.org/fhir/us/qicore/StructureDefinition/qicore-location" ]
      },
      "identifier": [ {
        "use": "usual",
        "system": "http://exampleoflocation.com",
        "value": "B1-S.F2"
      } ],
      "name": "Medical Surgical East, first floor",
      "type": [ {
        "coding": [ {
          "system": "https://www.cdc.gov/nhsn/cdaportal/terminology/codesystem/hsloc.html",
          "version": "2022",
          "code": "1108-0",
          "display": "Emergency Department",
          "userSelected": true
        } ]
      } ]
    },
    "request": {
      "method": "PUT",
      "url": "Location/fd4eb096-3d77-4796-9aa2-b10b389791ef"
    }
  }, {
    "fullUrl": "https://madie.cms.gov/Claim/0033910b-3294-4315-8f7f-3bec21909a5b",
    "resource": {
      "resourceType": "Claim",
      "id": "0033910b-3294-4315-8f7f-3bec21909a5b",
      "meta": {
        "profile": [ "http://hl7.org/fhir/us/qicore/StructureDefinition/qicore-claim" ]
      },
      "status": "active",
      "type": {
        "coding": [ {
          "system": "http://terminology.hl7.org/CodeSystem/claim-type",
          "code": "institutional"
        } ]
      },
      "use": "claim",
      "patient": {
        "reference": "Patient/50270eff-f1ed-4cb3-b22b-467d89937c3a"
      },
      "created": "2027-05-01",
      "provider": {
        "reference": "Practitioner/1b9b2f5b-cb2a-46cc-adde-5a4252f66a5a"
      },
      "priority": {
        "coding": [ {
          "system": "http://terminology.hl7.org/CodeSystem/processpriority",
          "code": "normal"
        } ]
      },
      "diagnosis": [ {
        "sequence": 1,
        "diagnosisReference": {
          "reference": "Condition/a1a39a9c-133b-4bbb-a104-51c093e6246d"
        },
        "type": [ {
          "coding": [ {
            "system": "http://terminology.hl7.org/CodeSystem/ex-diagnosistype",
            "code": "principal"
          } ]
        } ]
      } ],
      "insurance": [ {
        "sequence": 1,
        "focal": true,
        "coverage": {
          "reference": "Coverage/62ac68f7-fe79-4440-842e-d3f2aed50443"
        }
      } ],
      "item": [ {
        "sequence": 1,
        "diagnosisSequence": [ 1 ],
        "productOrService": {
          "coding": [ {
            "system": "http://terminology.hl7.org/CodeSystem/ex-USCLS",
            "code": "99555"
          } ]
        },
        "encounter": [ {
          "reference": "Encounter/1e459651-ba49-4595-bb91-deff08a1a472"
        } ]
      } ]
    },
    "request": {
      "method": "PUT",
      "url": "Claim/0033910b-3294-4315-8f7f-3bec21909a5b"
    }
  }, {
    "fullUrl": "https://madie.cms.gov/Coverage/62ac68f7-fe79-4440-842e-d3f2aed50443",
    "resource": {
      "resourceType": "Coverage",
      "id": "62ac68f7-fe79-4440-842e-d3f2aed50443",
      "meta": {
        "profile": [ "http://hl7.org/fhir/us/qicore/StructureDefinition/qicore-coverage" ]
      },
      "identifier": [ {
        "type": {
          "coding": [ {
            "system": "http://terminology.hl7.org/CodeSystem/v2-0203",
            "code": "MB"
          } ]
        }
      } ],
      "status": "active",
      "beneficiary": {
        "reference": "Patient/50270eff-f1ed-4cb3-b22b-467d89937c3a"
      },
      "relationship": {
        "coding": [ {
          "system": "http://terminology.hl7.org/CodeSystem/subscriber-relationship",
          "code": "self"
        } ]
      },
      "payor": [ {
        "reference": "Organization/2dd2d500-7f1d-458c-b909-ffefaf093d94"
      } ]
    },
    "request": {
      "method": "PUT",
      "url": "Coverage/62ac68f7-fe79-4440-842e-d3f2aed50443"
    }
  }, {
    "fullUrl": "https://madie.cms.gov/Condition/a1a39a9c-133b-4bbb-a104-51c093e6246d",
    "resource": {
      "resourceType": "Condition",
      "id": "a1a39a9c-133b-4bbb-a104-51c093e6246d",
      "meta": {
        "profile": [ "http://hl7.org/fhir/us/qicore/StructureDefinition/qicore-condition-encounter-diagnosis" ]
      },
      "category": [ {
        "coding": [ {
          "system": "http://terminology.hl7.org/CodeSystem/condition-category",
          "code": "encounter-diagnosis",
          "display": "Encounter Diagnosis"
        } ]
      } ],
      "code": {
        "coding": [ {
          "system": "http://snomed.info/sct",
          "version": "2023-09",
          "code": "10674711000119105",
          "display": "Acute severe exacerbation of asthma co-occurrent with allergic rhinitis (disorder)",
          "userSelected": true
        } ]
      },
      "subject": {
        "reference": "Patient/50270eff-f1ed-4cb3-b22b-467d89937c3a"
      },
      "recordedDate": "2027-05-01T08:00:00.000+00:00"
    },
    "request": {
      "method": "PUT",
      "url": "Condition/a1a39a9c-133b-4bbb-a104-51c093e6246d"
    }
  }, {
    "fullUrl": "https://madie.cms.gov/Organization/2dd2d500-7f1d-458c-b909-ffefaf093d94",
    "resource": {
      "resourceType": "Organization",
      "id": "2dd2d500-7f1d-458c-b909-ffefaf093d94",
      "meta": {
        "profile": [ "http://hl7.org/fhir/us/qicore/StructureDefinition/qicore-organization" ]
      },
      "identifier": [ {
        "use": "temp",
        "system": "urn:oid:2.16.840.1.113883.4.4",
        "value": "21-3259825"
      } ],
      "active": true,
      "type": [ {
        "coding": [ {
          "system": "http://terminology.hl7.org/CodeSystem/organization-type",
          "code": "pay",
          "display": "Payer"
        } ]
      } ],
      "name": "Blue Cross Blue Shield of Texas",
      "telecom": [ {
        "system": "phone",
        "value": "(+1) 972-766-6900"
      } ],
      "address": [ {
        "use": "billing",
        "type": "postal",
        "line": [ "P.O. Box 660044" ],
        "city": "Dallas",
        "state": "TX",
        "postalCode": "75266-0044",
        "country": "USA"
      } ]
    },
    "request": {
      "method": "PUT",
      "url": "Organization/2dd2d500-7f1d-458c-b909-ffefaf093d94"
    }
  }, {
    "fullUrl": "https://madie.cms.gov/Practitioner/1b9b2f5b-cb2a-46cc-adde-5a4252f66a5a",
    "resource": {
      "resourceType": "Practitioner",
      "id": "1b9b2f5b-cb2a-46cc-adde-5a4252f66a5a",
      "meta": {
        "profile": [ "http://hl7.org/fhir/us/qicore/StructureDefinition/qicore-practitioner" ]
      },
      "identifier": [ {
        "system": "http://hl7.org/fhir/sid/us-npi",
        "value": "9999999896"
      } ],
      "name": [ {
        "family": "Evil",
        "prefix": [ "Dr" ]
      } ]
    },
    "request": {
      "method": "PUT",
      "url": "Practitioner/1b9b2f5b-cb2a-46cc-adde-5a4252f66a5a"
    }
  }, {
    "fullUrl": "https://madie.cms.gov/MeasureReport/6d5e1bec-5537-4b08-bf19-7a1d93d139ee",
    "resource": {
      "resourceType": "MeasureReport",
      "id": "6d5e1bec-5537-4b08-bf19-7a1d93d139ee",
      "meta": {
        "profile": [ "http://hl7.org/fhir/us/cqfmeasures/StructureDefinition/test-case-cqfm" ]
      },
      "contained": [ {
        "resourceType": "Parameters",
        "id": "42f6968e-5659-4bde-9943-24519a28145f-parameters",
        "parameter": [ {
          "name": "subject",
          "valueString": "50270eff-f1ed-4cb3-b22b-467d89937c3a"
        } ]
      } ],
      "extension": [ {
        "url": "http://hl7.org/fhir/StructureDefinition/cqf-inputParameters",
        "valueReference": {
          "reference": "#42f6968e-5659-4bde-9943-24519a28145f-parameters"
        }
      }, {
        "url": "http://hl7.org/fhir/us/cqfmeasures/StructureDefinition/cqfm-testCaseDescription",
        "valueMarkdown": "Encounter has allergic rhinitis, pt bed assigned at 240 minutes"
      } ],
      "modifierExtension": [ {
        "url": "http://hl7.org/fhir/us/cqfmeasures/StructureDefinition/cqfm-isTestCase",
        "valueBoolean": true
      } ],
      "status": "complete",
      "type": "individual",
      "measure": "https://madie.cms.gov/Measure/CMS1244FHIRECATHOQR",
      "period": {
        "start": "2027-01-01",
        "end": "2027-12-31"
      },
      "group": [ {
        "id": "Group_1",
        "population": [ {
          "id": "InitialPopulation_1",
          "code": {
            "coding": [ {
              "system": "http://terminology.hl7.org/CodeSystem/measure-population",
              "code": "initial-population",
              "display": "Initial Population"
            } ]
          },
          "count": 1
        }, {
          "id": "Denominator_1",
          "code": {
            "coding": [ {
              "system": "http://terminology.hl7.org/CodeSystem/measure-population",
              "code": "denominator",
              "display": "Denominator"
            } ]
          },
          "count": 1
        }, {
          "id": "Numerator_1",
          "code": {
            "coding": [ {
              "system": "http://terminology.hl7.org/CodeSystem/measure-population",
              "code": "numerator",
              "display": "Numerator"
            } ]
          },
          "count": 0
        } ],
        "measureScore": {
          "value": 0.0
        },
        "stratifier": [ {
          "id": "Stratification_1_1",
          "code": [ {
            "text": "Strata-1"
          } ],
          "stratum": [ {
            "value": {
              "text": "Strata-1"
            },
            "population": [ {
              "id": "InitialPopulation_1",
              "code": {
                "coding": [ {
                  "system": "http://terminology.hl7.org/CodeSystem/measure-population",
                  "code": "initial-population",
                  "display": "Initial Population"
                } ]
              },
              "count": 1
            }, {
              "id": "Denominator_1",
              "code": {
                "coding": [ {
                  "system": "http://terminology.hl7.org/CodeSystem/measure-population",
                  "code": "denominator",
                  "display": "Denominator"
                } ]
              },
              "count": 1
            }, {
              "id": "Numerator_1",
              "code": {
                "coding": [ {
                  "system": "http://terminology.hl7.org/CodeSystem/measure-population",
                  "code": "numerator",
                  "display": "Numerator"
                } ]
              },
              "count": 0
            } ]
          } ]
        }, {
          "id": "Stratification_1_2",
          "code": [ {
            "text": "Strata-2"
          } ],
          "stratum": [ {
            "value": {
              "text": "Strata-2"
            },
            "population": [ {
              "id": "InitialPopulation_1",
              "code": {
                "coding": [ {
                  "system": "http://terminology.hl7.org/CodeSystem/measure-population",
                  "code": "initial-population",
                  "display": "Initial Population"
                } ]
              },
              "count": 0
            }, {
              "id": "Denominator_1",
              "code": {
                "coding": [ {
                  "system": "http://terminology.hl7.org/CodeSystem/measure-population",
                  "code": "denominator",
                  "display": "Denominator"
                } ]
              },
              "count": 0
            }, {
              "id": "Numerator_1",
              "code": {
                "coding": [ {
                  "system": "http://terminology.hl7.org/CodeSystem/measure-population",
                  "code": "numerator",
                  "display": "Numerator"
                } ]
              },
              "count": 0
            } ]
          } ]
        }, {
          "id": "Stratification_1_3",
          "code": [ {
            "text": "Strata-3"
          } ],
          "stratum": [ {
            "value": {
              "text": "Strata-3"
            },
            "population": [ {
              "id": "InitialPopulation_1",
              "code": {
                "coding": [ {
                  "system": "http://terminology.hl7.org/CodeSystem/measure-population",
                  "code": "initial-population",
                  "display": "Initial Population"
                } ]
              },
              "count": 0
            }, {
              "id": "Denominator_1",
              "code": {
                "coding": [ {
                  "system": "http://terminology.hl7.org/CodeSystem/measure-population",
                  "code": "denominator",
                  "display": "Denominator"
                } ]
              },
              "count": 0
            }, {
              "id": "Numerator_1",
              "code": {
                "coding": [ {
                  "system": "http://terminology.hl7.org/CodeSystem/measure-population",
                  "code": "numerator",
                  "display": "Numerator"
                } ]
              },
              "count": 0
            } ]
          } ]
        }, {
          "id": "Stratification_1_4",
          "code": [ {
            "text": "Strata-4"
          } ],
          "stratum": [ {
            "value": {
              "text": "Strata-4"
            },
            "population": [ {
              "id": "InitialPopulation_1",
              "code": {
                "coding": [ {
                  "system": "http://terminology.hl7.org/CodeSystem/measure-population",
                  "code": "initial-population",
                  "display": "Initial Population"
                } ]
              },
              "count": 0
            }, {
              "id": "Denominator_1",
              "code": {
                "coding": [ {
                  "system": "http://terminology.hl7.org/CodeSystem/measure-population",
                  "code": "denominator",
                  "display": "Denominator"
                } ]
              },
              "count": 0
            }, {
              "id": "Numerator_1",
              "code": {
                "coding": [ {
                  "system": "http://terminology.hl7.org/CodeSystem/measure-population",
                  "code": "numerator",
                  "display": "Numerator"
                } ]
              },
              "count": 0
            } ]
          } ]
        } ]
      } ],
      "evaluatedResource": [ {
        "reference": "Patient/50270eff-f1ed-4cb3-b22b-467d89937c3a"
      }, {
        "reference": "Encounter/1e459651-ba49-4595-bb91-deff08a1a472"
      }, {
        "reference": "Encounter/5f2915ec-97a6-41f0-ab48-72f592c1a890"
      }, {
        "reference": "ServiceRequest/b8f427e7-f423-469e-a3b9-a9a6972f634a"
      }, {
        "reference": "Location/fd4eb096-3d77-4796-9aa2-b10b389791ef"
      }, {
        "reference": "Claim/0033910b-3294-4315-8f7f-3bec21909a5b"
      }, {
        "reference": "Coverage/62ac68f7-fe79-4440-842e-d3f2aed50443"
      }, {
        "reference": "Condition/a1a39a9c-133b-4bbb-a104-51c093e6246d"
      }, {
        "reference": "Organization/2dd2d500-7f1d-458c-b909-ffefaf093d94"
      }, {
        "reference": "Practitioner/1b9b2f5b-cb2a-46cc-adde-5a4252f66a5a"
      } ]
    },
    "request": {
      "method": "PUT",
      "url": "MeasureReport/6d5e1bec-5537-4b08-bf19-7a1d93d139ee"
    }
  } ]
}