{
  "resourceType": "Bundle",
  "id": "4c608c06-c958-11ed-aa7e-325096b39f47",
  "type": "collection",
  "entry": [ {
    "fullUrl": "https://madie.cms.gov/Patient/ae8b8236-bf9b-47f9-9c71-4655bca14aba",
    "resource": {
      "resourceType": "Patient",
      "id": "ae8b8236-bf9b-47f9-9c71-4655bca14aba",
      "meta": {
        "profile": [ "http://hl7.org/fhir/us/qicore/StructureDefinition/qicore-patient" ]
      },
      "extension": [ {
        "url": "http://hl7.org/fhir/us/core/StructureDefinition/us-core-race",
        "extension": [ {
          "url": "ombCategory",
          "valueCoding": {
            "system": "urn:oid:2.16.840.1.113883.6.238",
            "code": "2054-5",
            "display": "Black or African American"
          }
        }, {
          "url": "text",
          "valueString": "Black or African American"
        } ]
      }, {
        "url": "http://hl7.org/fhir/us/core/StructureDefinition/us-core-ethnicity",
        "extension": [ {
          "url": "ombCategory",
          "valueCoding": {
            "system": "urn:oid:2.16.840.1.113883.6.238",
            "code": "2135-2",
            "display": "Hispanic or Latino",
            "userSelected": true
          }
        }, {
          "url": "text",
          "valueString": "Hispanic or Latino"
        } ]
      }, {
        "url": "http://hl7.org/fhir/us/core/StructureDefinition/us-core-sex",
        "valueCode": "248153007"
      } ],
      "identifier": [ {
        "type": {
          "coding": [ {
            "system": "http://terminology.hl7.org/CodeSystem/v2-0203",
            "code": "MR"
          } ]
        },
        "system": "https://bonnie-fhir.healthit.gov/",
        "value": "900082319426"
      } ],
      "name": [ {
        "family": "DENEXPass",
        "given": [ "BPHDxDuringHospitalizationEnc" ]
      } ],
      "gender": "male",
      "birthDate": "1952-01-10"
    }
  }, {
    "fullUrl": "https://madie.cms.gov/Encounter/fc47bdfc-995e-4a61-bde1-42108b5fc352",
    "resource": {
      "resourceType": "Encounter",
      "id": "fc47bdfc-995e-4a61-bde1-42108b5fc352",
      "meta": {
        "profile": [ "http://hl7.org/fhir/us/qicore/StructureDefinition/qicore-encounter" ]
      },
      "status": "finished",
      "class": {
        "system": "http://terminology.hl7.org/CodeSystem/v3-ActCode",
        "code": "AMB",
        "display": "ambulatory"
      },
      "type": [ {
        "coding": [ {
          "system": "http://snomed.info/sct",
          "version": "http://snomed.info/sct/731000124108/version/20240301",
          "code": "185463005",
          "display": "Visit out of hours (procedure)",
          "userSelected": true
        } ]
      } ],
      "subject": {
        "reference": "Patient/ae8b8236-bf9b-47f9-9c71-4655bca14aba"
      },
      "period": {
        "start": "2026-05-01T08:00:00.000+00:00",
        "end": "2026-05-01T08:30:00.000+00:00"
      }
    }
  }, {
    "fullUrl": "https://madie.cms.gov/Encounter/698befc4-3080-477d-8ad5-7f87f32e8f2c",
    "resource": {
      "resourceType": "Encounter",
      "id": "698befc4-3080-477d-8ad5-7f87f32e8f2c",
      "meta": {
        "profile": [ "http://hl7.org/fhir/us/qicore/StructureDefinition/qicore-encounter" ]
      },
      "status": "finished",
      "class": {
        "system": "http://terminology.hl7.org/CodeSystem/v3-ActCode",
        "code": "IMP",
        "display": "inpatient encounter"
      },
      "type": [ {
        "coding": [ {
          "system": "http://www.ama-assn.org/go/cpt",
          "version": "2024",
          "code": "99223",
          "display": "Initial hospital inpatient or observation care, per day, for the evaluation and management of a patient, which requires a medically appropriate history and/or examination and high level of medical decision making. When using total time on the date of the encounter for code selection, 75 minutes must be met or exceeded.",
          "userSelected": true
        } ]
      } ],
      "subject": {
        "reference": "Patient/ae8b8236-bf9b-47f9-9c71-4655bca14aba"
      },
      "period": {
        "start": "2025-09-01T08:00:00.000+00:00",
        "end": "2025-09-03T08:30:00.000+00:00"
      }
    }
  }, {
    "fullUrl": "https://madie.cms.gov/Condition/5f3028b1-4980-4790-87ce-14a232224cc9",
    "resource": {
      "resourceType": "Condition",
      "id": "5f3028b1-4980-4790-87ce-14a232224cc9",
      "meta": {
        "profile": [ "http://hl7.org/fhir/us/qicore/StructureDefinition/qicore-condition-encounter-diagnosis" ]
      },
      "clinicalStatus": {
        "coding": [ {
          "system": "http://terminology.hl7.org/CodeSystem/condition-clinical",
          "code": "active",
          "display": "active",
          "userSelected": true
        } ]
      },
      "verificationStatus": {
        "coding": [ {
          "system": "http://terminology.hl7.org/CodeSystem/condition-ver-status",
          "code": "confirmed",
          "display": "Confirmed",
          "userSelected": true
        } ]
      },
      "category": [ {
        "coding": [ {
          "system": "http://terminology.hl7.org/CodeSystem/condition-category",
          "code": "encounter-diagnosis",
          "display": "Encounter Diagnosis"
        } ]
      } ],
      "code": {
        "coding": [ {
          "system": "http://hl7.org/fhir/sid/icd-10-cm",
          "version": "2024",
          "code": "N40.1",
          "display": "Benign prostatic hyperplasia with lower urinary tract symptoms",
          "userSelected": true
        } ]
      },
      "subject": {
        "reference": "Patient/ae8b8236-bf9b-47f9-9c71-4655bca14aba"
      },
      "encounter": {
        "reference": "Encounter/55509251"
      },
      "onsetPeriod": {
        "start": "2025-09-01T08:55:00.000+00:00"
      }
    }
  }, {
    "fullUrl": "https://madie.cms.gov/Observation/e6ff9cce-e087-4f08-ab28-faebfec659dc",
    "resource": {
      "resourceType": "Observation",
      "id": "e6ff9cce-e087-4f08-ab28-faebfec659dc",
      "meta": {
        "profile": [ "http://hl7.org/fhir/us/qicore/StructureDefinition/qicore-observation-screening-assessment" ]
      },
      "status": "final",
      "category": [ {
        "coding": [ {
          "system": "http://terminology.hl7.org/CodeSystem/observation-category",
          "code": "survey",
          "display": "Survey"
        } ]
      } ],
      "code": {
        "coding": [ {
          "system": "http://loinc.org",
          "version": "2.76",
          "code": "80976-4",
          "display": "International Prostate Symptom Score [IPSS]",
          "userSelected": true
        } ]
      },
      "subject": {
        "reference": "Patient/ae8b8236-bf9b-47f9-9c71-4655bca14aba"
      },
      "effectiveDateTime": "2025-10-01T08:15:00.000+00:00",
      "valueInteger": 5
    }
  }, {
    "fullUrl": "https://madie.cms.gov/Observation/f33af619-0c67-42d6-be40-7d20c0ca27e4",
    "resource": {
      "resourceType": "Observation",
      "id": "f33af619-0c67-42d6-be40-7d20c0ca27e4",
      "meta": {
        "profile": [ "http://hl7.org/fhir/us/qicore/StructureDefinition/qicore-observation-screening-assessment" ]
      },
      "status": "final",
      "category": [ {
        "coding": [ {
          "system": "http://terminology.hl7.org/CodeSystem/observation-category",
          "code": "survey",
          "display": "Survey"
        } ]
      } ],
      "code": {
        "coding": [ {
          "system": "http://loinc.org",
          "version": "2.76",
          "code": "80976-4",
          "display": "International Prostate Symptom Score [IPSS]",
          "userSelected": true
        } ]
      },
      "subject": {
        "reference": "Patient/ae8b8236-bf9b-47f9-9c71-4655bca14aba"
      },
      "effectiveDateTime": "2026-06-01T08:15:00.000+00:00",
      "valueInteger": 2
    }
  }, {
    "fullUrl": "https://madie.cms.gov/MeasureReport/f0531b23-00a9-4e08-a82d-c4bcf6fd4997",
    "resource": {
      "resourceType": "MeasureReport",
      "id": "f0531b23-00a9-4e08-a82d-c4bcf6fd4997",
      "meta": {
        "profile": [ "http://hl7.org/fhir/us/cqfmeasures/StructureDefinition/test-case-cqfm" ]
      },
      "contained": [ {
        "resourceType": "Parameters",
        "id": "86ac2eb5-b0ea-4abb-a890-da50f114c0f7-parameters",
        "parameter": [ {
          "name": "subject",
          "valueString": "ae8b8236-bf9b-47f9-9c71-4655bca14aba"
        } ]
      } ],
      "extension": [ {
        "url": "http://hl7.org/fhir/StructureDefinition/cqf-inputParameters",
        "valueReference": {
          "reference": "#86ac2eb5-b0ea-4abb-a890-da50f114c0f7-parameters"
        }
      }, {
        "url": "http://hl7.org/fhir/us/cqfmeasures/StructureDefinition/cqfm-testCaseDescription",
        "valueMarkdown": "Male Patient  with, Initial and Followup USS assessment but whose required BPH diagnosis occurs during a hospitalization ecncounter which qualifies as denominator exception"
      } ],
      "modifierExtension": [ {
        "url": "http://hl7.org/fhir/us/cqfmeasures/StructureDefinition/cqfm-isTestCase",
        "valueBoolean": true
      } ],
      "status": "complete",
      "type": "individual",
      "measure": "https://madie.cms.gov/Measure/CMS771FHIRUrinarySymptomScoreBPH",
      "period": {
        "start": "2026-01-01",
        "end": "2026-12-31"
      },
      "group": [ {
        "id": "Group_1",
        "population": [ {
          "id": "InitialPopulation_1",
          "code": {
            "coding": [ {
              "system": "http://terminology.hl7.org/CodeSystem/measure-population",
              "code": "initial-population",
              "display": "Initial Population"
            } ]
          },
          "count": 1
        }, {
          "id": "Denominator_1",
          "code": {
            "coding": [ {
              "system": "http://terminology.hl7.org/CodeSystem/measure-population",
              "code": "denominator",
              "display": "Denominator"
            } ]
          },
          "count": 1
        }, {
          "id": "DenominatorExclusion_1",
          "code": {
            "coding": [ {
              "system": "http://terminology.hl7.org/CodeSystem/measure-population",
              "code": "denominator-exclusion",
              "display": "Denominator Exclusion"
            } ]
          },
          "count": 1
        }, {
          "id": "Numerator_1",
          "code": {
            "coding": [ {
              "system": "http://terminology.hl7.org/CodeSystem/measure-population",
              "code": "numerator",
              "display": "Numerator"
            } ]
          },
          "count": 0
        } ],
        "measureScore": {
          "value": 1.0
        }
      } ],
      "evaluatedResource": [ {
        "reference": "Patient/ae8b8236-bf9b-47f9-9c71-4655bca14aba"
      }, {
        "reference": "Encounter/fc47bdfc-995e-4a61-bde1-42108b5fc352"
      }, {
        "reference": "Encounter/698befc4-3080-477d-8ad5-7f87f32e8f2c"
      }, {
        "reference": "Condition/5f3028b1-4980-4790-87ce-14a232224cc9"
      }, {
        "reference": "Observation/e6ff9cce-e087-4f08-ab28-faebfec659dc"
      }, {
        "reference": "Observation/f33af619-0c67-42d6-be40-7d20c0ca27e4"
      } ]
    }
  } ]
}