{
  "resourceType": "Bundle",
  "id": "6109650598086b538055a0e5",
  "type": "transaction",
  "entry": [ {
    "fullUrl": "https://madie.cms.gov/Patient/4540ff15-1dbd-4335-8e7e-5123f8c31325",
    "resource": {
      "resourceType": "Patient",
      "id": "4540ff15-1dbd-4335-8e7e-5123f8c31325",
      "meta": {
        "profile": [ "http://hl7.org/fhir/us/qicore/StructureDefinition/qicore-patient" ]
      },
      "text": {
        "status": "generated",
        "div": "<div xmlns=\"http://www.w3.org/1999/xhtml\"><div class=\"hapiHeaderText\">AgeOver17OneDayb4EncOV <b>IPPFAIL </b></div><table class=\"hapiPropertyTable\"><tbody><tr><td>Identifier</td><td>ecb7400db0285610789093dec8549617</td></tr><tr><td>Date of birth</td><td><span>31 December 1994</span></td></tr></tbody></table></div>"
      },
      "extension": [ {
        "url": "http://hl7.org/fhir/us/core/StructureDefinition/us-core-race",
        "extension": [ {
          "url": "ombCategory",
          "valueCoding": {
            "system": "urn:oid:2.16.840.1.113883.6.238",
            "code": "1002-5",
            "display": "American Indian or Alaska Native",
            "userSelected": true
          }
        }, {
          "url": "text",
          "valueString": "American Indian or Alaska Native"
        } ]
      }, {
        "url": "http://hl7.org/fhir/us/core/StructureDefinition/us-core-ethnicity",
        "extension": [ {
          "url": "ombCategory",
          "valueCoding": {
            "system": "urn:oid:2.16.840.1.113883.6.238",
            "code": "2186-5",
            "display": "Not Hispanic or Latino",
            "userSelected": true
          }
        }, {
          "url": "text",
          "valueString": "Not Hispanic or Latino"
        } ]
      } ],
      "identifier": [ {
        "type": {
          "coding": [ {
            "system": "http://terminology.hl7.org/CodeSystem/v2-0203",
            "code": "MR"
          } ]
        },
        "system": "https://bonnie-fhir.healthit.gov/",
        "value": "6109650598086b538055a0e5"
      } ],
      "active": true,
      "name": [ {
        "use": "usual",
        "family": "IPFail",
        "given": [ "AgeOver17OneDayb4EncOV" ]
      } ],
      "gender": "male",
      "birthDate": "2008-12-31"
    },
    "request": {
      "method": "PUT",
      "url": "Patient/4540ff15-1dbd-4335-8e7e-5123f8c31325"
    }
  }, {
    "fullUrl": "https://madie.cms.gov/Encounter/757ace7b-5219-4322-8b4c-6cf9f5526f80",
    "resource": {
      "resourceType": "Encounter",
      "id": "757ace7b-5219-4322-8b4c-6cf9f5526f80",
      "status": "finished",
      "class": {
        "system": "http://terminology.hl7.org/CodeSystem/v3-ActCode",
        "code": "AMB",
        "display": "ambulatory",
        "userSelected": true
      },
      "type": [ {
        "coding": [ {
          "system": "http://www.ama-assn.org/go/cpt",
          "code": "99205",
          "userSelected": true
        } ]
      } ],
      "subject": {
        "reference": "Patient/4540ff15-1dbd-4335-8e7e-5123f8c31325"
      },
      "period": {
        "start": "2027-01-01T08:59:00.000+00:00",
        "end": "2027-01-01T09:59:00.000+00:00"
      },
      "length": {
        "value": 0.0,
        "unit": "days"
      },
      "diagnosis": [ {
        "condition": {
          "reference": "Condition/86bb6314-a468-4ab2-81cd-7c1697300de1"
        },
        "use": {
          "coding": [ {
            "system": "http://snomed.info/sct",
            "version": "2022-09",
            "code": "16264821000119108",
            "display": "Recurrent severe major depressive disorder co-occurrent with anxiety (disorder)",
            "userSelected": true
          } ]
        }
      } ]
    },
    "request": {
      "method": "PUT",
      "url": "Encounter/757ace7b-5219-4322-8b4c-6cf9f5526f80"
    }
  }, {
    "fullUrl": "https://madie.cms.gov/Condition/86bb6314-a468-4ab2-81cd-7c1697300de1",
    "resource": {
      "resourceType": "Condition",
      "id": "86bb6314-a468-4ab2-81cd-7c1697300de1",
      "category": [ {
        "coding": [ {
          "system": "http://terminology.hl7.org/CodeSystem/condition-category",
          "code": "encounter-diagnosis",
          "display": "encounter-diagnosis",
          "userSelected": true
        } ]
      } ],
      "code": {
        "coding": [ {
          "system": "http://snomed.info/sct",
          "version": "2022-09",
          "code": "10811121000119102",
          "display": "Major depressive disorder in mother complicating childbirth (disorder)",
          "userSelected": true
        } ]
      },
      "subject": {
        "reference": "Patient/4540ff15-1dbd-4335-8e7e-5123f8c31325"
      },
      "recordedDate": "2027-01-01T09:00:00.000+00:00"
    },
    "request": {
      "method": "PUT",
      "url": "Condition/86bb6314-a468-4ab2-81cd-7c1697300de1"
    }
  }, {
    "fullUrl": "https://madie.cms.gov/Coverage/b4bab328-ed28-44ac-a276-113f6d60d3d8",
    "resource": {
      "resourceType": "Coverage",
      "id": "b4bab328-ed28-44ac-a276-113f6d60d3d8",
      "status": "active",
      "type": {
        "coding": [ {
          "system": "http://www.nlm.nih.gov/research/umls/sop",
          "version": "9.2",
          "code": "1",
          "display": "MEDICARE",
          "userSelected": true
        } ]
      },
      "beneficiary": {
        "reference": "Patient/4540ff15-1dbd-4335-8e7e-5123f8c31325"
      },
      "period": {
        "start": "2027-01-01T08:00:00.000+00:00",
        "end": "2027-03-29T08:15:00.000+00:00"
      },
      "payor": [ {
        "reference": "Organization/a220a6aa-dcf5-479e-a6e0-eb84c813e0f7"
      } ]
    },
    "request": {
      "method": "PUT",
      "url": "Coverage/b4bab328-ed28-44ac-a276-113f6d60d3d8"
    }
  }, {
    "fullUrl": "https://madie.cms.gov/Organization/a220a6aa-dcf5-479e-a6e0-eb84c813e0f7",
    "resource": {
      "resourceType": "Organization",
      "id": "a220a6aa-dcf5-479e-a6e0-eb84c813e0f7",
      "meta": {
        "profile": [ "http://hl7.org/fhir/us/qicore/StructureDefinition/qicore-organization" ]
      },
      "identifier": [ {
        "use": "temp",
        "system": "urn:oid:2.16.840.1.113883.4.4",
        "value": "21-3259825"
      } ],
      "active": true,
      "type": [ {
        "coding": [ {
          "system": "http://terminology.hl7.org/CodeSystem/organization-type",
          "code": "pay",
          "display": "Payer"
        } ]
      } ],
      "name": "Blue Cross Blue Shield of Texas",
      "telecom": [ {
        "system": "phone",
        "value": "(+1) 972-766-6900"
      } ],
      "address": [ {
        "use": "billing",
        "type": "postal",
        "line": [ "P.O. Box 660044" ],
        "city": "Dallas",
        "state": "TX",
        "postalCode": "75266-0044",
        "country": "USA"
      } ]
    },
    "request": {
      "method": "PUT",
      "url": "Organization/a220a6aa-dcf5-479e-a6e0-eb84c813e0f7"
    }
  }, {
    "fullUrl": "https://madie.cms.gov/Practitioner/233c8010-3247-4e6d-8d98-83c58a3653d6",
    "resource": {
      "resourceType": "Practitioner",
      "id": "233c8010-3247-4e6d-8d98-83c58a3653d6",
      "identifier": [ {
        "system": "http://hl7.org/fhir/sid/us-npi",
        "value": "123456"
      } ],
      "name": [ {
        "family": "Evil",
        "prefix": [ "Dr" ]
      } ]
    },
    "request": {
      "method": "PUT",
      "url": "Practitioner/233c8010-3247-4e6d-8d98-83c58a3653d6"
    }
  }, {
    "fullUrl": "https://madie.cms.gov/MeasureReport/1379d4a6-8275-44c4-924a-8b5dd27a5a79",
    "resource": {
      "resourceType": "MeasureReport",
      "id": "1379d4a6-8275-44c4-924a-8b5dd27a5a79",
      "meta": {
        "profile": [ "http://hl7.org/fhir/us/cqfmeasures/StructureDefinition/test-case-cqfm" ]
      },
      "contained": [ {
        "resourceType": "Parameters",
        "id": "ae12a884-16fd-4b64-b187-83b2262b9622-parameters",
        "parameter": [ {
          "name": "subject",
          "valueString": "4540ff15-1dbd-4335-8e7e-5123f8c31325"
        } ]
      } ],
      "extension": [ {
        "url": "http://hl7.org/fhir/StructureDefinition/cqf-inputParameters",
        "valueReference": {
          "reference": "#ae12a884-16fd-4b64-b187-83b2262b9622-parameters"
        }
      }, {
        "url": "http://hl7.org/fhir/us/cqfmeasures/StructureDefinition/cqfm-testCaseDescription",
        "valueMarkdown": "Patient is 17 years 1 day on Dec 31 and completed an Office Visit during the MP"
      } ],
      "modifierExtension": [ {
        "url": "http://hl7.org/fhir/us/cqfmeasures/StructureDefinition/cqfm-isTestCase",
        "valueBoolean": true
      } ],
      "status": "complete",
      "type": "individual",
      "measure": "https://madie.cms.gov/Measure/CMS177FHIRChildMDDSuicideAssmt",
      "period": {
        "start": "2026-01-01",
        "end": "2026-12-31"
      },
      "group": [ {
        "id": "Group_1",
        "population": [ {
          "id": "InitialPopulation_1",
          "code": {
            "coding": [ {
              "system": "http://terminology.hl7.org/CodeSystem/measure-population",
              "code": "initial-population",
              "display": "Initial Population"
            } ]
          },
          "count": 0
        }, {
          "id": "Denominator_1",
          "code": {
            "coding": [ {
              "system": "http://terminology.hl7.org/CodeSystem/measure-population",
              "code": "denominator",
              "display": "Denominator"
            } ]
          },
          "count": 0
        }, {
          "id": "Numerator_1",
          "code": {
            "coding": [ {
              "system": "http://terminology.hl7.org/CodeSystem/measure-population",
              "code": "numerator",
              "display": "Numerator"
            } ]
          },
          "count": 0
        } ],
        "measureScore": {
          "value": 0.0
        }
      } ],
      "evaluatedResource": [ {
        "reference": "Patient/4540ff15-1dbd-4335-8e7e-5123f8c31325"
      }, {
        "reference": "Encounter/757ace7b-5219-4322-8b4c-6cf9f5526f80"
      }, {
        "reference": "Condition/86bb6314-a468-4ab2-81cd-7c1697300de1"
      }, {
        "reference": "Coverage/b4bab328-ed28-44ac-a276-113f6d60d3d8"
      }, {
        "reference": "Organization/a220a6aa-dcf5-479e-a6e0-eb84c813e0f7"
      }, {
        "reference": "Practitioner/233c8010-3247-4e6d-8d98-83c58a3653d6"
      } ]
    },
    "request": {
      "method": "PUT",
      "url": "MeasureReport/1379d4a6-8275-44c4-924a-8b5dd27a5a79"
    }
  } ]
}