{
  "resourceType": "Bundle",
  "id": "4646131313",
  "type": "collection",
  "entry": [ {
    "fullUrl": "https://madie.cms.gov/Patient/7f62a1c0-a39c-41b7-98b6-5877db9755b0",
    "resource": {
      "resourceType": "Patient",
      "id": "7f62a1c0-a39c-41b7-98b6-5877db9755b0",
      "meta": {
        "profile": [ "http://hl7.org/fhir/us/qicore/StructureDefinition/qicore-patient" ]
      },
      "extension": [ {
        "url": "http://hl7.org/fhir/us/core/StructureDefinition/us-core-race",
        "extension": [ {
          "url": "ombCategory",
          "valueCoding": {
            "system": "urn:oid:2.16.840.1.113883.6.238",
            "code": "1002-5",
            "display": "American Indian or Alaska Native"
          }
        }, {
          "url": "text",
          "valueString": "American Indian or Alaska Native"
        } ]
      }, {
        "url": "http://hl7.org/fhir/us/core/StructureDefinition/us-core-ethnicity",
        "extension": [ {
          "url": "ombCategory",
          "valueCoding": {
            "system": "urn:oid:2.16.840.1.113883.6.238",
            "code": "2135-2",
            "display": "Hispanic or Latino"
          }
        }, {
          "url": "text",
          "valueString": "Hispanic or Latino"
        } ]
      }, {
        "url": "http://hl7.org/fhir/us/core/StructureDefinition/us-core-sex",
        "valueCode": "248153007"
      } ],
      "identifier": [ {
        "type": {
          "coding": [ {
            "system": "http://terminology.hl7.org/CodeSystem/v2-0203",
            "code": "MR"
          } ]
        },
        "system": "https://bonnie-fhir.healthit.gov/",
        "value": "3513413131355"
      } ],
      "active": true,
      "name": [ {
        "use": "usual",
        "family": "NUMERFail",
        "given": [ "USSImprovementof2" ]
      } ],
      "gender": "male",
      "birthDate": "1948-02-19"
    }
  }, {
    "fullUrl": "https://madie.cms.gov/Observation/f9f309b2-251e-4d31-bcda-82551c1d4acf",
    "resource": {
      "resourceType": "Observation",
      "id": "f9f309b2-251e-4d31-bcda-82551c1d4acf",
      "meta": {
        "profile": [ "http://hl7.org/fhir/us/qicore/StructureDefinition/qicore-observation-screening-assessment" ]
      },
      "status": "final",
      "category": [ {
        "coding": [ {
          "system": "http://terminology.hl7.org/CodeSystem/observation-category",
          "code": "survey",
          "display": "Survey"
        } ]
      } ],
      "code": {
        "coding": [ {
          "system": "http://loinc.org",
          "version": "2.76",
          "code": "80976-4"
        } ]
      },
      "subject": {
        "reference": "Patient/7f62a1c0-a39c-41b7-98b6-5877db9755b0"
      },
      "effectivePeriod": {
        "start": "2026-01-30T08:00:00.000+00:00"
      },
      "valueInteger": 12
    }
  }, {
    "fullUrl": "https://madie.cms.gov/Observation/e2a1baad-953b-45c4-a0d7-77d6ef64ca4b",
    "resource": {
      "resourceType": "Observation",
      "id": "e2a1baad-953b-45c4-a0d7-77d6ef64ca4b",
      "meta": {
        "profile": [ "http://hl7.org/fhir/us/qicore/StructureDefinition/qicore-observation-screening-assessment" ]
      },
      "status": "final",
      "category": [ {
        "coding": [ {
          "system": "http://terminology.hl7.org/CodeSystem/observation-category",
          "code": "survey",
          "display": "Survey"
        } ]
      } ],
      "code": {
        "coding": [ {
          "system": "http://loinc.org",
          "version": "2.76",
          "code": "80976-4"
        } ]
      },
      "subject": {
        "reference": "Patient/7f62a1c0-a39c-41b7-98b6-5877db9755b0"
      },
      "effectivePeriod": {
        "start": "2026-11-06T08:00:00.000+00:00"
      },
      "valueInteger": 10
    }
  }, {
    "fullUrl": "https://madie.cms.gov/Condition/772baae0-4fad-460d-8c8a-b454b44746a0",
    "resource": {
      "resourceType": "Condition",
      "id": "772baae0-4fad-460d-8c8a-b454b44746a0",
      "meta": {
        "profile": [ "http://hl7.org/fhir/us/qicore/StructureDefinition/qicore-condition-problems-health-concerns" ]
      },
      "clinicalStatus": {
        "coding": [ {
          "system": "http://terminology.hl7.org/CodeSystem/condition-clinical",
          "code": "resolved"
        } ]
      },
      "verificationStatus": {
        "coding": [ {
          "system": "http://terminology.hl7.org/CodeSystem/condition-ver-status",
          "code": "confirmed"
        } ]
      },
      "category": [ {
        "coding": [ {
          "system": "http://terminology.hl7.org/CodeSystem/condition-category",
          "code": "problem-list-item",
          "display": "Problem List Item"
        } ]
      } ],
      "code": {
        "coding": [ {
          "system": "http://hl7.org/fhir/sid/icd-10-cm",
          "version": "2024",
          "code": "Z68.42"
        } ]
      },
      "subject": {
        "reference": "Patient/7f62a1c0-a39c-41b7-98b6-5877db9755b0"
      },
      "onsetDateTime": "2024-02-28T08:00:00.000+00:00",
      "abatementDateTime": "2025-06-28T08:15:00.000+00:00"
    }
  }, {
    "fullUrl": "https://madie.cms.gov/Condition/2070ce4c-04cc-453b-8726-9859a9b52b89",
    "resource": {
      "resourceType": "Condition",
      "id": "2070ce4c-04cc-453b-8726-9859a9b52b89",
      "meta": {
        "profile": [ "http://hl7.org/fhir/us/qicore/StructureDefinition/qicore-condition-problems-health-concerns" ]
      },
      "clinicalStatus": {
        "coding": [ {
          "system": "http://terminology.hl7.org/CodeSystem/condition-clinical",
          "code": "active"
        } ]
      },
      "verificationStatus": {
        "coding": [ {
          "system": "http://terminology.hl7.org/CodeSystem/condition-ver-status",
          "code": "confirmed"
        } ]
      },
      "category": [ {
        "coding": [ {
          "system": "http://terminology.hl7.org/CodeSystem/condition-category",
          "code": "problem-list-item",
          "display": "Problem List Item"
        } ]
      } ],
      "code": {
        "coding": [ {
          "system": "http://hl7.org/fhir/sid/icd-10-cm",
          "version": "2024",
          "code": "N40.1"
        } ]
      },
      "subject": {
        "reference": "Patient/7f62a1c0-a39c-41b7-98b6-5877db9755b0"
      },
      "onsetPeriod": {
        "start": "2025-12-30T08:00:00.000+00:00"
      }
    }
  }, {
    "fullUrl": "https://madie.cms.gov/Encounter/a189b8fa-632a-40b1-ab60-1fdb470ad4b9",
    "resource": {
      "resourceType": "Encounter",
      "id": "a189b8fa-632a-40b1-ab60-1fdb470ad4b9",
      "meta": {
        "profile": [ "http://hl7.org/fhir/us/qicore/StructureDefinition/qicore-encounter" ]
      },
      "status": "finished",
      "class": {
        "system": "http://terminology.hl7.org/CodeSystem/v3-ActCode",
        "code": "AMB",
        "display": "ambulatory"
      },
      "type": [ {
        "coding": [ {
          "system": "http://www.ama-assn.org/go/cpt",
          "version": "2024",
          "code": "99213"
        } ]
      } ],
      "subject": {
        "reference": "Patient/7f62a1c0-a39c-41b7-98b6-5877db9755b0"
      },
      "period": {
        "start": "2026-01-30T08:00:00.000+00:00",
        "end": "2026-01-30T08:15:00.000+00:00"
      }
    }
  }, {
    "fullUrl": "https://madie.cms.gov/MeasureReport/14e9aa8e-65fa-426d-b386-b49b8fa35f39",
    "resource": {
      "resourceType": "MeasureReport",
      "id": "14e9aa8e-65fa-426d-b386-b49b8fa35f39",
      "meta": {
        "profile": [ "http://hl7.org/fhir/us/cqfmeasures/StructureDefinition/test-case-cqfm" ]
      },
      "contained": [ {
        "resourceType": "Parameters",
        "id": "2e32b974-a161-4157-930b-ce29bf58acb1-parameters",
        "parameter": [ {
          "name": "subject",
          "valueString": "7f62a1c0-a39c-41b7-98b6-5877db9755b0"
        } ]
      } ],
      "extension": [ {
        "url": "http://hl7.org/fhir/StructureDefinition/cqf-inputParameters",
        "valueReference": {
          "reference": "#2e32b974-a161-4157-930b-ce29bf58acb1-parameters"
        }
      }, {
        "url": "http://hl7.org/fhir/us/cqfmeasures/StructureDefinition/cqfm-testCaseDescription",
        "valueMarkdown": "Male Patient with BPH Diagnosis and initial and followup assessments but with the followup assessment failing a symptom score improvement of 3 required for the numerator."
      } ],
      "modifierExtension": [ {
        "url": "http://hl7.org/fhir/us/cqfmeasures/StructureDefinition/cqfm-isTestCase",
        "valueBoolean": true
      } ],
      "status": "complete",
      "type": "individual",
      "measure": "https://madie.cms.gov/Measure/CMS771FHIRUrinarySymptomScoreBPH",
      "period": {
        "start": "2026-01-01",
        "end": "2026-12-31"
      },
      "group": [ {
        "id": "Group_1",
        "population": [ {
          "id": "InitialPopulation_1",
          "code": {
            "coding": [ {
              "system": "http://terminology.hl7.org/CodeSystem/measure-population",
              "code": "initial-population",
              "display": "Initial Population"
            } ]
          },
          "count": 1
        }, {
          "id": "Denominator_1",
          "code": {
            "coding": [ {
              "system": "http://terminology.hl7.org/CodeSystem/measure-population",
              "code": "denominator",
              "display": "Denominator"
            } ]
          },
          "count": 1
        }, {
          "id": "DenominatorExclusion_1",
          "code": {
            "coding": [ {
              "system": "http://terminology.hl7.org/CodeSystem/measure-population",
              "code": "denominator-exclusion",
              "display": "Denominator Exclusion"
            } ]
          },
          "count": 0
        }, {
          "id": "Numerator_1",
          "code": {
            "coding": [ {
              "system": "http://terminology.hl7.org/CodeSystem/measure-population",
              "code": "numerator",
              "display": "Numerator"
            } ]
          },
          "count": 0
        } ],
        "measureScore": {
          "value": 1.0
        }
      } ],
      "evaluatedResource": [ {
        "reference": "Patient/7f62a1c0-a39c-41b7-98b6-5877db9755b0"
      }, {
        "reference": "Observation/f9f309b2-251e-4d31-bcda-82551c1d4acf"
      }, {
        "reference": "Observation/e2a1baad-953b-45c4-a0d7-77d6ef64ca4b"
      }, {
        "reference": "Condition/772baae0-4fad-460d-8c8a-b454b44746a0"
      }, {
        "reference": "Condition/2070ce4c-04cc-453b-8726-9859a9b52b89"
      }, {
        "reference": "Encounter/a189b8fa-632a-40b1-ab60-1fdb470ad4b9"
      } ]
    }
  } ]
}