{
  "resourceType": "Bundle",
  "id": "612e6aec02c62a011f2ebc65",
  "type": "transaction",
  "entry": [ {
    "fullUrl": "https://madie.cms.gov/Patient/ea49dc35-7378-4436-aa37-53ec9f13b05d",
    "resource": {
      "resourceType": "Patient",
      "id": "ea49dc35-7378-4436-aa37-53ec9f13b05d",
      "meta": {
        "profile": [ "http://hl7.org/fhir/us/qicore/StructureDefinition/qicore-patient" ]
      },
      "text": {
        "status": "generated",
        "div": "<div xmlns=\"http://www.w3.org/1999/xhtml\"><div class=\"hapiHeaderText\">TestMultipleOccur_2inNum <b>NUMERPASS </b></div><table class=\"hapiPropertyTable\"><tbody><tr><td>Identifier</td><td>a426534591df58c75882b8cd079c574a27466a15aa34f3b521510f2fa1bc133b</td></tr><tr><td>Date of birth</td><td><span>02 January 1974</span></td></tr></tbody></table></div>"
      },
      "extension": [ {
        "url": "http://hl7.org/fhir/us/core/StructureDefinition/us-core-race",
        "extension": [ {
          "url": "ombCategory",
          "valueCoding": {
            "system": "urn:oid:2.16.840.1.113883.6.238",
            "code": "1002-5",
            "display": "American Indian or Alaska Native",
            "userSelected": true
          }
        }, {
          "url": "text",
          "valueString": "American Indian or Alaska Native"
        } ]
      }, {
        "url": "http://hl7.org/fhir/us/core/StructureDefinition/us-core-ethnicity",
        "extension": [ {
          "url": "ombCategory",
          "valueCoding": {
            "system": "urn:oid:2.16.840.1.113883.6.238",
            "code": "2135-2",
            "display": "Hispanic or Latino",
            "userSelected": true
          }
        }, {
          "url": "text",
          "valueString": "Hispanic or Latino"
        } ]
      } ],
      "identifier": [ {
        "type": {
          "coding": [ {
            "system": "http://terminology.hl7.org/CodeSystem/v2-0203",
            "code": "MR"
          } ]
        },
        "system": "https://bonnie-fhir.healthit.gov/",
        "value": "612e6aec02c62a011f2ebc65"
      } ],
      "active": true,
      "name": [ {
        "use": "usual",
        "family": "NUMERPass",
        "given": [ "TestMultipleOccur2inNum" ]
      } ],
      "gender": "male",
      "birthDate": "1975-01-02"
    },
    "request": {
      "method": "PUT",
      "url": "Patient/ea49dc35-7378-4436-aa37-53ec9f13b05d"
    }
  }, {
    "fullUrl": "https://madie.cms.gov/Encounter/e3e68e22-d290-45bd-a219-13986429b1e4",
    "resource": {
      "resourceType": "Encounter",
      "id": "e3e68e22-d290-45bd-a219-13986429b1e4",
      "meta": {
        "profile": [ "http://hl7.org/fhir/us/qicore/StructureDefinition/qicore-encounter" ]
      },
      "status": "finished",
      "class": {
        "system": "http://terminology.hl7.org/CodeSystem/v3-ActCode",
        "code": "IMP",
        "display": "inpatient encounter"
      },
      "type": [ {
        "coding": [ {
          "system": "http://snomed.info/sct",
          "code": "183452005"
        } ]
      } ],
      "subject": {
        "reference": "Patient/ea49dc35-7378-4436-aa37-53ec9f13b05d"
      },
      "period": {
        "start": "2026-04-01T08:00:00.000+00:00",
        "end": "2026-04-05T08:15:00.000+00:00"
      },
      "length": {
        "value": 4,
        "unit": "days"
      }
    },
    "request": {
      "method": "PUT",
      "url": "Encounter/e3e68e22-d290-45bd-a219-13986429b1e4"
    }
  }, {
    "fullUrl": "https://madie.cms.gov/Encounter/a55e50e7-e205-4a19-af30-65c255423efc",
    "resource": {
      "resourceType": "Encounter",
      "id": "a55e50e7-e205-4a19-af30-65c255423efc",
      "meta": {
        "profile": [ "http://hl7.org/fhir/us/qicore/StructureDefinition/qicore-encounter" ]
      },
      "status": "finished",
      "class": {
        "system": "http://terminology.hl7.org/CodeSystem/v3-ActCode",
        "code": "IMP",
        "display": "inpatient encounter"
      },
      "type": [ {
        "coding": [ {
          "system": "http://snomed.info/sct",
          "code": "8715000"
        } ]
      } ],
      "subject": {
        "reference": "Patient/ea49dc35-7378-4436-aa37-53ec9f13b05d"
      },
      "period": {
        "start": "2026-11-01T08:00:00.000+00:00",
        "end": "2026-11-26T08:15:00.000+00:00"
      },
      "length": {
        "value": 25,
        "unit": "days"
      }
    },
    "request": {
      "method": "PUT",
      "url": "Encounter/a55e50e7-e205-4a19-af30-65c255423efc"
    }
  }, {
    "fullUrl": "https://madie.cms.gov/Coverage/258586b4-d3b3-4263-929d-b27019908448",
    "resource": {
      "resourceType": "Coverage",
      "id": "258586b4-d3b3-4263-929d-b27019908448",
      "status": "active",
      "beneficiary": {
        "reference": "Patient/ea49dc35-7378-4436-aa37-53ec9f13b05d"
      },
      "period": {
        "start": "1975-01-02T08:00:00.000+00:00"
      },
      "payor": [ {
        "reference": "Organization/9f9d949b-3f6b-4c1e-ae12-5df416d9a552"
      } ]
    },
    "request": {
      "method": "PUT",
      "url": "Coverage/258586b4-d3b3-4263-929d-b27019908448"
    }
  }, {
    "fullUrl": "https://madie.cms.gov/MedicationAdministration/e8f41516-c552-47d6-97af-b2e3f41e1755",
    "resource": {
      "resourceType": "MedicationAdministration",
      "id": "e8f41516-c552-47d6-97af-b2e3f41e1755",
      "meta": {
        "profile": [ "http://hl7.org/fhir/us/qicore/StructureDefinition/qicore-medicationadministration" ]
      },
      "status": "completed",
      "medicationCodeableConcept": {
        "coding": [ {
          "system": "http://www.nlm.nih.gov/research/umls/rxnorm",
          "code": "200349"
        } ]
      },
      "subject": {
        "reference": "Patient/ea49dc35-7378-4436-aa37-53ec9f13b05d"
      },
      "effectivePeriod": {
        "start": "2026-11-01T07:00:00.000+00:00"
      }
    },
    "request": {
      "method": "PUT",
      "url": "MedicationAdministration/e8f41516-c552-47d6-97af-b2e3f41e1755"
    }
  }, {
    "fullUrl": "https://madie.cms.gov/Procedure/4a1f78b9-4ed9-4a5e-9f10-fec9b5760e07",
    "resource": {
      "resourceType": "Procedure",
      "id": "4a1f78b9-4ed9-4a5e-9f10-fec9b5760e07",
      "meta": {
        "profile": [ "http://hl7.org/fhir/us/qicore/StructureDefinition/qicore-procedure" ]
      },
      "extension": [ {
        "url": "http://hl7.org/fhir/us/qicore/StructureDefinition/qicore-recorded",
        "valueDateTime": "2013-11-01T13:35:00.000+00:00"
      } ],
      "status": "completed",
      "code": {
        "coding": [ {
          "system": "http://snomed.info/sct",
          "code": "442410008",
          "display": "Application of venous foot pump (procedure)"
        } ]
      },
      "subject": {
        "reference": "Patient/ea49dc35-7378-4436-aa37-53ec9f13b05d"
      },
      "performedPeriod": {
        "start": "2026-04-01T08:00:00.000+00:00",
        "end": "2026-04-01T08:15:00.000+00:00"
      }
    },
    "request": {
      "method": "PUT",
      "url": "Procedure/4a1f78b9-4ed9-4a5e-9f10-fec9b5760e07"
    }
  }, {
    "fullUrl": "https://madie.cms.gov/Organization/9f9d949b-3f6b-4c1e-ae12-5df416d9a552",
    "resource": {
      "resourceType": "Organization",
      "id": "9f9d949b-3f6b-4c1e-ae12-5df416d9a552",
      "meta": {
        "profile": [ "http://hl7.org/fhir/us/qicore/StructureDefinition/qicore-organization" ]
      },
      "identifier": [ {
        "use": "temp",
        "system": "urn:oid:2.16.840.1.113883.4.4",
        "value": "21-3259825"
      } ],
      "active": true,
      "type": [ {
        "coding": [ {
          "system": "http://terminology.hl7.org/CodeSystem/organization-type",
          "code": "pay",
          "display": "Payer"
        } ]
      } ],
      "name": "Blue Cross Blue Shield of Texas",
      "telecom": [ {
        "system": "phone",
        "value": "(+1) 972-766-6900"
      } ],
      "address": [ {
        "use": "billing",
        "type": "postal",
        "line": [ "P.O. Box 660044" ],
        "city": "Dallas",
        "state": "TX",
        "postalCode": "75266-0044",
        "country": "USA"
      } ]
    },
    "request": {
      "method": "PUT",
      "url": "Organization/9f9d949b-3f6b-4c1e-ae12-5df416d9a552"
    }
  }, {
    "fullUrl": "https://madie.cms.gov/Practitioner/d1c2bb0f-1c72-4ed1-9b76-555240f09c81",
    "resource": {
      "resourceType": "Practitioner",
      "id": "d1c2bb0f-1c72-4ed1-9b76-555240f09c81",
      "identifier": [ {
        "system": "http://hl7.org/fhir/sid/us-npi",
        "value": "123456"
      } ],
      "name": [ {
        "family": "Evil",
        "prefix": [ "Dr" ]
      } ]
    },
    "request": {
      "method": "PUT",
      "url": "Practitioner/d1c2bb0f-1c72-4ed1-9b76-555240f09c81"
    }
  }, {
    "fullUrl": "https://madie.cms.gov/MeasureReport/4c45a75c-a6f4-41e2-bbc0-357d5074b30c",
    "resource": {
      "resourceType": "MeasureReport",
      "id": "4c45a75c-a6f4-41e2-bbc0-357d5074b30c",
      "meta": {
        "profile": [ "http://hl7.org/fhir/us/cqfmeasures/StructureDefinition/test-case-cqfm" ]
      },
      "contained": [ {
        "resourceType": "Parameters",
        "id": "44bbf851-3709-456b-bcfc-78f3fb921ea3-parameters",
        "parameter": [ {
          "name": "subject",
          "valueString": "ea49dc35-7378-4436-aa37-53ec9f13b05d"
        } ]
      } ],
      "extension": [ {
        "url": "http://hl7.org/fhir/StructureDefinition/cqf-inputParameters",
        "valueReference": {
          "reference": "#44bbf851-3709-456b-bcfc-78f3fb921ea3-parameters"
        }
      }, {
        "url": "http://hl7.org/fhir/us/cqfmeasures/StructureDefinition/cqfm-testCaseDescription",
        "valueMarkdown": "TestMultipleOccur - 2 occurrences both pass NUMERATOR - even 2nd one Medication: Administered: Glycoprotein IIb/IIIa Inhibitors was prior to Adm but it still passes due to on the day of adm\n"
      } ],
      "modifierExtension": [ {
        "url": "http://hl7.org/fhir/us/cqfmeasures/StructureDefinition/cqfm-isTestCase",
        "valueBoolean": true
      } ],
      "status": "complete",
      "type": "individual",
      "measure": "https://madie.cms.gov/Measure/CMS108FHIRVTEProphylaxis",
      "period": {
        "start": "2026-01-01",
        "end": "2026-12-31"
      },
      "group": [ {
        "id": "Group_1",
        "population": [ {
          "id": "InitialPopulation_1",
          "code": {
            "coding": [ {
              "system": "http://terminology.hl7.org/CodeSystem/measure-population",
              "code": "initial-population",
              "display": "Initial Population"
            } ]
          },
          "count": 2
        }, {
          "id": "Denominator_1",
          "code": {
            "coding": [ {
              "system": "http://terminology.hl7.org/CodeSystem/measure-population",
              "code": "denominator",
              "display": "Denominator"
            } ]
          },
          "count": 2
        }, {
          "id": "DenominatorExclusion_1",
          "code": {
            "coding": [ {
              "system": "http://terminology.hl7.org/CodeSystem/measure-population",
              "code": "denominator-exclusion",
              "display": "Denominator Exclusion"
            } ]
          },
          "count": 0
        }, {
          "id": "Numerator_1",
          "code": {
            "coding": [ {
              "system": "http://terminology.hl7.org/CodeSystem/measure-population",
              "code": "numerator",
              "display": "Numerator"
            } ]
          },
          "count": 2
        } ],
        "measureScore": {
          "value": 0.0
        }
      } ],
      "evaluatedResource": [ {
        "reference": "Patient/ea49dc35-7378-4436-aa37-53ec9f13b05d"
      }, {
        "reference": "Encounter/e3e68e22-d290-45bd-a219-13986429b1e4"
      }, {
        "reference": "Encounter/a55e50e7-e205-4a19-af30-65c255423efc"
      }, {
        "reference": "Coverage/258586b4-d3b3-4263-929d-b27019908448"
      }, {
        "reference": "MedicationAdministration/e8f41516-c552-47d6-97af-b2e3f41e1755"
      }, {
        "reference": "Procedure/4a1f78b9-4ed9-4a5e-9f10-fec9b5760e07"
      }, {
        "reference": "Organization/9f9d949b-3f6b-4c1e-ae12-5df416d9a552"
      }, {
        "reference": "Practitioner/d1c2bb0f-1c72-4ed1-9b76-555240f09c81"
      } ]
    },
    "request": {
      "method": "PUT",
      "url": "MeasureReport/4c45a75c-a6f4-41e2-bbc0-357d5074b30c"
    }
  } ]
}