{
  "resourceType": "Bundle",
  "id": "612e6b8102c62a011f2ee0a5",
  "type": "transaction",
  "entry": [ {
    "fullUrl": "https://madie.cms.gov/Patient/541ccffb-c1be-4c94-ab24-168d52e3a36b",
    "resource": {
      "resourceType": "Patient",
      "id": "541ccffb-c1be-4c94-ab24-168d52e3a36b",
      "meta": {
        "profile": [ "http://hl7.org/fhir/us/qicore/StructureDefinition/qicore-patient" ]
      },
      "text": {
        "status": "generated",
        "div": "<div xmlns=\"http://www.w3.org/1999/xhtml\"><div class=\"hapiHeaderText\">MedReason_MA_Rix_DA_VFP_DuringOBS <b>NUMERPASS </b></div><table class=\"hapiPropertyTable\"><tbody><tr><td>Identifier</td><td>d5661b6a7ac7a6b9f13847d23af8475a</td></tr><tr><td>Date of birth</td><td><span>02 January 1974</span></td></tr></tbody></table></div>"
      },
      "extension": [ {
        "url": "http://hl7.org/fhir/us/core/StructureDefinition/us-core-race",
        "extension": [ {
          "url": "ombCategory",
          "valueCoding": {
            "system": "urn:oid:2.16.840.1.113883.6.238",
            "code": "1002-5",
            "display": "American Indian or Alaska Native",
            "userSelected": true
          }
        }, {
          "url": "text",
          "valueString": "American Indian or Alaska Native"
        } ]
      }, {
        "url": "http://hl7.org/fhir/us/core/StructureDefinition/us-core-ethnicity",
        "extension": [ {
          "url": "ombCategory",
          "valueCoding": {
            "system": "urn:oid:2.16.840.1.113883.6.238",
            "code": "2135-2",
            "display": "Hispanic or Latino",
            "userSelected": true
          }
        }, {
          "url": "text",
          "valueString": "Hispanic or Latino"
        } ]
      } ],
      "identifier": [ {
        "type": {
          "coding": [ {
            "system": "http://terminology.hl7.org/CodeSystem/v2-0203",
            "code": "MR"
          } ]
        },
        "system": "https://bonnie-fhir.healthit.gov/",
        "value": "612e6b8102c62a011f2ee0a5"
      } ],
      "active": true,
      "name": [ {
        "use": "usual",
        "family": "NUMERPass",
        "given": [ "MedReasonMARixDAVFPDuringOBS" ]
      } ],
      "gender": "male",
      "birthDate": "1975-01-02"
    },
    "request": {
      "method": "PUT",
      "url": "Patient/541ccffb-c1be-4c94-ab24-168d52e3a36b"
    }
  }, {
    "fullUrl": "https://madie.cms.gov/Encounter/f6639fd1-b1b3-4c30-97cd-dc849412c811",
    "resource": {
      "resourceType": "Encounter",
      "id": "f6639fd1-b1b3-4c30-97cd-dc849412c811",
      "meta": {
        "profile": [ "http://hl7.org/fhir/us/qicore/StructureDefinition/qicore-encounter" ]
      },
      "status": "finished",
      "class": {
        "system": "http://terminology.hl7.org/CodeSystem/v3-ActCode",
        "code": "OBSENC",
        "display": "observation encounter"
      },
      "type": [ {
        "coding": [ {
          "system": "http://snomed.info/sct",
          "code": "448951000124107"
        } ]
      } ],
      "subject": {
        "reference": "Patient/541ccffb-c1be-4c94-ab24-168d52e3a36b"
      },
      "period": {
        "start": "2026-10-31T05:00:00.000+00:00",
        "end": "2026-11-01T08:00:00.000+00:00"
      },
      "length": {
        "value": 1,
        "unit": "days"
      }
    },
    "request": {
      "method": "PUT",
      "url": "Encounter/f6639fd1-b1b3-4c30-97cd-dc849412c811"
    }
  }, {
    "fullUrl": "https://madie.cms.gov/Encounter/4fb62f64-8620-43f5-9981-0a797f7a1be9",
    "resource": {
      "resourceType": "Encounter",
      "id": "4fb62f64-8620-43f5-9981-0a797f7a1be9",
      "meta": {
        "profile": [ "http://hl7.org/fhir/us/qicore/StructureDefinition/qicore-encounter" ]
      },
      "status": "finished",
      "class": {
        "system": "http://terminology.hl7.org/CodeSystem/v3-ActCode",
        "code": "IMP",
        "display": "inpatient encounter"
      },
      "type": [ {
        "coding": [ {
          "system": "http://snomed.info/sct",
          "code": "8715000"
        } ]
      } ],
      "subject": {
        "reference": "Patient/541ccffb-c1be-4c94-ab24-168d52e3a36b"
      },
      "period": {
        "start": "2026-11-01T08:00:00.000+00:00",
        "end": "2026-11-26T08:15:00.000+00:00"
      },
      "length": {
        "value": 25,
        "unit": "days"
      }
    },
    "request": {
      "method": "PUT",
      "url": "Encounter/4fb62f64-8620-43f5-9981-0a797f7a1be9"
    }
  }, {
    "fullUrl": "https://madie.cms.gov/Coverage/d2a3cd55-51a8-45b1-918e-c32e215da3fd",
    "resource": {
      "resourceType": "Coverage",
      "id": "d2a3cd55-51a8-45b1-918e-c32e215da3fd",
      "status": "active",
      "beneficiary": {
        "reference": "Patient/541ccffb-c1be-4c94-ab24-168d52e3a36b"
      },
      "period": {
        "start": "1975-01-02T08:00:00.000+00:00"
      },
      "payor": [ {
        "reference": "Organization/82d9305a-ac74-4b0b-8de7-36754375bd29"
      } ]
    },
    "request": {
      "method": "PUT",
      "url": "Coverage/d2a3cd55-51a8-45b1-918e-c32e215da3fd"
    }
  }, {
    "fullUrl": "https://madie.cms.gov/Procedure/bc4fdcbb-a4fa-4ae4-aaa1-9863241188c1",
    "resource": {
      "resourceType": "Procedure",
      "id": "bc4fdcbb-a4fa-4ae4-aaa1-9863241188c1",
      "meta": {
        "profile": [ "http://hl7.org/fhir/us/qicore/StructureDefinition/qicore-procedurenotdone" ]
      },
      "extension": [ {
        "url": "http://hl7.org/fhir/us/qicore/StructureDefinition/qicore-recorded",
        "valueDateTime": "2026-10-31T11:35:00.000+00:00"
      } ],
      "status": "not-done",
      "statusReason": {
        "coding": [ {
          "system": "http://snomed.info/sct",
          "code": "183932001",
          "display": "Procedure contraindicated (situation)",
          "userSelected": true
        } ]
      },
      "code": {
        "coding": [ {
          "system": "http://snomed.info/sct",
          "code": "424831005",
          "display": "Application of foot pump (procedure)",
          "userSelected": true
        } ]
      },
      "subject": {
        "reference": "Patient/541ccffb-c1be-4c94-ab24-168d52e3a36b"
      },
      "_performedDateTime": {
        "extension": [ {
          "url": "http://hl7.org/fhir/StructureDefinition/data-absent-reason",
          "valueCode": "not-performed"
        } ]
      }
    },
    "request": {
      "method": "PUT",
      "url": "Procedure/bc4fdcbb-a4fa-4ae4-aaa1-9863241188c1"
    }
  }, {
    "fullUrl": "https://madie.cms.gov/MedicationAdministration/a56001ca-9433-4853-85b5-236ec547086c",
    "resource": {
      "resourceType": "MedicationAdministration",
      "id": "a56001ca-9433-4853-85b5-236ec547086c",
      "meta": {
        "profile": [ "http://hl7.org/fhir/us/qicore/StructureDefinition/qicore-medicationadministrationnotdone" ]
      },
      "extension": [ {
        "url": "http://hl7.org/fhir/us/qicore/StructureDefinition/qicore-recorded",
        "valueDateTime": "2026-10-31T07:00:00.000+00:00"
      } ],
      "status": "not-done",
      "statusReason": [ {
        "coding": [ {
          "system": "http://snomed.info/sct",
          "code": "183932001",
          "display": "Procedure contraindicated (situation)",
          "userSelected": true
        } ]
      } ],
      "medicationCodeableConcept": {
        "coding": [ {
          "system": "http://www.nlm.nih.gov/research/umls/rxnorm",
          "code": "2588062",
          "display": "rivaroxaban 1 MG/ML Oral Suspension"
        } ]
      },
      "subject": {
        "reference": "Patient/541ccffb-c1be-4c94-ab24-168d52e3a36b"
      },
      "effectivePeriod": {
        "start": "2026-10-31T07:00:00.000+00:00"
      }
    },
    "request": {
      "method": "PUT",
      "url": "MedicationAdministration/a56001ca-9433-4853-85b5-236ec547086c"
    }
  }, {
    "fullUrl": "https://madie.cms.gov/Organization/82d9305a-ac74-4b0b-8de7-36754375bd29",
    "resource": {
      "resourceType": "Organization",
      "id": "82d9305a-ac74-4b0b-8de7-36754375bd29",
      "meta": {
        "profile": [ "http://hl7.org/fhir/us/qicore/StructureDefinition/qicore-organization" ]
      },
      "identifier": [ {
        "use": "temp",
        "system": "urn:oid:2.16.840.1.113883.4.4",
        "value": "21-3259825"
      } ],
      "active": true,
      "type": [ {
        "coding": [ {
          "system": "http://terminology.hl7.org/CodeSystem/organization-type",
          "code": "pay",
          "display": "Payer"
        } ]
      } ],
      "name": "Blue Cross Blue Shield of Texas",
      "telecom": [ {
        "system": "phone",
        "value": "(+1) 972-766-6900"
      } ],
      "address": [ {
        "use": "billing",
        "type": "postal",
        "line": [ "P.O. Box 660044" ],
        "city": "Dallas",
        "state": "TX",
        "postalCode": "75266-0044",
        "country": "USA"
      } ]
    },
    "request": {
      "method": "PUT",
      "url": "Organization/82d9305a-ac74-4b0b-8de7-36754375bd29"
    }
  }, {
    "fullUrl": "https://madie.cms.gov/Practitioner/5fc5155e-b9cd-4302-bf80-0db5efa6c94e",
    "resource": {
      "resourceType": "Practitioner",
      "id": "5fc5155e-b9cd-4302-bf80-0db5efa6c94e",
      "identifier": [ {
        "system": "http://hl7.org/fhir/sid/us-npi",
        "value": "123456"
      } ],
      "name": [ {
        "family": "Evil",
        "prefix": [ "Dr" ]
      } ]
    },
    "request": {
      "method": "PUT",
      "url": "Practitioner/5fc5155e-b9cd-4302-bf80-0db5efa6c94e"
    }
  }, {
    "fullUrl": "https://madie.cms.gov/MeasureReport/4b90a8ef-2db7-4e28-aba4-d5404f17eb18",
    "resource": {
      "resourceType": "MeasureReport",
      "id": "4b90a8ef-2db7-4e28-aba4-d5404f17eb18",
      "meta": {
        "profile": [ "http://hl7.org/fhir/us/cqfmeasures/StructureDefinition/test-case-cqfm" ]
      },
      "contained": [ {
        "resourceType": "Parameters",
        "id": "8b535736-a1d7-49d2-ab3b-73dd97562a2d-parameters",
        "parameter": [ {
          "name": "subject",
          "valueString": "541ccffb-c1be-4c94-ab24-168d52e3a36b"
        } ]
      } ],
      "extension": [ {
        "url": "http://hl7.org/fhir/StructureDefinition/cqf-inputParameters",
        "valueReference": {
          "reference": "#8b535736-a1d7-49d2-ab3b-73dd97562a2d-parameters"
        }
      }, {
        "url": "http://hl7.org/fhir/us/cqfmeasures/StructureDefinition/cqfm-testCaseDescription",
        "valueMarkdown": "medical reasons for not receiving VFP devices and Rivaroxaban in OBS\n"
      } ],
      "modifierExtension": [ {
        "url": "http://hl7.org/fhir/us/cqfmeasures/StructureDefinition/cqfm-isTestCase",
        "valueBoolean": true
      } ],
      "status": "complete",
      "type": "individual",
      "measure": "https://madie.cms.gov/Measure/CMS108FHIRVTEProphylaxis",
      "period": {
        "start": "2026-01-01",
        "end": "2026-12-31"
      },
      "group": [ {
        "id": "Group_1",
        "population": [ {
          "id": "InitialPopulation_1",
          "code": {
            "coding": [ {
              "system": "http://terminology.hl7.org/CodeSystem/measure-population",
              "code": "initial-population",
              "display": "Initial Population"
            } ]
          },
          "count": 1
        }, {
          "id": "Denominator_1",
          "code": {
            "coding": [ {
              "system": "http://terminology.hl7.org/CodeSystem/measure-population",
              "code": "denominator",
              "display": "Denominator"
            } ]
          },
          "count": 1
        }, {
          "id": "DenominatorExclusion_1",
          "code": {
            "coding": [ {
              "system": "http://terminology.hl7.org/CodeSystem/measure-population",
              "code": "denominator-exclusion",
              "display": "Denominator Exclusion"
            } ]
          },
          "count": 0
        }, {
          "id": "Numerator_1",
          "code": {
            "coding": [ {
              "system": "http://terminology.hl7.org/CodeSystem/measure-population",
              "code": "numerator",
              "display": "Numerator"
            } ]
          },
          "count": 1
        } ],
        "measureScore": {
          "value": 0.0
        }
      } ],
      "evaluatedResource": [ {
        "reference": "Patient/541ccffb-c1be-4c94-ab24-168d52e3a36b"
      }, {
        "reference": "Encounter/f6639fd1-b1b3-4c30-97cd-dc849412c811"
      }, {
        "reference": "Encounter/4fb62f64-8620-43f5-9981-0a797f7a1be9"
      }, {
        "reference": "Coverage/d2a3cd55-51a8-45b1-918e-c32e215da3fd"
      }, {
        "reference": "Procedure/bc4fdcbb-a4fa-4ae4-aaa1-9863241188c1"
      }, {
        "reference": "MedicationAdministration/a56001ca-9433-4853-85b5-236ec547086c"
      }, {
        "reference": "Organization/82d9305a-ac74-4b0b-8de7-36754375bd29"
      }, {
        "reference": "Practitioner/5fc5155e-b9cd-4302-bf80-0db5efa6c94e"
      } ]
    },
    "request": {
      "method": "PUT",
      "url": "MeasureReport/4b90a8ef-2db7-4e28-aba4-d5404f17eb18"
    }
  } ]
}