{
  "resourceType": "Bundle",
  "id": "62fd2c9e32e2f917c3627d87",
  "type": "collection",
  "entry": [ {
    "fullUrl": "https://madie.cms.gov/Patient/dcdb253e-ebd6-4c16-b632-9a56bcec4541",
    "resource": {
      "resourceType": "Patient",
      "id": "dcdb253e-ebd6-4c16-b632-9a56bcec4541",
      "meta": {
        "profile": [ "http://hl7.org/fhir/us/qicore/StructureDefinition/qicore-patient" ]
      },
      "extension": [ {
        "url": "http://hl7.org/fhir/us/core/StructureDefinition/us-core-race",
        "extension": [ {
          "url": "ombCategory",
          "valueCoding": {
            "system": "urn:oid:2.16.840.1.113883.6.238",
            "code": "1002-5",
            "display": "American Indian or Alaska Native",
            "userSelected": true
          }
        }, {
          "url": "text",
          "valueString": "American Indian or Alaska Native"
        } ]
      }, {
        "url": "http://hl7.org/fhir/us/core/StructureDefinition/us-core-ethnicity",
        "extension": [ {
          "url": "ombCategory",
          "valueCoding": {
            "system": "urn:oid:2.16.840.1.113883.6.238",
            "code": "2135-2",
            "display": "Hispanic or Latino",
            "userSelected": true
          }
        }, {
          "url": "text",
          "valueString": "Hispanic or Latino"
        } ]
      } ],
      "identifier": [ {
        "type": {
          "coding": [ {
            "system": "http://terminology.hl7.org/CodeSystem/v2-0203",
            "code": "MR"
          } ]
        },
        "system": "https://bonnie-fhir.healthit.gov/",
        "value": "62fd2c9e32e2f917c3627d87"
      } ],
      "name": [ {
        "family": "NUMERFail",
        "given": [ "BoneScanOverlapsStartMP" ]
      } ],
      "gender": "male",
      "birthDate": "1987-02-27"
    }
  }, {
    "fullUrl": "https://madie.cms.gov/Condition/8c1acf31-3cd6-4c52-aa65-ce65ae5c7595",
    "resource": {
      "resourceType": "Condition",
      "id": "8c1acf31-3cd6-4c52-aa65-ce65ae5c7595",
      "meta": {
        "profile": [ "http://hl7.org/fhir/us/qicore/StructureDefinition/qicore-condition-problems-health-concerns" ]
      },
      "clinicalStatus": {
        "coding": [ {
          "system": "http://terminology.hl7.org/CodeSystem/condition-clinical",
          "code": "active",
          "display": "active",
          "userSelected": true
        } ]
      },
      "category": [ {
        "coding": [ {
          "system": "http://terminology.hl7.org/CodeSystem/condition-category",
          "code": "problem-list-item",
          "display": "Problem List Item"
        }, {
          "system": "http://snomed.info/sct",
          "code": "439401001",
          "display": "Diagnosis"
        } ]
      } ],
      "code": {
        "coding": [ {
          "system": "http://snomed.info/sct",
          "code": "254900004",
          "display": "Carcinoma of prostate (disorder)",
          "userSelected": true
        } ]
      },
      "subject": {
        "reference": "Patient/dcdb253e-ebd6-4c16-b632-9a56bcec4541"
      },
      "onsetDateTime": "2025-01-07T08:00:00.000+00:00",
      "recordedDate": "2026-06-02T08:00:00.000+00:00"
    }
  }, {
    "fullUrl": "https://madie.cms.gov/Procedure/4c71b669-cf91-455f-8f32-817a9329e272",
    "resource": {
      "resourceType": "Procedure",
      "id": "4c71b669-cf91-455f-8f32-817a9329e272",
      "meta": {
        "profile": [ "http://hl7.org/fhir/us/qicore/StructureDefinition/qicore-procedure" ]
      },
      "extension": [ {
        "url": "http://hl7.org/fhir/us/qicore/StructureDefinition/qicore-recorded",
        "valueDateTime": "2026-02-01T09:00:00.000+00:00"
      } ],
      "status": "completed",
      "code": {
        "coding": [ {
          "system": "http://snomed.info/sct",
          "code": "38915000",
          "display": "Radionuclide therapy for gland ablation (procedure)",
          "userSelected": true
        } ]
      },
      "subject": {
        "reference": "Patient/dcdb253e-ebd6-4c16-b632-9a56bcec4541"
      },
      "performedDateTime": "2026-06-02T08:00:00.000+00:00"
    }
  }, {
    "fullUrl": "https://madie.cms.gov/Observation/0e8c7b3a-c171-4bd5-a7ec-29c821f5d35d",
    "resource": {
      "resourceType": "Observation",
      "id": "0e8c7b3a-c171-4bd5-a7ec-29c821f5d35d",
      "meta": {
        "profile": [ "http://hl7.org/fhir/us/qicore/StructureDefinition/qicore-observation-lab" ]
      },
      "status": "final",
      "category": [ {
        "coding": [ {
          "system": "http://terminology.hl7.org/CodeSystem/observation-category",
          "code": "laboratory",
          "display": "Laboratory"
        } ]
      } ],
      "code": {
        "coding": [ {
          "system": "http://loinc.org",
          "version": "2.72",
          "code": "2857-1",
          "display": "Prostate specific Ag [Mass/volume] in Serum or Plasma",
          "userSelected": true
        } ]
      },
      "subject": {
        "reference": "Patient/dcdb253e-ebd6-4c16-b632-9a56bcec4541"
      },
      "effectiveDateTime": "2026-01-07T08:00:00.000+00:00",
      "issued": "2026-04-02T08:00:00.000+00:00",
      "valueQuantity": {
        "value": 8,
        "system": "http://unitsofmeasure.org",
        "code": "ng/mL"
      }
    }
  }, {
    "fullUrl": "https://madie.cms.gov/Observation/a057288f-bb28-4800-8249-24f06b0c371a",
    "resource": {
      "resourceType": "Observation",
      "id": "a057288f-bb28-4800-8249-24f06b0c371a",
      "meta": {
        "profile": [ "http://hl7.org/fhir/us/qicore/StructureDefinition/qicore-observation-clinical-result" ]
      },
      "status": "final",
      "category": [ {
        "coding": [ {
          "system": "http://terminology.hl7.org/CodeSystem/observation-category",
          "code": "procedure",
          "display": "Procedure"
        } ]
      } ],
      "code": {
        "coding": [ {
          "system": "http://loinc.org",
          "code": "35266-6",
          "display": "Gleason score in Specimen Qualitative",
          "userSelected": true
        } ]
      },
      "subject": {
        "reference": "Patient/dcdb253e-ebd6-4c16-b632-9a56bcec4541"
      },
      "effectivePeriod": {
        "start": "2026-04-02T08:00:00.000+00:00"
      },
      "issued": "2026-04-02T08:00:00.000+00:00",
      "valueInteger": 5
    }
  }, {
    "fullUrl": "https://madie.cms.gov/Observation/fef2f4f8-d22c-4200-a57e-06f5aeba277e",
    "resource": {
      "resourceType": "Observation",
      "id": "fef2f4f8-d22c-4200-a57e-06f5aeba277e",
      "meta": {
        "profile": [ "http://hl7.org/fhir/us/qicore/StructureDefinition/qicore-observation-clinical-result" ]
      },
      "status": "final",
      "category": [ {
        "coding": [ {
          "system": "http://terminology.hl7.org/CodeSystem/observation-category",
          "code": "procedure",
          "display": "Procedure"
        } ]
      } ],
      "code": {
        "coding": [ {
          "system": "http://snomed.info/sct",
          "code": "254292007",
          "display": "Tumor staging (tumor staging)",
          "userSelected": true
        } ]
      },
      "subject": {
        "reference": "Patient/dcdb253e-ebd6-4c16-b632-9a56bcec4541"
      },
      "focus": [ {
        "reference": "Condition/8c1acf31-3cd6-4c52-aa65-ce65ae5c7595"
      } ],
      "effectivePeriod": {
        "start": "2026-02-07T08:00:00.000+00:00"
      },
      "issued": "2026-02-02T08:00:00.000+00:00",
      "valueCodeableConcept": {
        "coding": [ {
          "system": "http://snomed.info/sct",
          "code": "1228892002",
          "display": "American Joint Committee on Cancer cT1a (qualifier value)",
          "userSelected": true
        } ]
      }
    }
  }, {
    "fullUrl": "https://madie.cms.gov/Observation/b0d99405-4a86-4978-8323-f3c59d93defa",
    "resource": {
      "resourceType": "Observation",
      "id": "b0d99405-4a86-4978-8323-f3c59d93defa",
      "meta": {
        "profile": [ "http://hl7.org/fhir/us/qicore/StructureDefinition/qicore-observation-clinical-result" ]
      },
      "status": "final",
      "category": [ {
        "coding": [ {
          "system": "http://terminology.hl7.org/CodeSystem/observation-category",
          "code": "procedure",
          "display": "Procedure"
        } ]
      } ],
      "code": {
        "coding": [ {
          "system": "http://loinc.org",
          "version": "2.72",
          "code": "25031-6",
          "display": "NM Bone Views",
          "userSelected": true
        } ]
      },
      "subject": {
        "reference": "Patient/dcdb253e-ebd6-4c16-b632-9a56bcec4541"
      },
      "effectivePeriod": {
        "start": "2026-12-31T08:00:00.000+00:00",
        "end": "2027-01-01T08:00:00.000+00:00"
      },
      "valueString": "Normal results found"
    }
  }, {
    "fullUrl": "https://madie.cms.gov/Coverage/7a42420a-4bec-462a-a99b-403346f4bfd2",
    "resource": {
      "resourceType": "Coverage",
      "id": "7a42420a-4bec-462a-a99b-403346f4bfd2",
      "meta": {
        "profile": [ "http://hl7.org/fhir/us/qicore/StructureDefinition/qicore-coverage" ]
      },
      "status": "active",
      "subscriberId": "123456789",
      "beneficiary": {
        "reference": "Patient/dcdb253e-ebd6-4c16-b632-9a56bcec4541"
      },
      "relationship": {
        "coding": [ {
          "system": "http://terminology.hl7.org/CodeSystem/subscriber-relationship",
          "code": "self",
          "display": "Self",
          "userSelected": true
        } ]
      },
      "payor": [ {
        "reference": "Organization/eb317321-e57b-43d8-888a-6023b9684cb8"
      } ]
    }
  }, {
    "fullUrl": "https://madie.cms.gov/Organization/eb317321-e57b-43d8-888a-6023b9684cb8",
    "resource": {
      "resourceType": "Organization",
      "id": "eb317321-e57b-43d8-888a-6023b9684cb8",
      "meta": {
        "profile": [ "http://hl7.org/fhir/us/qicore/StructureDefinition/qicore-organization" ]
      },
      "identifier": [ {
        "use": "temp",
        "system": "urn:oid:2.16.840.1.113883.4.4",
        "value": "21-3259825"
      } ],
      "active": true,
      "type": [ {
        "coding": [ {
          "system": "http://terminology.hl7.org/CodeSystem/organization-type",
          "code": "pay",
          "display": "Payer"
        } ]
      } ],
      "name": "Blue Cross Blue Shield of Texas",
      "telecom": [ {
        "system": "phone",
        "value": "(+1) 972-766-6900"
      } ],
      "address": [ {
        "use": "billing",
        "type": "postal",
        "line": [ "P.O. Box 660044" ],
        "city": "Dallas",
        "state": "TX",
        "postalCode": "75266-0044",
        "country": "USA"
      } ]
    }
  }, {
    "fullUrl": "https://madie.cms.gov/Practitioner/e71dffaa-4fc0-4868-9257-2c71a40d61f8",
    "resource": {
      "resourceType": "Practitioner",
      "id": "e71dffaa-4fc0-4868-9257-2c71a40d61f8",
      "meta": {
        "profile": [ "http://hl7.org/fhir/us/qicore/StructureDefinition/qicore-practitioner" ]
      },
      "identifier": [ {
        "system": "http://hl7.org/fhir/sid/us-npi",
        "value": "1234567893"
      } ],
      "name": [ {
        "family": "Evil",
        "prefix": [ "Dr" ]
      } ]
    }
  }, {
    "fullUrl": "https://madie.cms.gov/MeasureReport/03b0ed8c-d3b8-4b57-b252-d1220c97965d",
    "resource": {
      "resourceType": "MeasureReport",
      "id": "03b0ed8c-d3b8-4b57-b252-d1220c97965d",
      "meta": {
        "profile": [ "http://hl7.org/fhir/us/cqfmeasures/StructureDefinition/test-case-cqfm" ]
      },
      "contained": [ {
        "resourceType": "Parameters",
        "id": "aed80a30-20af-482e-9f82-7d6c2542f1e6-parameters",
        "parameter": [ {
          "name": "subject",
          "valueString": "dcdb253e-ebd6-4c16-b632-9a56bcec4541"
        } ]
      } ],
      "extension": [ {
        "url": "http://hl7.org/fhir/StructureDefinition/cqf-inputParameters",
        "valueReference": {
          "reference": "#aed80a30-20af-482e-9f82-7d6c2542f1e6-parameters"
        }
      }, {
        "url": "http://hl7.org/fhir/us/cqfmeasures/StructureDefinition/cqfm-testCaseDescription",
        "valueMarkdown": "Bone scan overlaps end of MP where BoneScan ends after MP so numerator will pass. \n\n*Inside test, name indicates fail  \"BoneScanOverlapsStartMP\" but here in \"Details\"  name indicates that test passes overlaps end"
      } ],
      "modifierExtension": [ {
        "url": "http://hl7.org/fhir/us/cqfmeasures/StructureDefinition/cqfm-isTestCase",
        "valueBoolean": true
      } ],
      "status": "complete",
      "type": "individual",
      "measure": "https://madie.cms.gov/Measure/CMS129FHIRProstCaBoneScanUse",
      "period": {
        "start": "2026-01-01",
        "end": "2026-12-31"
      },
      "group": [ {
        "id": "Group_1",
        "population": [ {
          "id": "InitialPopulation_1",
          "code": {
            "coding": [ {
              "system": "http://terminology.hl7.org/CodeSystem/measure-population",
              "code": "initial-population",
              "display": "Initial Population"
            } ]
          },
          "count": 1
        }, {
          "id": "Denominator_1",
          "code": {
            "coding": [ {
              "system": "http://terminology.hl7.org/CodeSystem/measure-population",
              "code": "denominator",
              "display": "Denominator"
            } ]
          },
          "count": 1
        }, {
          "id": "Numerator_1",
          "code": {
            "coding": [ {
              "system": "http://terminology.hl7.org/CodeSystem/measure-population",
              "code": "numerator",
              "display": "Numerator"
            } ]
          },
          "count": 1
        }, {
          "id": "DenominatorException_1",
          "code": {
            "coding": [ {
              "system": "http://terminology.hl7.org/CodeSystem/measure-population",
              "code": "denominator-exception",
              "display": "Denominator Exception"
            } ]
          },
          "count": 0
        } ],
        "measureScore": {
          "value": 1.0
        }
      } ],
      "evaluatedResource": [ {
        "reference": "Patient/dcdb253e-ebd6-4c16-b632-9a56bcec4541"
      }, {
        "reference": "Condition/8c1acf31-3cd6-4c52-aa65-ce65ae5c7595"
      }, {
        "reference": "Procedure/4c71b669-cf91-455f-8f32-817a9329e272"
      }, {
        "reference": "Observation/0e8c7b3a-c171-4bd5-a7ec-29c821f5d35d"
      }, {
        "reference": "Observation/a057288f-bb28-4800-8249-24f06b0c371a"
      }, {
        "reference": "Observation/fef2f4f8-d22c-4200-a57e-06f5aeba277e"
      }, {
        "reference": "Observation/b0d99405-4a86-4978-8323-f3c59d93defa"
      }, {
        "reference": "Coverage/7a42420a-4bec-462a-a99b-403346f4bfd2"
      }, {
        "reference": "Organization/eb317321-e57b-43d8-888a-6023b9684cb8"
      }, {
        "reference": "Practitioner/e71dffaa-4fc0-4868-9257-2c71a40d61f8"
      } ]
    }
  } ]
}