{
  "resourceType": "Bundle",
  "id": "62c880ed0111a60120dc2218",
  "type": "transaction",
  "entry": [ {
    "fullUrl": "https://madie.cms.gov/Patient/5595c36f-e82b-40cb-8327-8e691d471868",
    "resource": {
      "resourceType": "Patient",
      "id": "5595c36f-e82b-40cb-8327-8e691d471868",
      "meta": {
        "profile": [ "http://hl7.org/fhir/us/qicore/StructureDefinition/qicore-patient" ]
      },
      "extension": [ {
        "url": "http://hl7.org/fhir/us/core/StructureDefinition/us-core-race",
        "extension": [ {
          "url": "ombCategory",
          "valueCoding": {
            "system": "urn:oid:2.16.840.1.113883.6.238",
            "code": "1002-5",
            "display": "American Indian or Alaska Native"
          }
        }, {
          "url": "text",
          "valueString": "American Indian or Alaska Native"
        } ]
      }, {
        "url": "http://hl7.org/fhir/us/core/StructureDefinition/us-core-ethnicity",
        "extension": [ {
          "url": "ombCategory",
          "valueCoding": {
            "system": "urn:oid:2.16.840.1.113883.6.238",
            "code": "2135-2",
            "display": "Hispanic or Latino"
          }
        }, {
          "url": "text",
          "valueString": "Hispanic or Latino"
        } ]
      } ],
      "identifier": [ {
        "type": {
          "coding": [ {
            "system": "http://terminology.hl7.org/CodeSystem/v2-0203",
            "code": "MR"
          } ]
        },
        "system": "https://bonnie-fhir.healthit.gov/",
        "value": "62c880ed0111a60120dc2218"
      } ],
      "active": true,
      "name": [ {
        "use": "usual",
        "family": "NUMERPassPop1",
        "given": [ "PainAssessResultDecimal" ]
      } ],
      "gender": "male",
      "birthDate": "1938-06-14"
    },
    "request": {
      "method": "PUT",
      "url": "Patient/5595c36f-e82b-40cb-8327-8e691d471868"
    }
  }, {
    "fullUrl": "https://madie.cms.gov/Observation/bd3f812f-c2c2-4ad0-831e-19746349376a",
    "resource": {
      "resourceType": "Observation",
      "id": "bd3f812f-c2c2-4ad0-831e-19746349376a",
      "meta": {
        "profile": [ "http://hl7.org/fhir/us/qicore/StructureDefinition/qicore-observation-screening-assessment" ]
      },
      "status": "final",
      "category": [ {
        "coding": [ {
          "system": "http://terminology.hl7.org/CodeSystem/observation-category",
          "code": "survey",
          "display": "Survey"
        } ],
        "text": "Survey"
      } ],
      "code": {
        "coding": [ {
          "system": "http://loinc.org",
          "code": "38208-5",
          "display": "Pain severity - Reported"
        } ],
        "text": "Pain severity - Reported"
      },
      "subject": {
        "reference": "Patient/5595c36f-e82b-40cb-8327-8e691d471868"
      },
      "effectiveDateTime": "2026-06-23T11:15:00.000+00:00",
      "valueQuantity": {
        "value": 5.5
      }
    },
    "request": {
      "method": "PUT",
      "url": "Observation/bd3f812f-c2c2-4ad0-831e-19746349376a"
    }
  }, {
    "fullUrl": "https://madie.cms.gov/Condition/4bf7ddb1-9208-496d-87b3-5bf40aaa933c",
    "resource": {
      "resourceType": "Condition",
      "id": "4bf7ddb1-9208-496d-87b3-5bf40aaa933c",
      "meta": {
        "profile": [ "http://hl7.org/fhir/us/qicore/StructureDefinition/qicore-condition-problems-health-concerns" ]
      },
      "clinicalStatus": {
        "coding": [ {
          "system": "http://terminology.hl7.org/CodeSystem/condition-clinical",
          "code": "active",
          "display": "active"
        } ]
      },
      "verificationStatus": {
        "coding": [ {
          "system": "http://terminology.hl7.org/CodeSystem/condition-ver-status",
          "code": "confirmed",
          "display": "Confirmed"
        } ]
      },
      "category": [ {
        "coding": [ {
          "system": "http://terminology.hl7.org/CodeSystem/condition-category",
          "code": "problem-list-item",
          "display": "Problem List Item"
        } ]
      } ],
      "code": {
        "coding": [ {
          "system": "http://snomed.info/sct",
          "code": "107691000119101"
        } ]
      },
      "subject": {
        "reference": "Patient/5595c36f-e82b-40cb-8327-8e691d471868"
      },
      "onsetDateTime": "2021-02-21T13:00:00.000+00:00"
    },
    "request": {
      "method": "PUT",
      "url": "Condition/4bf7ddb1-9208-496d-87b3-5bf40aaa933c"
    }
  }, {
    "fullUrl": "https://madie.cms.gov/Encounter/31dd00eb-c231-4142-839b-446f7889cfce",
    "resource": {
      "resourceType": "Encounter",
      "id": "31dd00eb-c231-4142-839b-446f7889cfce",
      "meta": {
        "profile": [ "http://hl7.org/fhir/us/qicore/StructureDefinition/qicore-encounter" ]
      },
      "status": "finished",
      "class": {
        "system": "http://terminology.hl7.org/CodeSystem/v3-ActCode",
        "code": "AMB",
        "display": "ambulatory",
        "userSelected": true
      },
      "type": [ {
        "coding": [ {
          "system": "http://www.ama-assn.org/go/cpt",
          "code": "99213"
        } ]
      } ],
      "subject": {
        "reference": "Patient/5595c36f-e82b-40cb-8327-8e691d471868"
      },
      "period": {
        "start": "2026-06-23T10:00:00.000+00:00",
        "end": "2026-06-23T12:00:00.000+00:00"
      }
    },
    "request": {
      "method": "PUT",
      "url": "Encounter/31dd00eb-c231-4142-839b-446f7889cfce"
    }
  }, {
    "fullUrl": "https://madie.cms.gov/Coverage/e1773b6d-a96a-4efa-9dd9-2e37035e0dd2",
    "resource": {
      "resourceType": "Coverage",
      "id": "e1773b6d-a96a-4efa-9dd9-2e37035e0dd2",
      "meta": {
        "profile": [ "http://hl7.org/fhir/us/qicore/StructureDefinition/qicore-coverage" ]
      },
      "status": "active",
      "beneficiary": {
        "reference": "Patient/5595c36f-e82b-40cb-8327-8e691d471868"
      },
      "period": {
        "start": "1938-06-14T08:00:00.000+00:00"
      },
      "payor": [ {
        "reference": "Organization/cfcd2409-7ab1-4917-918c-fd043bebeb55"
      } ]
    },
    "request": {
      "method": "PUT",
      "url": "Coverage/e1773b6d-a96a-4efa-9dd9-2e37035e0dd2"
    }
  }, {
    "fullUrl": "https://madie.cms.gov/Procedure/8827e057-0ea7-4a96-b52f-3b2219c3a37b",
    "resource": {
      "resourceType": "Procedure",
      "id": "8827e057-0ea7-4a96-b52f-3b2219c3a37b",
      "meta": {
        "profile": [ "http://hl7.org/fhir/us/qicore/StructureDefinition/qicore-procedure" ]
      },
      "extension": [ {
        "url": "http://hl7.org/fhir/us/qicore/StructureDefinition/qicore-recorded",
        "valueDateTime": "2026-05-24T12:35:00.000+00:00"
      } ],
      "status": "completed",
      "code": {
        "coding": [ {
          "system": "http://www.ama-assn.org/go/cpt",
          "code": "96409"
        } ]
      },
      "subject": {
        "reference": "Patient/5595c36f-e82b-40cb-8327-8e691d471868"
      },
      "performedPeriod": {
        "start": "2026-05-24T10:45:00.000+00:00",
        "end": "2026-05-24T14:45:00.000+00:00"
      }
    },
    "request": {
      "method": "PUT",
      "url": "Procedure/8827e057-0ea7-4a96-b52f-3b2219c3a37b"
    }
  }, {
    "fullUrl": "https://madie.cms.gov/Procedure/33d82cf4-7bc4-43c9-b1f6-094737a9dd83",
    "resource": {
      "resourceType": "Procedure",
      "id": "33d82cf4-7bc4-43c9-b1f6-094737a9dd83",
      "meta": {
        "profile": [ "http://hl7.org/fhir/us/qicore/StructureDefinition/qicore-procedure" ]
      },
      "extension": [ {
        "url": "http://hl7.org/fhir/us/qicore/StructureDefinition/qicore-recorded",
        "valueDateTime": "2026-06-23T12:35:00.000+00:00"
      } ],
      "status": "completed",
      "code": {
        "coding": [ {
          "system": "http://www.ama-assn.org/go/cpt",
          "code": "51720"
        } ]
      },
      "subject": {
        "reference": "Patient/5595c36f-e82b-40cb-8327-8e691d471868"
      },
      "performedPeriod": {
        "start": "2026-06-23T13:30:00.000+00:00",
        "end": "2026-06-23T14:30:00.000+00:00"
      }
    },
    "request": {
      "method": "PUT",
      "url": "Procedure/33d82cf4-7bc4-43c9-b1f6-094737a9dd83"
    }
  }, {
    "fullUrl": "https://madie.cms.gov/Procedure/06c20aa1-aeab-459c-abc3-248e359df2a2",
    "resource": {
      "resourceType": "Procedure",
      "id": "06c20aa1-aeab-459c-abc3-248e359df2a2",
      "meta": {
        "profile": [ "http://hl7.org/fhir/us/qicore/StructureDefinition/qicore-procedure" ]
      },
      "extension": [ {
        "url": "http://hl7.org/fhir/us/qicore/StructureDefinition/qicore-recorded",
        "valueDateTime": "2026-06-23T12:35:00.000+00:00"
      } ],
      "status": "completed",
      "code": {
        "coding": [ {
          "system": "http://www.ama-assn.org/go/cpt",
          "code": "51720"
        } ]
      },
      "subject": {
        "reference": "Patient/5595c36f-e82b-40cb-8327-8e691d471868"
      },
      "performedPeriod": {
        "start": "2026-06-23T15:30:00.000+00:00",
        "end": "2026-06-23T16:30:00.000+00:00"
      }
    },
    "request": {
      "method": "PUT",
      "url": "Procedure/06c20aa1-aeab-459c-abc3-248e359df2a2"
    }
  }, {
    "fullUrl": "https://madie.cms.gov/Procedure/59e4ba85-a8fa-4a69-b357-b97c3f1018c8",
    "resource": {
      "resourceType": "Procedure",
      "id": "59e4ba85-a8fa-4a69-b357-b97c3f1018c8",
      "meta": {
        "profile": [ "http://hl7.org/fhir/us/qicore/StructureDefinition/qicore-procedure" ]
      },
      "extension": [ {
        "url": "http://hl7.org/fhir/us/qicore/StructureDefinition/qicore-recorded",
        "valueDateTime": "2026-07-23T12:35:00.000+00:00"
      } ],
      "status": "completed",
      "code": {
        "coding": [ {
          "system": "http://www.ama-assn.org/go/cpt",
          "code": "96409"
        } ]
      },
      "subject": {
        "reference": "Patient/5595c36f-e82b-40cb-8327-8e691d471868"
      },
      "performedPeriod": {
        "start": "2026-07-23T13:30:00.000+00:00",
        "end": "2026-07-23T16:30:00.000+00:00"
      }
    },
    "request": {
      "method": "PUT",
      "url": "Procedure/59e4ba85-a8fa-4a69-b357-b97c3f1018c8"
    }
  }, {
    "fullUrl": "https://madie.cms.gov/Organization/cfcd2409-7ab1-4917-918c-fd043bebeb55",
    "resource": {
      "resourceType": "Organization",
      "id": "cfcd2409-7ab1-4917-918c-fd043bebeb55",
      "meta": {
        "profile": [ "http://hl7.org/fhir/us/qicore/StructureDefinition/qicore-organization" ]
      },
      "identifier": [ {
        "use": "temp",
        "system": "urn:oid:2.16.840.1.113883.4.4",
        "value": "21-3259825"
      } ],
      "active": true,
      "type": [ {
        "coding": [ {
          "system": "http://terminology.hl7.org/CodeSystem/organization-type",
          "code": "pay",
          "display": "Payer"
        } ]
      } ],
      "name": "Blue Cross Blue Shield of Texas",
      "telecom": [ {
        "system": "phone",
        "value": "(+1) 972-766-6900"
      } ],
      "address": [ {
        "use": "billing",
        "type": "postal",
        "line": [ "P.O. Box 660044" ],
        "city": "Dallas",
        "state": "TX",
        "postalCode": "75266-0044",
        "country": "USA"
      } ]
    },
    "request": {
      "method": "PUT",
      "url": "Organization/cfcd2409-7ab1-4917-918c-fd043bebeb55"
    }
  }, {
    "fullUrl": "https://madie.cms.gov/Practitioner/70d270fb-ce37-49c4-bdf5-aade4214c38e",
    "resource": {
      "resourceType": "Practitioner",
      "id": "70d270fb-ce37-49c4-bdf5-aade4214c38e",
      "meta": {
        "profile": [ "http://hl7.org/fhir/us/qicore/StructureDefinition/qicore-practitioner" ]
      },
      "identifier": [ {
        "system": "http://hl7.org/fhir/sid/us-npi",
        "value": "1234567890"
      } ],
      "name": [ {
        "family": "Evil",
        "prefix": [ "Dr" ]
      } ]
    },
    "request": {
      "method": "PUT",
      "url": "Practitioner/70d270fb-ce37-49c4-bdf5-aade4214c38e"
    }
  }, {
    "fullUrl": "https://madie.cms.gov/MeasureReport/37b5af68-9cc9-4656-8481-a7cefc2ffc9e",
    "resource": {
      "resourceType": "MeasureReport",
      "id": "37b5af68-9cc9-4656-8481-a7cefc2ffc9e",
      "meta": {
        "profile": [ "http://hl7.org/fhir/us/cqfmeasures/StructureDefinition/test-case-cqfm" ]
      },
      "contained": [ {
        "resourceType": "Parameters",
        "id": "cae6b5b3-6236-4f28-976c-0e0ce0159630-parameters",
        "parameter": [ {
          "name": "subject",
          "valueString": "5595c36f-e82b-40cb-8327-8e691d471868"
        } ]
      } ],
      "extension": [ {
        "url": "http://hl7.org/fhir/StructureDefinition/cqf-inputParameters",
        "valueReference": {
          "reference": "#cae6b5b3-6236-4f28-976c-0e0ce0159630-parameters"
        }
      }, {
        "url": "http://hl7.org/fhir/us/cqfmeasures/StructureDefinition/cqfm-testCaseDescription",
        "valueMarkdown": "Patient with cancer diagnosis overlaps the office visit during measurement period. Chemotherapy administered prior and after office visit. Pain intensity assessment was performed during an office visit and the assessment result is in decimal form. "
      } ],
      "modifierExtension": [ {
        "url": "http://hl7.org/fhir/us/cqfmeasures/StructureDefinition/cqfm-isTestCase",
        "valueBoolean": true
      } ],
      "status": "complete",
      "type": "individual",
      "measure": "https://madie.cms.gov/Measure/CMS157FHIRPainIntensityQuantified",
      "period": {
        "start": "2026-01-01",
        "end": "2026-12-31"
      },
      "group": [ {
        "id": "Group_1",
        "population": [ {
          "id": "InitialPopulation_1",
          "code": {
            "coding": [ {
              "system": "http://terminology.hl7.org/CodeSystem/measure-population",
              "code": "initial-population",
              "display": "Initial Population"
            } ]
          },
          "count": 1
        }, {
          "id": "Denominator_1",
          "code": {
            "coding": [ {
              "system": "http://terminology.hl7.org/CodeSystem/measure-population",
              "code": "denominator",
              "display": "Denominator"
            } ]
          },
          "count": 1
        }, {
          "id": "Numerator_1",
          "code": {
            "coding": [ {
              "system": "http://terminology.hl7.org/CodeSystem/measure-population",
              "code": "numerator",
              "display": "Numerator"
            } ]
          },
          "count": 1
        } ],
        "measureScore": {
          "value": 0.0
        }
      }, {
        "id": "Group_2",
        "population": [ {
          "id": "InitialPopulation_2",
          "code": {
            "coding": [ {
              "system": "http://terminology.hl7.org/CodeSystem/measure-population",
              "code": "initial-population",
              "display": "Initial Population"
            } ]
          },
          "count": 0
        }, {
          "id": "Denominator_2",
          "code": {
            "coding": [ {
              "system": "http://terminology.hl7.org/CodeSystem/measure-population",
              "code": "denominator",
              "display": "Denominator"
            } ]
          },
          "count": 0
        }, {
          "id": "Numerator_2",
          "code": {
            "coding": [ {
              "system": "http://terminology.hl7.org/CodeSystem/measure-population",
              "code": "numerator",
              "display": "Numerator"
            } ]
          },
          "count": 0
        } ],
        "measureScore": {
          "value": 0.0
        }
      } ],
      "evaluatedResource": [ {
        "reference": "Patient/5595c36f-e82b-40cb-8327-8e691d471868"
      }, {
        "reference": "Observation/bd3f812f-c2c2-4ad0-831e-19746349376a"
      }, {
        "reference": "Condition/4bf7ddb1-9208-496d-87b3-5bf40aaa933c"
      }, {
        "reference": "Encounter/31dd00eb-c231-4142-839b-446f7889cfce"
      }, {
        "reference": "Coverage/e1773b6d-a96a-4efa-9dd9-2e37035e0dd2"
      }, {
        "reference": "Procedure/8827e057-0ea7-4a96-b52f-3b2219c3a37b"
      }, {
        "reference": "Procedure/33d82cf4-7bc4-43c9-b1f6-094737a9dd83"
      }, {
        "reference": "Procedure/06c20aa1-aeab-459c-abc3-248e359df2a2"
      }, {
        "reference": "Procedure/59e4ba85-a8fa-4a69-b357-b97c3f1018c8"
      }, {
        "reference": "Organization/cfcd2409-7ab1-4917-918c-fd043bebeb55"
      }, {
        "reference": "Practitioner/70d270fb-ce37-49c4-bdf5-aade4214c38e"
      } ]
    },
    "request": {
      "method": "PUT",
      "url": "MeasureReport/37b5af68-9cc9-4656-8481-a7cefc2ffc9e"
    }
  } ]
}