{
  "resourceType": "Bundle",
  "id": "657cbdc9b4f1f0343662347a",
  "type": "transaction",
  "entry": [ {
    "fullUrl": "https://madie.cms.gov/Patient/a190f096-6d74-476a-853d-0d5c5d5df1a6",
    "resource": {
      "resourceType": "Patient",
      "id": "a190f096-6d74-476a-853d-0d5c5d5df1a6",
      "meta": {
        "profile": [ "http://hl7.org/fhir/us/qicore/StructureDefinition/qicore-patient" ]
      },
      "extension": [ {
        "url": "http://hl7.org/fhir/us/core/StructureDefinition/us-core-race",
        "extension": [ {
          "url": "ombCategory",
          "valueCoding": {
            "system": "urn:oid:2.16.840.1.113883.6.238",
            "code": "2106-3",
            "display": "White",
            "userSelected": true
          }
        }, {
          "url": "text",
          "valueString": "White"
        } ]
      }, {
        "url": "http://hl7.org/fhir/us/core/StructureDefinition/us-core-ethnicity",
        "extension": [ {
          "url": "ombCategory",
          "valueCoding": {
            "system": "urn:oid:2.16.840.1.113883.6.238",
            "code": "2186-5",
            "display": "Not Hispanic or Latino",
            "userSelected": true
          }
        }, {
          "url": "text",
          "valueString": "Not Hispanic or Latino"
        } ]
      } ],
      "identifier": [ {
        "type": {
          "coding": [ {
            "system": "http://terminology.hl7.org/CodeSystem/v2-0203",
            "code": "MR"
          } ]
        },
        "system": "https://bonnie-fhir.healthit.gov/",
        "value": "657cbdc9b4f1f0343662347a"
      } ],
      "name": [ {
        "family": "EncounterLocationsPass",
        "given": [ "EncounterLocations" ]
      } ],
      "gender": "female",
      "birthDate": "2008-01-01"
    },
    "request": {
      "method": "PUT",
      "url": "Patient/a190f096-6d74-476a-853d-0d5c5d5df1a6"
    }
  }, {
    "fullUrl": "https://madie.cms.gov/Encounter/da17eb05-ec89-4fe0-9a3c-3aea132a7517",
    "resource": {
      "resourceType": "Encounter",
      "id": "da17eb05-ec89-4fe0-9a3c-3aea132a7517",
      "meta": {
        "profile": [ "http://hl7.org/fhir/us/qicore/StructureDefinition/qicore-encounter" ]
      },
      "status": "entered-in-error",
      "class": {
        "system": "http://terminology.hl7.org/CodeSystem/v3-ActCode",
        "code": "ACUTE",
        "display": "inpatient acute"
      },
      "type": [ {
        "coding": [ {
          "system": "http://snomed.info/sct",
          "version": "2024",
          "code": "32485007",
          "display": "Hospital admission (procedure)",
          "userSelected": true
        } ]
      } ],
      "subject": {
        "reference": "Patient/a190f096-6d74-476a-853d-0d5c5d5df1a6"
      },
      "period": {
        "start": "2026-01-01T08:00:00.000+00:00",
        "end": "2026-01-02T09:15:00.000+00:00"
      },
      "location": [ {
        "location": {
          "reference": "Location/2c804ddc-c6ff-4ab2-9ac6-3cb68e1e75a2"
        },
        "period": {
          "start": "2026-01-01T08:00:00.000+00:00",
          "end": "2026-01-02T09:15:00.000+00:00"
        }
      } ]
    },
    "request": {
      "method": "PUT",
      "url": "Encounter/da17eb05-ec89-4fe0-9a3c-3aea132a7517"
    }
  }, {
    "fullUrl": "https://madie.cms.gov/Location/2c804ddc-c6ff-4ab2-9ac6-3cb68e1e75a2",
    "resource": {
      "resourceType": "Location",
      "id": "2c804ddc-c6ff-4ab2-9ac6-3cb68e1e75a2",
      "meta": {
        "profile": [ "http://hl7.org/fhir/us/qicore/StructureDefinition/qicore-location" ]
      },
      "identifier": [ {
        "use": "usual",
        "system": "http://exampleoflocation.com",
        "value": "B1-S.F2"
      } ],
      "name": "Medical Surgical East, first floor",
      "type": [ {
        "coding": [ {
          "system": "https://www.cdc.gov/nhsn/cdaportal/terminology/codesystem/hsloc.html",
          "code": "1025-6",
          "display": "Trauma Critical Care",
          "userSelected": true
        } ]
      } ]
    },
    "request": {
      "method": "PUT",
      "url": "Location/2c804ddc-c6ff-4ab2-9ac6-3cb68e1e75a2"
    }
  }, {
    "fullUrl": "https://madie.cms.gov/MedicationAdministration/b680d541-d348-4ddf-8f21-b43c327d7f51",
    "resource": {
      "resourceType": "MedicationAdministration",
      "id": "b680d541-d348-4ddf-8f21-b43c327d7f51",
      "meta": {
        "profile": [ "http://hl7.org/fhir/us/qicore/StructureDefinition/qicore-medicationadministration" ]
      },
      "status": "completed",
      "medicationCodeableConcept": {
        "coding": [ {
          "system": "http://www.nlm.nih.gov/research/umls/rxnorm",
          "code": "1007184",
          "display": "insulin aspart protamine, human / insulin aspart, human"
        } ]
      },
      "subject": {
        "reference": "Patient/a190f096-6d74-476a-853d-0d5c5d5df1a6"
      },
      "effectivePeriod": {
        "start": "2026-01-01T08:00:00.000+00:00",
        "end": "2026-01-01T08:15:00.000+00:00"
      }
    },
    "request": {
      "method": "PUT",
      "url": "MedicationAdministration/b680d541-d348-4ddf-8f21-b43c327d7f51"
    }
  }, {
    "fullUrl": "https://madie.cms.gov/Coverage/61689018-759d-4767-80a1-a9e67ab046f0",
    "resource": {
      "resourceType": "Coverage",
      "id": "61689018-759d-4767-80a1-a9e67ab046f0",
      "meta": {
        "profile": [ "http://hl7.org/fhir/us/qicore/StructureDefinition/qicore-coverage" ]
      },
      "identifier": [ {
        "system": "http://benefitsinc.com/certificate",
        "value": "12345"
      } ],
      "status": "active",
      "type": {
        "coding": [ {
          "system": "https://nahdo.org/sopt",
          "version": "1.0.1",
          "code": "1",
          "display": "MEDICARE",
          "userSelected": true
        } ]
      },
      "subscriberId": "AB9876",
      "beneficiary": {
        "reference": "Patient/a190f096-6d74-476a-853d-0d5c5d5df1a6"
      },
      "relationship": {
        "coding": [ {
          "system": "http://terminology.hl7.org/CodeSystem/subscriber-relationship",
          "code": "self"
        } ]
      },
      "payor": [ {
        "reference": "Organization/51aa25d9-5bde-48ca-a65a-76867729a51b"
      } ]
    },
    "request": {
      "method": "PUT",
      "url": "Coverage/61689018-759d-4767-80a1-a9e67ab046f0"
    }
  }, {
    "fullUrl": "https://madie.cms.gov/Organization/51aa25d9-5bde-48ca-a65a-76867729a51b",
    "resource": {
      "resourceType": "Organization",
      "id": "51aa25d9-5bde-48ca-a65a-76867729a51b",
      "meta": {
        "profile": [ "http://hl7.org/fhir/us/qicore/StructureDefinition/qicore-organization" ]
      },
      "identifier": [ {
        "use": "temp",
        "system": "urn:oid:2.16.840.1.113883.4.4",
        "value": "21-3259825"
      } ],
      "active": true,
      "type": [ {
        "coding": [ {
          "system": "http://terminology.hl7.org/CodeSystem/organization-type",
          "code": "pay",
          "display": "Payer"
        } ]
      } ],
      "name": "Blue Cross Blue Shield of Texas",
      "telecom": [ {
        "system": "phone",
        "value": "(+1) 972-766-6900"
      } ],
      "address": [ {
        "use": "billing",
        "type": "postal",
        "line": [ "P.O. Box 660044" ],
        "city": "Dallas",
        "state": "TX",
        "postalCode": "75266-0044",
        "country": "USA"
      } ]
    },
    "request": {
      "method": "PUT",
      "url": "Organization/51aa25d9-5bde-48ca-a65a-76867729a51b"
    }
  }, {
    "fullUrl": "https://madie.cms.gov/Practitioner/9acc175b-2159-4e91-83a5-13db9f64cab8",
    "resource": {
      "resourceType": "Practitioner",
      "id": "9acc175b-2159-4e91-83a5-13db9f64cab8",
      "meta": {
        "profile": [ "http://hl7.org/fhir/us/qicore/StructureDefinition/qicore-practitioner" ]
      },
      "identifier": [ {
        "system": "http://hl7.org/fhir/sid/us-npi",
        "value": "0723660813"
      } ],
      "name": [ {
        "family": "Evil",
        "prefix": [ "Dr" ]
      } ]
    },
    "request": {
      "method": "PUT",
      "url": "Practitioner/9acc175b-2159-4e91-83a5-13db9f64cab8"
    }
  }, {
    "fullUrl": "https://madie.cms.gov/MeasureReport/90a041e8-3084-411b-b4c9-b1a6903eec1d",
    "resource": {
      "resourceType": "MeasureReport",
      "id": "90a041e8-3084-411b-b4c9-b1a6903eec1d",
      "meta": {
        "profile": [ "http://hl7.org/fhir/us/cqfmeasures/StructureDefinition/test-case-cqfm" ]
      },
      "contained": [ {
        "resourceType": "Parameters",
        "id": "d639f1d5-697d-4d2b-bb97-cd4303b8bac2-parameters",
        "parameter": [ {
          "name": "subject",
          "valueString": "a190f096-6d74-476a-853d-0d5c5d5df1a6"
        } ]
      } ],
      "extension": [ {
        "url": "http://hl7.org/fhir/StructureDefinition/cqf-inputParameters",
        "valueReference": {
          "reference": "#d639f1d5-697d-4d2b-bb97-cd4303b8bac2-parameters"
        }
      }, {
        "url": "http://hl7.org/fhir/us/cqfmeasures/StructureDefinition/cqfm-testCaseDescription",
        "valueMarkdown": "Inpatient encounter with diabetic medication and SDE encounter location"
      } ],
      "modifierExtension": [ {
        "url": "http://hl7.org/fhir/us/cqfmeasures/StructureDefinition/cqfm-isTestCase",
        "valueBoolean": true
      } ],
      "status": "complete",
      "type": "individual",
      "measure": "https://madie.cms.gov/Measure/NHSNGlycemicControlHypoglycemiaInitialPopulation",
      "period": {
        "start": "2026-01-01",
        "end": "2026-12-31"
      },
      "group": [ {
        "id": "Group_1",
        "population": [ {
          "id": "InitialPopulation_1",
          "code": {
            "coding": [ {
              "system": "http://terminology.hl7.org/CodeSystem/measure-population",
              "code": "initial-population",
              "display": "Initial Population"
            } ]
          },
          "count": 1
        } ],
        "measureScore": {
          "value": 0.0
        }
      } ],
      "evaluatedResource": [ {
        "reference": "Patient/a190f096-6d74-476a-853d-0d5c5d5df1a6"
      }, {
        "reference": "Encounter/da17eb05-ec89-4fe0-9a3c-3aea132a7517"
      }, {
        "reference": "Location/2c804ddc-c6ff-4ab2-9ac6-3cb68e1e75a2"
      }, {
        "reference": "MedicationAdministration/b680d541-d348-4ddf-8f21-b43c327d7f51"
      }, {
        "reference": "Coverage/61689018-759d-4767-80a1-a9e67ab046f0"
      }, {
        "reference": "Organization/51aa25d9-5bde-48ca-a65a-76867729a51b"
      }, {
        "reference": "Practitioner/9acc175b-2159-4e91-83a5-13db9f64cab8"
      } ]
    },
    "request": {
      "method": "PUT",
      "url": "MeasureReport/90a041e8-3084-411b-b4c9-b1a6903eec1d"
    }
  } ]
}