{
  "resourceType": "Bundle",
  "id": "DENEXPass-CompetingDiag1DayAfterEDate",
  "type": "transaction",
  "entry": [ {
    "fullUrl": "https://madie.cms.gov/Patient/2b24a717-a07f-47a6-86f4-6709a57be330",
    "resource": {
      "resourceType": "Patient",
      "id": "2b24a717-a07f-47a6-86f4-6709a57be330",
      "meta": {
        "profile": [ "http://hl7.org/fhir/us/qicore/StructureDefinition/qicore-patient" ]
      },
      "extension": [ {
        "url": "http://hl7.org/fhir/us/core/StructureDefinition/us-core-race",
        "extension": [ {
          "url": "ombCategory",
          "valueCoding": {
            "system": "urn:oid:2.16.840.1.113883.6.238",
            "code": "2028-9",
            "display": "Asian",
            "userSelected": true
          }
        }, {
          "url": "text",
          "valueString": "Asian"
        } ]
      }, {
        "url": "http://hl7.org/fhir/us/core/StructureDefinition/us-core-ethnicity",
        "extension": [ {
          "url": "ombCategory",
          "valueCoding": {
            "system": "urn:oid:2.16.840.1.113883.6.238",
            "code": "2135-2",
            "display": "Hispanic or Latino",
            "userSelected": true
          }
        }, {
          "url": "text",
          "valueString": "Hispanic or Latino"
        } ]
      } ],
      "identifier": [ {
        "type": {
          "coding": [ {
            "system": "http://terminology.hl7.org/CodeSystem/v2-0203",
            "code": "MR"
          } ]
        },
        "system": "http://hospital.smarthealthit.org",
        "value": "999999995"
      } ],
      "name": [ {
        "family": "Bertha",
        "given": [ "Betty" ]
      } ],
      "gender": "male",
      "birthDate": "2021-01-01"
    },
    "request": {
      "method": "PUT",
      "url": "Patient/2b24a717-a07f-47a6-86f4-6709a57be330"
    }
  }, {
    "fullUrl": "https://madie.cms.gov/Encounter/887d6f46-3274-4230-920c-a9cb9502dcdb",
    "resource": {
      "resourceType": "Encounter",
      "id": "887d6f46-3274-4230-920c-a9cb9502dcdb",
      "meta": {
        "profile": [ "http://hl7.org/fhir/us/qicore/StructureDefinition/qicore-encounter" ]
      },
      "status": "finished",
      "class": {
        "system": "http://terminology.hl7.org/CodeSystem/v3-ActCode",
        "code": "AMB",
        "display": "ambulatory"
      },
      "type": [ {
        "coding": [ {
          "system": "http://snomed.info/sct",
          "code": "185317003",
          "display": "Telephone encounter (procedure)"
        } ]
      } ],
      "subject": {
        "reference": "Patient/2b24a717-a07f-47a6-86f4-6709a57be330"
      },
      "period": {
        "start": "2026-10-11T12:45:00.000+00:00",
        "end": "2026-10-11T12:59:00.000+00:00"
      }
    },
    "request": {
      "method": "PUT",
      "url": "Encounter/887d6f46-3274-4230-920c-a9cb9502dcdb"
    }
  }, {
    "fullUrl": "https://madie.cms.gov/Condition/a2495547-b024-4b97-9c3d-be0f02314c1e",
    "resource": {
      "resourceType": "Condition",
      "id": "a2495547-b024-4b97-9c3d-be0f02314c1e",
      "meta": {
        "profile": [ "http://hl7.org/fhir/us/qicore/StructureDefinition/qicore-condition-encounter-diagnosis" ]
      },
      "clinicalStatus": {
        "coding": [ {
          "system": "http://terminology.hl7.org/CodeSystem/condition-clinical",
          "code": "active"
        } ]
      },
      "category": [ {
        "coding": [ {
          "system": "http://terminology.hl7.org/CodeSystem/condition-category",
          "code": "encounter-diagnosis",
          "display": "Encounter Diagnosis"
        } ]
      } ],
      "code": {
        "coding": [ {
          "system": "http://snomed.info/sct",
          "code": "17741008",
          "display": "Acute tonsillitis (disorder)"
        } ]
      },
      "subject": {
        "reference": "Patient/2b24a717-a07f-47a6-86f4-6709a57be330"
      },
      "onsetDateTime": "2026-10-11T12:48:00.000+00:00"
    },
    "request": {
      "method": "PUT",
      "url": "Condition/a2495547-b024-4b97-9c3d-be0f02314c1e"
    }
  }, {
    "fullUrl": "https://madie.cms.gov/MedicationRequest/e65797c1-c23d-40a6-9c83-9cc27513b98f",
    "resource": {
      "resourceType": "MedicationRequest",
      "id": "e65797c1-c23d-40a6-9c83-9cc27513b98f",
      "meta": {
        "profile": [ "http://hl7.org/fhir/us/qicore/StructureDefinition/qicore-medicationrequest" ]
      },
      "status": "completed",
      "intent": "order",
      "category": [ {
        "coding": [ {
          "system": "http://terminology.hl7.org/CodeSystem/medicationrequest-category",
          "code": "discharge",
          "display": "Discharge"
        } ]
      } ],
      "medicationCodeableConcept": {
        "coding": [ {
          "system": "http://www.nlm.nih.gov/research/umls/rxnorm",
          "code": "141963",
          "display": "azithromycin 40 MG/ML Oral Suspension",
          "userSelected": true
        } ]
      },
      "subject": {
        "reference": "Patient/2b24a717-a07f-47a6-86f4-6709a57be330"
      },
      "authoredOn": "2026-10-12T00:00:00.000+00:00",
      "requester": {
        "reference": "Practitioner/example"
      },
      "dosageInstruction": [ {
        "timing": {
          "repeat": {
            "boundsPeriod": {
              "start": "2026-10-12T00:00:00.000+00:00",
              "end": "2026-10-20T00:00:00.000+00:00"
            }
          }
        }
      } ]
    },
    "request": {
      "method": "PUT",
      "url": "MedicationRequest/e65797c1-c23d-40a6-9c83-9cc27513b98f"
    }
  }, {
    "fullUrl": "https://madie.cms.gov/Condition/5aa5a4cf-0395-4f3e-9781-fce343f11a41",
    "resource": {
      "resourceType": "Condition",
      "id": "5aa5a4cf-0395-4f3e-9781-fce343f11a41",
      "meta": {
        "profile": [ "http://hl7.org/fhir/us/qicore/StructureDefinition/qicore-condition-encounter-diagnosis" ]
      },
      "clinicalStatus": {
        "coding": [ {
          "system": "http://terminology.hl7.org/CodeSystem/condition-clinical",
          "code": "active"
        } ]
      },
      "category": [ {
        "coding": [ {
          "system": "http://terminology.hl7.org/CodeSystem/condition-category",
          "code": "encounter-diagnosis",
          "display": "Encounter Diagnosis"
        } ]
      } ],
      "code": {
        "coding": [ {
          "system": "http://snomed.info/sct",
          "code": "102361000119104",
          "display": "Chronic pneumonia (disorder)"
        } ]
      },
      "subject": {
        "reference": "Patient/2b24a717-a07f-47a6-86f4-6709a57be330"
      },
      "onsetDateTime": "2026-10-12T00:00:00.000+00:00"
    },
    "request": {
      "method": "PUT",
      "url": "Condition/5aa5a4cf-0395-4f3e-9781-fce343f11a41"
    }
  }, {
    "fullUrl": "https://madie.cms.gov/MeasureReport/d66a053e-7075-4f63-beb3-6bdd762bd4fd",
    "resource": {
      "resourceType": "MeasureReport",
      "id": "d66a053e-7075-4f63-beb3-6bdd762bd4fd",
      "meta": {
        "profile": [ "http://hl7.org/fhir/us/cqfmeasures/StructureDefinition/test-case-cqfm" ]
      },
      "contained": [ {
        "resourceType": "Parameters",
        "id": "68d250bf-0f81-41ae-856d-337137b617ed-parameters",
        "parameter": [ {
          "name": "subject",
          "valueString": "2b24a717-a07f-47a6-86f4-6709a57be330"
        } ]
      } ],
      "extension": [ {
        "url": "http://hl7.org/fhir/StructureDefinition/cqf-inputParameters",
        "valueReference": {
          "reference": "#68d250bf-0f81-41ae-856d-337137b617ed-parameters"
        }
      }, {
        "url": "http://hl7.org/fhir/us/cqfmeasures/StructureDefinition/cqfm-testCaseDescription",
        "valueMarkdown": "Competing diagnosis 1 day after episode date"
      } ],
      "modifierExtension": [ {
        "url": "http://hl7.org/fhir/us/cqfmeasures/StructureDefinition/cqfm-isTestCase",
        "valueBoolean": true
      } ],
      "status": "complete",
      "type": "individual",
      "measure": "https://madie.cms.gov/Measure/CMS146FHIRApproTestPharyngitis",
      "period": {
        "start": "2026-01-01",
        "end": "2026-12-31"
      },
      "group": [ {
        "id": "Group_1",
        "population": [ {
          "id": "InitialPopulation_1",
          "code": {
            "coding": [ {
              "system": "http://terminology.hl7.org/CodeSystem/measure-population",
              "code": "initial-population",
              "display": "Initial Population"
            } ]
          },
          "count": 1
        }, {
          "id": "Denominator_1",
          "code": {
            "coding": [ {
              "system": "http://terminology.hl7.org/CodeSystem/measure-population",
              "code": "denominator",
              "display": "Denominator"
            } ]
          },
          "count": 1
        }, {
          "id": "DenominatorExclusion_1",
          "code": {
            "coding": [ {
              "system": "http://terminology.hl7.org/CodeSystem/measure-population",
              "code": "denominator-exclusion",
              "display": "Denominator Exclusion"
            } ]
          },
          "count": 1
        }, {
          "id": "Numerator_1",
          "code": {
            "coding": [ {
              "system": "http://terminology.hl7.org/CodeSystem/measure-population",
              "code": "numerator",
              "display": "Numerator"
            } ]
          },
          "count": 0
        } ],
        "measureScore": {
          "value": 0.0
        },
        "stratifier": [ {
          "id": "Stratification_1_1",
          "code": [ {
            "text": "Strata-1"
          } ],
          "stratum": [ {
            "value": {
              "text": "Strata-1"
            },
            "population": [ {
              "id": "InitialPopulation_1",
              "code": {
                "coding": [ {
                  "system": "http://terminology.hl7.org/CodeSystem/measure-population",
                  "code": "initial-population",
                  "display": "Initial Population"
                } ]
              },
              "count": 1
            } ]
          } ]
        }, {
          "id": "Stratification_1_2",
          "code": [ {
            "text": "Strata-2"
          } ],
          "stratum": [ {
            "value": {
              "text": "Strata-2"
            },
            "population": [ {
              "id": "InitialPopulation_1",
              "code": {
                "coding": [ {
                  "system": "http://terminology.hl7.org/CodeSystem/measure-population",
                  "code": "initial-population",
                  "display": "Initial Population"
                } ]
              },
              "count": 1
            } ]
          } ]
        }, {
          "id": "Stratification_1_3",
          "code": [ {
            "text": "Strata-3"
          } ],
          "stratum": [ {
            "value": {
              "text": "Strata-3"
            },
            "population": [ {
              "id": "InitialPopulation_1",
              "code": {
                "coding": [ {
                  "system": "http://terminology.hl7.org/CodeSystem/measure-population",
                  "code": "initial-population",
                  "display": "Initial Population"
                } ]
              },
              "count": 1
            } ]
          } ]
        } ]
      } ],
      "evaluatedResource": [ {
        "reference": "Patient/2b24a717-a07f-47a6-86f4-6709a57be330"
      }, {
        "reference": "Encounter/887d6f46-3274-4230-920c-a9cb9502dcdb"
      }, {
        "reference": "Condition/a2495547-b024-4b97-9c3d-be0f02314c1e"
      }, {
        "reference": "MedicationRequest/e65797c1-c23d-40a6-9c83-9cc27513b98f"
      }, {
        "reference": "Condition/5aa5a4cf-0395-4f3e-9781-fce343f11a41"
      } ]
    },
    "request": {
      "method": "PUT",
      "url": "MeasureReport/d66a053e-7075-4f63-beb3-6bdd762bd4fd"
    }
  } ]
}