{
  "resourceType": "Bundle",
  "id": "6109658e98086b538055b9d0",
  "type": "collection",
  "entry": [ {
    "fullUrl": "https://madie.cms.gov/Patient/9394a368-dd04-495b-a810-ee4e9a32e8a0",
    "resource": {
      "resourceType": "Patient",
      "id": "9394a368-dd04-495b-a810-ee4e9a32e8a0",
      "meta": {
        "profile": [ "http://hl7.org/fhir/us/qicore/StructureDefinition/qicore-patient" ]
      },
      "extension": [ {
        "url": "http://hl7.org/fhir/us/core/StructureDefinition/us-core-race",
        "extension": [ {
          "url": "ombCategory",
          "valueCoding": {
            "system": "urn:oid:2.16.840.1.113883.6.238",
            "code": "1002-5",
            "display": "American Indian or Alaska Native",
            "userSelected": true
          }
        }, {
          "url": "text",
          "valueString": "American Indian or Alaska Native"
        }, {
          "url": "detailed",
          "valueCoding": {
            "system": "urn:oid:2.16.840.1.113883.6.238",
            "code": "1653-5",
            "display": "Tohono O'Odham"
          }
        } ]
      }, {
        "url": "http://hl7.org/fhir/us/core/StructureDefinition/us-core-ethnicity",
        "extension": [ {
          "url": "ombCategory",
          "valueCoding": {
            "system": "urn:oid:2.16.840.1.113883.6.238",
            "code": "2135-2",
            "display": "Hispanic or Latino",
            "userSelected": true
          }
        }, {
          "url": "text",
          "valueString": "Not Hispanic or Latino"
        }, {
          "url": "detailed",
          "valueCoding": {
            "system": "urn:oid:2.16.840.1.113883.6.238",
            "code": "2153-5",
            "display": "Mexican American Indian"
          }
        } ]
      } ],
      "identifier": [ {
        "type": {
          "coding": [ {
            "system": "http://terminology.hl7.org/CodeSystem/v2-0203",
            "code": "MR"
          } ]
        },
        "system": "https://bonnie-fhir.healthit.gov/",
        "value": "6109658e98086b538055b9d0"
      } ],
      "active": true,
      "name": [ {
        "use": "usual",
        "family": "NUMERFail",
        "given": [ "OpticExamsB4Enc" ]
      } ],
      "gender": "female",
      "birthDate": "1948-09-18"
    }
  }, {
    "fullUrl": "https://madie.cms.gov/Condition/88066c4b-462c-47f9-bea9-b61b2ec62a9a",
    "resource": {
      "resourceType": "Condition",
      "id": "88066c4b-462c-47f9-bea9-b61b2ec62a9a",
      "meta": {
        "profile": [ "http://hl7.org/fhir/us/qicore/StructureDefinition/qicore-condition-problems-health-concerns" ]
      },
      "clinicalStatus": {
        "coding": [ {
          "system": "http://terminology.hl7.org/CodeSystem/condition-clinical",
          "code": "active",
          "display": "active",
          "userSelected": true
        } ]
      },
      "category": [ {
        "coding": [ {
          "system": "http://terminology.hl7.org/CodeSystem/condition-category",
          "code": "problem-list-item",
          "display": "Problem List Item",
          "userSelected": true
        } ]
      } ],
      "code": {
        "coding": [ {
          "system": "http://hl7.org/fhir/sid/icd-10-cm",
          "code": "H40.10X0"
        } ]
      },
      "subject": {
        "reference": "Patient/9394a368-dd04-495b-a810-ee4e9a32e8a0"
      },
      "onsetDateTime": "2016-06-15T07:00:00.000+00:00"
    }
  }, {
    "fullUrl": "https://madie.cms.gov/Observation/2ecc52a1-6a91-4ed0-af0f-d6ffb407fc11",
    "resource": {
      "resourceType": "Observation",
      "id": "2ecc52a1-6a91-4ed0-af0f-d6ffb407fc11",
      "meta": {
        "profile": [ "http://hl7.org/fhir/us/qicore/StructureDefinition/qicore-observation-clinical-result" ]
      },
      "status": "final",
      "category": [ {
        "coding": [ {
          "system": "http://terminology.hl7.org/CodeSystem/observation-category",
          "code": "laboratory",
          "display": "laboratory",
          "userSelected": true
        } ]
      }, {
        "coding": [ {
          "system": "http://terminology.hl7.org/CodeSystem/observation-category",
          "code": "survey"
        } ]
      } ],
      "code": {
        "coding": [ {
          "system": "http://loinc.org",
          "version": "2.73",
          "code": "71486-5"
        } ]
      },
      "subject": {
        "reference": "Patient/9394a368-dd04-495b-a810-ee4e9a32e8a0"
      },
      "effectiveDateTime": "2026-01-22T08:00:00.000+00:00",
      "valueString": "Optic disc neural rim asymmetry of the two eyes consistent with loss of neural tissue"
    }
  }, {
    "fullUrl": "https://madie.cms.gov/Observation/01e0c6d2-e2e5-404d-8347-b96df34eae2e",
    "resource": {
      "resourceType": "Observation",
      "id": "01e0c6d2-e2e5-404d-8347-b96df34eae2e",
      "meta": {
        "profile": [ "http://hl7.org/fhir/us/qicore/StructureDefinition/qicore-observation-clinical-result" ]
      },
      "status": "final",
      "category": [ {
        "coding": [ {
          "system": "http://terminology.hl7.org/CodeSystem/observation-category",
          "code": "laboratory",
          "display": "laboratory",
          "userSelected": true
        } ]
      }, {
        "coding": [ {
          "system": "http://terminology.hl7.org/CodeSystem/observation-category",
          "code": "survey"
        } ]
      } ],
      "code": {
        "coding": [ {
          "system": "http://loinc.org",
          "version": "2.73",
          "code": "71484-0"
        } ]
      },
      "subject": {
        "reference": "Patient/9394a368-dd04-495b-a810-ee4e9a32e8a0"
      },
      "effectiveDateTime": "2026-01-22T08:00:00.000+00:00",
      "valueQuantity": {
        "value": 0.7
      }
    }
  }, {
    "fullUrl": "https://madie.cms.gov/Encounter/81574d05-0319-4b99-aeac-8c02f12e4ee8",
    "resource": {
      "resourceType": "Encounter",
      "id": "81574d05-0319-4b99-aeac-8c02f12e4ee8",
      "meta": {
        "profile": [ "http://hl7.org/fhir/us/qicore/StructureDefinition/qicore-encounter" ]
      },
      "status": "finished",
      "class": {
        "system": "http://terminology.hl7.org/CodeSystem/v3-ActCode",
        "code": "AMB",
        "display": "ambulatory",
        "userSelected": true
      },
      "type": [ {
        "coding": [ {
          "system": "http://www.ama-assn.org/go/cpt",
          "version": "2023",
          "code": "99213"
        } ]
      } ],
      "subject": {
        "reference": "Patient/9394a368-dd04-495b-a810-ee4e9a32e8a0"
      },
      "period": {
        "start": "2026-01-24T08:00:00.000+00:00",
        "end": "2026-01-24T08:00:00.000+00:00"
      },
      "length": {
        "value": 0.0,
        "unit": "days"
      }
    }
  }, {
    "fullUrl": "https://madie.cms.gov/MeasureReport/c43076e6-f00f-4f5a-999c-33a7a08dcd8f",
    "resource": {
      "resourceType": "MeasureReport",
      "id": "c43076e6-f00f-4f5a-999c-33a7a08dcd8f",
      "meta": {
        "profile": [ "http://hl7.org/fhir/us/cqfmeasures/StructureDefinition/test-case-cqfm" ]
      },
      "contained": [ {
        "resourceType": "Parameters",
        "id": "38650608-1b0c-4a7d-a301-1ea047a9c57e-parameters",
        "parameter": [ {
          "name": "subject",
          "valueString": "9394a368-dd04-495b-a810-ee4e9a32e8a0"
        } ]
      } ],
      "extension": [ {
        "url": "http://hl7.org/fhir/StructureDefinition/cqf-inputParameters",
        "valueReference": {
          "reference": "#38650608-1b0c-4a7d-a301-1ea047a9c57e-parameters"
        }
      }, {
        "url": "http://hl7.org/fhir/us/cqfmeasures/StructureDefinition/cqfm-testCaseDescription",
        "valueMarkdown": "Patient with glaucoma, both diagnostic studies done but before encounter"
      } ],
      "modifierExtension": [ {
        "url": "http://hl7.org/fhir/us/cqfmeasures/StructureDefinition/cqfm-isTestCase",
        "valueBoolean": true
      } ],
      "status": "complete",
      "type": "individual",
      "measure": "https://madie.cms.gov/Measure/CMS143FHIRPOAGOpticNerveEval",
      "period": {
        "start": "2026-01-01",
        "end": "2026-12-31"
      },
      "group": [ {
        "id": "Group_1",
        "population": [ {
          "id": "InitialPopulation_1",
          "code": {
            "coding": [ {
              "system": "http://terminology.hl7.org/CodeSystem/measure-population",
              "code": "initial-population",
              "display": "Initial Population"
            } ]
          },
          "count": 1
        }, {
          "id": "Denominator_1",
          "code": {
            "coding": [ {
              "system": "http://terminology.hl7.org/CodeSystem/measure-population",
              "code": "denominator",
              "display": "Denominator"
            } ]
          },
          "count": 1
        }, {
          "id": "Numerator_1",
          "code": {
            "coding": [ {
              "system": "http://terminology.hl7.org/CodeSystem/measure-population",
              "code": "numerator",
              "display": "Numerator"
            } ]
          },
          "count": 0
        }, {
          "id": "DenominatorException_1",
          "code": {
            "coding": [ {
              "system": "http://terminology.hl7.org/CodeSystem/measure-population",
              "code": "denominator-exception",
              "display": "Denominator Exception"
            } ]
          },
          "count": 0
        } ],
        "measureScore": {
          "value": 1.0
        }
      } ],
      "evaluatedResource": [ {
        "reference": "Patient/9394a368-dd04-495b-a810-ee4e9a32e8a0"
      }, {
        "reference": "Condition/88066c4b-462c-47f9-bea9-b61b2ec62a9a"
      }, {
        "reference": "Observation/2ecc52a1-6a91-4ed0-af0f-d6ffb407fc11"
      }, {
        "reference": "Observation/01e0c6d2-e2e5-404d-8347-b96df34eae2e"
      }, {
        "reference": "Encounter/81574d05-0319-4b99-aeac-8c02f12e4ee8"
      } ]
    }
  } ]
}