{
  "resourceType": "Bundle",
  "id": "46313213416131",
  "type": "collection",
  "entry": [ {
    "fullUrl": "https://madie.cms.gov/Patient/ce22375e-abe0-4fd5-a4ad-07d8a6056045",
    "resource": {
      "resourceType": "Patient",
      "id": "ce22375e-abe0-4fd5-a4ad-07d8a6056045",
      "meta": {
        "profile": [ "http://hl7.org/fhir/us/qicore/StructureDefinition/qicore-patient" ]
      },
      "extension": [ {
        "url": "http://hl7.org/fhir/us/core/StructureDefinition/us-core-race",
        "extension": [ {
          "url": "ombCategory",
          "valueCoding": {
            "system": "urn:oid:2.16.840.1.113883.6.238",
            "code": "2076-8",
            "display": "Native Hawaiian or Other Pacific Islander"
          }
        }, {
          "url": "text",
          "valueString": "Native Hawaiian or Other Pacific Islander"
        } ]
      }, {
        "url": "http://hl7.org/fhir/us/core/StructureDefinition/us-core-ethnicity",
        "extension": [ {
          "url": "ombCategory",
          "valueCoding": {
            "system": "urn:oid:2.16.840.1.113883.6.238",
            "code": "2186-5",
            "display": "Not Hispanic or Latino"
          }
        }, {
          "url": "text",
          "valueString": "Not Hispanic or Latino"
        } ]
      } ],
      "identifier": [ {
        "type": {
          "coding": [ {
            "system": "http://terminology.hl7.org/CodeSystem/v2-0203",
            "code": "MR"
          } ]
        },
        "system": "https://bonnie-fhir.healthit.gov/",
        "value": "6464649435154"
      } ],
      "active": true,
      "name": [ {
        "use": "usual",
        "family": "DENEXPass",
        "given": [ "HeartTransComplicationsRecordedDatetime" ]
      } ],
      "gender": "male",
      "birthDate": "1975-02-10"
    }
  }, {
    "fullUrl": "https://madie.cms.gov/Encounter/9cd92ac7-7a68-4ff3-a5ac-7ba17c0232a0",
    "resource": {
      "resourceType": "Encounter",
      "id": "9cd92ac7-7a68-4ff3-a5ac-7ba17c0232a0",
      "meta": {
        "profile": [ "http://hl7.org/fhir/us/qicore/StructureDefinition/qicore-encounter" ]
      },
      "status": "finished",
      "class": {
        "system": "http://terminology.hl7.org/CodeSystem/v3-ActCode",
        "code": "AMB",
        "display": "ambulatory"
      },
      "type": [ {
        "coding": [ {
          "system": "http://www.ama-assn.org/go/cpt",
          "version": "2024",
          "code": "99213"
        } ]
      } ],
      "subject": {
        "reference": "Patient/ce22375e-abe0-4fd5-a4ad-07d8a6056045"
      },
      "period": {
        "start": "2026-04-14T14:40:00.000Z",
        "end": "2026-04-14T14:50:00.000Z"
      },
      "length": {
        "value": 0,
        "unit": "days"
      }
    }
  }, {
    "fullUrl": "https://madie.cms.gov/Condition/824e5103-bf27-441e-a41a-654dc6812fe3",
    "resource": {
      "resourceType": "Condition",
      "id": "824e5103-bf27-441e-a41a-654dc6812fe3",
      "meta": {
        "profile": [ "http://hl7.org/fhir/us/qicore/StructureDefinition/qicore-condition-encounter-diagnosis" ]
      },
      "clinicalStatus": {
        "coding": [ {
          "system": "http://terminology.hl7.org/CodeSystem/condition-clinical",
          "code": "active",
          "display": "Active"
        } ]
      },
      "verificationStatus": {
        "coding": [ {
          "system": "http://terminology.hl7.org/CodeSystem/condition-ver-status",
          "code": "confirmed",
          "display": "Confirmed"
        } ]
      },
      "category": [ {
        "coding": [ {
          "system": "http://terminology.hl7.org/CodeSystem/condition-category",
          "code": "encounter-diagnosis",
          "display": "Encounter Diagnosis"
        } ]
      } ],
      "code": {
        "coding": [ {
          "system": "http://snomed.info/sct",
          "version": "http://snomed.info/sct/731000124108/version/20250301",
          "code": "213151004",
          "display": "Heart transplant failure and rejection (disorder)"
        } ]
      },
      "subject": {
        "reference": "Patient/ce22375e-abe0-4fd5-a4ad-07d8a6056045"
      },
      "recordedDate": "2026-02-14T14:41:00.000Z"
    }
  }, {
    "fullUrl": "https://madie.cms.gov/Encounter/3784c0a9-92a8-4b97-95f9-9886c0a547c6",
    "resource": {
      "resourceType": "Encounter",
      "id": "3784c0a9-92a8-4b97-95f9-9886c0a547c6",
      "meta": {
        "profile": [ "http://hl7.org/fhir/us/qicore/StructureDefinition/qicore-encounter" ]
      },
      "status": "finished",
      "class": {
        "system": "http://terminology.hl7.org/CodeSystem/v3-ActCode",
        "code": "AMB",
        "display": "ambulatory"
      },
      "type": [ {
        "coding": [ {
          "system": "http://www.ama-assn.org/go/cpt",
          "version": "2024",
          "code": "99212"
        } ]
      } ],
      "subject": {
        "reference": "Patient/ce22375e-abe0-4fd5-a4ad-07d8a6056045"
      },
      "period": {
        "start": "2026-07-20T11:50:00.000Z",
        "end": "2026-07-20T11:50:00.000Z"
      },
      "length": {
        "value": 0,
        "unit": "days"
      }
    }
  }, {
    "fullUrl": "https://madie.cms.gov/Condition/8eb7202b-d400-440d-b415-fbfb5258045a",
    "resource": {
      "resourceType": "Condition",
      "id": "8eb7202b-d400-440d-b415-fbfb5258045a",
      "meta": {
        "profile": [ "http://hl7.org/fhir/us/qicore/StructureDefinition/qicore-condition-encounter-diagnosis" ]
      },
      "clinicalStatus": {
        "coding": [ {
          "system": "http://terminology.hl7.org/CodeSystem/condition-clinical",
          "code": "active",
          "display": "Active"
        } ]
      },
      "verificationStatus": {
        "coding": [ {
          "system": "http://terminology.hl7.org/CodeSystem/condition-ver-status",
          "code": "confirmed",
          "display": "Confirmed"
        } ]
      },
      "category": [ {
        "coding": [ {
          "system": "http://terminology.hl7.org/CodeSystem/condition-category",
          "code": "encounter-diagnosis",
          "display": "Encounter Diagnosis"
        } ]
      } ],
      "code": {
        "coding": [ {
          "system": "http://hl7.org/fhir/sid/icd-10-cm",
          "version": "2024",
          "code": "I11.0"
        } ]
      },
      "subject": {
        "reference": "Patient/ce22375e-abe0-4fd5-a4ad-07d8a6056045"
      },
      "onsetPeriod": {
        "start": "2026-04-11T10:00:00.000Z"
      },
      "recordedDate": "2026-04-11T10:00:00.000Z"
    }
  }, {
    "fullUrl": "https://madie.cms.gov/Condition/0c99a282-3468-4ff8-881e-ac7a14778dbf",
    "resource": {
      "resourceType": "Condition",
      "id": "0c99a282-3468-4ff8-881e-ac7a14778dbf",
      "meta": {
        "profile": [ "http://hl7.org/fhir/us/qicore/StructureDefinition/qicore-condition-encounter-diagnosis" ]
      },
      "clinicalStatus": {
        "coding": [ {
          "system": "http://terminology.hl7.org/CodeSystem/condition-clinical",
          "code": "active",
          "display": "Active"
        } ]
      },
      "verificationStatus": {
        "coding": [ {
          "system": "http://terminology.hl7.org/CodeSystem/condition-ver-status",
          "code": "confirmed",
          "display": "Confirmed"
        } ]
      },
      "category": [ {
        "coding": [ {
          "system": "http://terminology.hl7.org/CodeSystem/condition-category",
          "code": "encounter-diagnosis",
          "display": "Encounter Diagnosis"
        } ]
      } ],
      "severity": {
        "coding": [ {
          "system": "http://snomed.info/sct",
          "version": "http://snomed.info/sct/731000124108/version/20240301",
          "code": "24484000",
          "display": "Severe (severity modifier) (qualifier value)"
        } ]
      },
      "code": {
        "coding": [ {
          "system": "http://snomed.info/sct",
          "version": "http://snomed.info/sct/731000124108/version/20250301",
          "code": "134401001",
          "display": "Left ventricular systolic dysfunction (disorder)"
        } ]
      },
      "subject": {
        "reference": "Patient/ce22375e-abe0-4fd5-a4ad-07d8a6056045"
      },
      "onsetPeriod": {
        "start": "2026-04-14T14:41:00.000Z"
      },
      "recordedDate": "2026-04-14T14:41:00.000Z"
    }
  }, {
    "fullUrl": "https://madie.cms.gov/MeasureReport/ccef4bb4-8add-4cb7-bdb9-d760e02e53fc",
    "resource": {
      "resourceType": "MeasureReport",
      "id": "ccef4bb4-8add-4cb7-bdb9-d760e02e53fc",
      "meta": {
        "profile": [ "http://hl7.org/fhir/us/cqfmeasures/StructureDefinition/test-case-cqfm" ]
      },
      "contained": [ {
        "resourceType": "Parameters",
        "id": "7b6436c6-b982-4b9d-a294-e6842a6c4adc-parameters",
        "parameter": [ {
          "name": "subject",
          "valueString": "ce22375e-abe0-4fd5-a4ad-07d8a6056045"
        } ]
      } ],
      "extension": [ {
        "url": "http://hl7.org/fhir/StructureDefinition/cqf-inputParameters",
        "valueReference": {
          "reference": "#7b6436c6-b982-4b9d-a294-e6842a6c4adc-parameters"
        }
      }, {
        "url": "http://hl7.org/fhir/us/cqfmeasures/StructureDefinition/cqfm-testCaseDescription",
        "valueMarkdown": "Meeting Denominator Exclusion d/t Heart Transplant Complication condition with recorded datetime before LVSD encounter"
      } ],
      "modifierExtension": [ {
        "url": "http://hl7.org/fhir/us/cqfmeasures/StructureDefinition/cqfm-isTestCase",
        "valueBoolean": true
      } ],
      "status": "complete",
      "type": "individual",
      "measure": "https://madie.cms.gov/Measure/CMS144FHIRHFBetaBlockerForLVSD",
      "period": {
        "start": "2026-01-01",
        "end": "2026-12-31"
      },
      "group": [ {
        "id": "Group_1",
        "population": [ {
          "id": "InitialPopulation_1",
          "code": {
            "coding": [ {
              "system": "http://terminology.hl7.org/CodeSystem/measure-population",
              "code": "initial-population",
              "display": "Initial Population"
            } ]
          },
          "count": 1
        }, {
          "id": "Denominator_1",
          "code": {
            "coding": [ {
              "system": "http://terminology.hl7.org/CodeSystem/measure-population",
              "code": "denominator",
              "display": "Denominator"
            } ]
          },
          "count": 1
        }, {
          "id": "DenominatorExclusion_1",
          "code": {
            "coding": [ {
              "system": "http://terminology.hl7.org/CodeSystem/measure-population",
              "code": "denominator-exclusion",
              "display": "Denominator Exclusion"
            } ]
          },
          "count": 1
        }, {
          "id": "Numerator_1",
          "code": {
            "coding": [ {
              "system": "http://terminology.hl7.org/CodeSystem/measure-population",
              "code": "numerator",
              "display": "Numerator"
            } ]
          },
          "count": 0
        }, {
          "id": "DenominatorException_1",
          "code": {
            "coding": [ {
              "system": "http://terminology.hl7.org/CodeSystem/measure-population",
              "code": "denominator-exception",
              "display": "Denominator Exception"
            } ]
          },
          "count": 0
        } ],
        "measureScore": {
          "value": 1.0
        }
      } ],
      "evaluatedResource": [ {
        "reference": "Patient/ce22375e-abe0-4fd5-a4ad-07d8a6056045"
      }, {
        "reference": "Encounter/9cd92ac7-7a68-4ff3-a5ac-7ba17c0232a0"
      }, {
        "reference": "Condition/824e5103-bf27-441e-a41a-654dc6812fe3"
      }, {
        "reference": "Encounter/3784c0a9-92a8-4b97-95f9-9886c0a547c6"
      }, {
        "reference": "Condition/8eb7202b-d400-440d-b415-fbfb5258045a"
      }, {
        "reference": "Condition/0c99a282-3468-4ff8-881e-ac7a14778dbf"
      } ]
    }
  } ]
}