{
  "resourceType": "Bundle",
  "id": "62fd4b6a0968f8012246b316",
  "type": "collection",
  "entry": [ {
    "fullUrl": "https://madie.cms.gov/Patient/c1493a4a-56c3-40ba-b209-edca6d9a0b9d",
    "resource": {
      "resourceType": "Patient",
      "id": "c1493a4a-56c3-40ba-b209-edca6d9a0b9d",
      "meta": {
        "profile": [ "http://hl7.org/fhir/us/qicore/StructureDefinition/qicore-patient" ]
      },
      "extension": [ {
        "url": "http://hl7.org/fhir/us/core/StructureDefinition/us-core-race",
        "extension": [ {
          "url": "ombCategory",
          "valueCoding": {
            "system": "urn:oid:2.16.840.1.113883.6.238",
            "code": "1002-5",
            "display": "American Indian or Alaska Native",
            "userSelected": true
          }
        }, {
          "url": "text",
          "valueString": "American Indian or Alaska Native"
        } ]
      }, {
        "url": "http://hl7.org/fhir/us/core/StructureDefinition/us-core-ethnicity",
        "extension": [ {
          "url": "ombCategory",
          "valueCoding": {
            "system": "urn:oid:2.16.840.1.113883.6.238",
            "code": "2135-2",
            "display": "Hispanic or Latino",
            "userSelected": true
          }
        }, {
          "url": "text",
          "valueString": "Hispanic or Latino"
        } ]
      } ],
      "identifier": [ {
        "type": {
          "coding": [ {
            "system": "http://terminology.hl7.org/CodeSystem/v2-0203",
            "code": "MR"
          } ]
        },
        "system": "https://bonnie-fhir.healthit.gov/",
        "value": "62fd4b6a0968f8012246b316"
      } ],
      "name": [ {
        "family": "NUMERPass",
        "given": [ "2Referrals1MinApart1stClosed" ]
      } ],
      "gender": "female",
      "birthDate": "1990-12-31"
    }
  }, {
    "fullUrl": "https://madie.cms.gov/Task/4d2cf35f-55a9-4f15-93d8-83949c2bf39e",
    "resource": {
      "resourceType": "Task",
      "id": "4d2cf35f-55a9-4f15-93d8-83949c2bf39e",
      "meta": {
        "profile": [ "http://hl7.org/fhir/us/qicore/StructureDefinition/qicore-task" ]
      },
      "identifier": [ {
        "use": "official",
        "system": "http:/goodhealth.org/identifiers",
        "value": "20170201-002"
      } ],
      "basedOn": [ {
        "reference": "ServiceRequest/52f7d0f5-31c0-4de4-bddc-04297bd6832f"
      } ],
      "status": "completed",
      "intent": "order",
      "priority": "routine",
      "code": {
        "coding": [ {
          "system": "http://hl7.org/fhir/CodeSystem/task-code",
          "code": "fulfill",
          "display": "Fulfill the focal request",
          "userSelected": true
        } ]
      },
      "for": {
        "reference": "Patient/c1493a4a-56c3-40ba-b209-edca6d9a0b9d"
      },
      "executionPeriod": {
        "start": "2026-07-06T08:00:00Z",
        "end": "2026-07-06T08:10:00Z"
      },
      "reasonCode": {
        "coding": [ {
          "system": "http://loinc.org",
          "version": "2.72",
          "code": "11488-4",
          "display": "Consult note",
          "userSelected": true
        } ]
      }
    }
  }, {
    "fullUrl": "https://madie.cms.gov/ServiceRequest/52f7d0f5-31c0-4de4-bddc-04297bd6832f",
    "resource": {
      "resourceType": "ServiceRequest",
      "id": "52f7d0f5-31c0-4de4-bddc-04297bd6832f",
      "meta": {
        "profile": [ "http://hl7.org/fhir/us/qicore/StructureDefinition/qicore-servicerequest" ]
      },
      "status": "active",
      "intent": "order",
      "code": {
        "coding": [ {
          "system": "http://snomed.info/sct",
          "version": "http://snomed.info/sct/731000124108/version/20250301",
          "code": "103696004",
          "display": "Patient referral to specialist (procedure)",
          "userSelected": true
        } ]
      },
      "subject": {
        "reference": "Patient/c1493a4a-56c3-40ba-b209-edca6d9a0b9d"
      },
      "authoredOn": "2026-06-06T08:00:00Z"
    }
  }, {
    "fullUrl": "https://madie.cms.gov/Task/0fda219d-2831-4de2-aabe-b0ffd78dbec7",
    "resource": {
      "resourceType": "Task",
      "id": "0fda219d-2831-4de2-aabe-b0ffd78dbec7",
      "meta": {
        "profile": [ "http://hl7.org/fhir/us/qicore/StructureDefinition/qicore-task" ]
      },
      "identifier": [ {
        "use": "official",
        "system": "http:/goodhealth.org/identifiers",
        "value": "20170201-002"
      } ],
      "basedOn": [ {
        "reference": "ServiceRequest/03f10d0f-5a37-4b31-9b2b-b2db0c06b731"
      } ],
      "status": "failed",
      "intent": "order",
      "priority": "routine",
      "code": {
        "coding": [ {
          "system": "http://hl7.org/fhir/CodeSystem/task-code",
          "code": "fulfill",
          "display": "Fulfill the focal request",
          "userSelected": true
        } ]
      },
      "for": {
        "reference": "Patient/c1493a4a-56c3-40ba-b209-edca6d9a0b9d"
      },
      "executionPeriod": {
        "start": "2026-07-06T08:01:00Z",
        "end": "2026-07-06T08:15:00Z"
      },
      "reasonCode": {
        "coding": [ {
          "system": "http://loinc.org",
          "version": "2.72",
          "code": "11488-4",
          "display": "Consult note",
          "userSelected": true
        } ]
      }
    }
  }, {
    "fullUrl": "https://madie.cms.gov/ServiceRequest/03f10d0f-5a37-4b31-9b2b-b2db0c06b731",
    "resource": {
      "resourceType": "ServiceRequest",
      "id": "03f10d0f-5a37-4b31-9b2b-b2db0c06b731",
      "meta": {
        "profile": [ "http://hl7.org/fhir/us/qicore/StructureDefinition/qicore-servicerequest" ]
      },
      "status": "active",
      "intent": "order",
      "code": {
        "coding": [ {
          "system": "http://snomed.info/sct",
          "version": "http://snomed.info/sct/731000124108/version/20250301",
          "code": "103696004",
          "display": "Patient referral to specialist (procedure)",
          "userSelected": true
        } ]
      },
      "subject": {
        "reference": "Patient/c1493a4a-56c3-40ba-b209-edca6d9a0b9d"
      },
      "authoredOn": "2026-06-06T08:01:00Z"
    }
  }, {
    "fullUrl": "https://madie.cms.gov/Encounter/d4ac9e06-e433-4e57-83a1-7cd8fd865a75",
    "resource": {
      "resourceType": "Encounter",
      "id": "d4ac9e06-e433-4e57-83a1-7cd8fd865a75",
      "meta": {
        "profile": [ "http://hl7.org/fhir/us/qicore/StructureDefinition/qicore-encounter" ]
      },
      "status": "finished",
      "class": {
        "system": "http://terminology.hl7.org/CodeSystem/v3-ActCode",
        "code": "AMB",
        "display": "ambulatory"
      },
      "type": [ {
        "coding": [ {
          "system": "http://snomed.info/sct",
          "version": "2022-03",
          "code": "359960003",
          "display": "Ophthalmologic examination and evaluation under general anesthesia, limited (procedure)",
          "userSelected": true
        } ]
      } ],
      "subject": {
        "reference": "Patient/c1493a4a-56c3-40ba-b209-edca6d9a0b9d"
      },
      "period": {
        "start": "2026-05-27T08:00:00Z",
        "end": "2026-05-27T09:15:00Z"
      }
    }
  }, {
    "fullUrl": "https://madie.cms.gov/Coverage/2542797e-4938-4039-b43f-dcee7ee432b1",
    "resource": {
      "resourceType": "Coverage",
      "id": "2542797e-4938-4039-b43f-dcee7ee432b1",
      "meta": {
        "profile": [ "http://hl7.org/fhir/us/qicore/StructureDefinition/qicore-coverage" ]
      },
      "status": "active",
      "subscriberId": "123456",
      "beneficiary": {
        "reference": "Patient/c1493a4a-56c3-40ba-b209-edca6d9a0b9d"
      },
      "relationship": {
        "coding": [ {
          "system": "http://terminology.hl7.org/CodeSystem/subscriber-relationship",
          "code": "self",
          "display": "Self"
        } ]
      },
      "payor": [ {
        "reference": "Organization/4cfc0a43-05f8-4bd9-a09d-a56388082776"
      } ]
    }
  }, {
    "fullUrl": "https://madie.cms.gov/Organization/4cfc0a43-05f8-4bd9-a09d-a56388082776",
    "resource": {
      "resourceType": "Organization",
      "id": "4cfc0a43-05f8-4bd9-a09d-a56388082776",
      "meta": {
        "profile": [ "http://hl7.org/fhir/us/qicore/StructureDefinition/qicore-organization" ]
      },
      "identifier": [ {
        "use": "temp",
        "system": "urn:oid:2.16.840.1.113883.4.4",
        "value": "21-3259825"
      } ],
      "active": true,
      "type": [ {
        "coding": [ {
          "system": "http://terminology.hl7.org/CodeSystem/organization-type",
          "code": "pay",
          "display": "Payer"
        } ]
      } ],
      "name": "Blue Cross Blue Shield of Texas",
      "telecom": [ {
        "system": "phone",
        "value": "(+1) 972-766-6900"
      } ],
      "address": [ {
        "use": "billing",
        "type": "postal",
        "line": [ "P.O. Box 660044" ],
        "city": "Dallas",
        "state": "TX",
        "postalCode": "75266-0044",
        "country": "USA"
      } ]
    }
  }, {
    "fullUrl": "https://madie.cms.gov/Practitioner/5be69f8e-1a7d-4e99-91ea-fe83ac416d12",
    "resource": {
      "resourceType": "Practitioner",
      "id": "5be69f8e-1a7d-4e99-91ea-fe83ac416d12",
      "meta": {
        "profile": [ "http://hl7.org/fhir/us/qicore/StructureDefinition/qicore-practitioner" ]
      },
      "identifier": [ {
        "system": "http://hl7.org/fhir/sid/us-npi",
        "value": "1689411712"
      } ],
      "name": [ {
        "family": "Evil",
        "prefix": [ "Dr" ]
      } ]
    }
  }, {
    "fullUrl": "https://madie.cms.gov/MeasureReport/d4c20a3e-1df6-4ff9-8b89-1e266e6e110a",
    "resource": {
      "resourceType": "MeasureReport",
      "id": "d4c20a3e-1df6-4ff9-8b89-1e266e6e110a",
      "meta": {
        "profile": [ "http://hl7.org/fhir/us/cqfmeasures/StructureDefinition/test-case-cqfm" ]
      },
      "contained": [ {
        "resourceType": "Parameters",
        "id": "7eefebf2-1056-4f60-9ab2-adc88023dce2-parameters",
        "parameter": [ {
          "name": "subject",
          "valueString": "c1493a4a-56c3-40ba-b209-edca6d9a0b9d"
        } ]
      } ],
      "extension": [ {
        "url": "http://hl7.org/fhir/StructureDefinition/cqf-inputParameters",
        "valueReference": {
          "reference": "#7eefebf2-1056-4f60-9ab2-adc88023dce2-parameters"
        }
      }, {
        "url": "http://hl7.org/fhir/us/cqfmeasures/StructureDefinition/cqfm-testCaseDescription",
        "valueMarkdown": " 2 referrals 1 minute apart with 1st referral receiving a consultant report. 2nd consultant report with failed status "
      } ],
      "modifierExtension": [ {
        "url": "http://hl7.org/fhir/us/cqfmeasures/StructureDefinition/cqfm-isTestCase",
        "valueBoolean": true
      } ],
      "status": "complete",
      "type": "individual",
      "measure": "https://madie.cms.gov/Measure/CMS50FHIRReceiptofSpecialistReport",
      "period": {
        "start": "2026-01-01",
        "end": "2026-12-31"
      },
      "group": [ {
        "id": "Group_1",
        "population": [ {
          "id": "InitialPopulation_1",
          "code": {
            "coding": [ {
              "system": "http://terminology.hl7.org/CodeSystem/measure-population",
              "code": "initial-population",
              "display": "Initial Population"
            } ]
          },
          "count": 1
        }, {
          "id": "Denominator_1",
          "code": {
            "coding": [ {
              "system": "http://terminology.hl7.org/CodeSystem/measure-population",
              "code": "denominator",
              "display": "Denominator"
            } ]
          },
          "count": 1
        }, {
          "id": "Numerator_1",
          "code": {
            "coding": [ {
              "system": "http://terminology.hl7.org/CodeSystem/measure-population",
              "code": "numerator",
              "display": "Numerator"
            } ]
          },
          "count": 1
        } ],
        "measureScore": {
          "value": 1.0
        }
      } ],
      "evaluatedResource": [ {
        "reference": "Patient/c1493a4a-56c3-40ba-b209-edca6d9a0b9d"
      }, {
        "reference": "Task/4d2cf35f-55a9-4f15-93d8-83949c2bf39e"
      }, {
        "reference": "ServiceRequest/52f7d0f5-31c0-4de4-bddc-04297bd6832f"
      }, {
        "reference": "Task/0fda219d-2831-4de2-aabe-b0ffd78dbec7"
      }, {
        "reference": "ServiceRequest/03f10d0f-5a37-4b31-9b2b-b2db0c06b731"
      }, {
        "reference": "Encounter/d4ac9e06-e433-4e57-83a1-7cd8fd865a75"
      }, {
        "reference": "Coverage/2542797e-4938-4039-b43f-dcee7ee432b1"
      }, {
        "reference": "Organization/4cfc0a43-05f8-4bd9-a09d-a56388082776"
      }, {
        "reference": "Practitioner/5be69f8e-1a7d-4e99-91ea-fe83ac416d12"
      } ]
    }
  } ]
}