{
  "resourceType": "Bundle",
  "id": "60eda3c80edfe2d9c328006e",
  "type": "collection",
  "entry": [ {
    "fullUrl": "https://madie.cms.gov/Patient/74e4451c-12d0-4e5b-8f99-c9410766c3c4",
    "resource": {
      "resourceType": "Patient",
      "id": "74e4451c-12d0-4e5b-8f99-c9410766c3c4",
      "meta": {
        "profile": [ "http://hl7.org/fhir/us/qicore/StructureDefinition/qicore-patient" ]
      },
      "extension": [ {
        "url": "http://hl7.org/fhir/us/core/StructureDefinition/us-core-race",
        "extension": [ {
          "url": "ombCategory",
          "valueCoding": {
            "system": "urn:oid:2.16.840.1.113883.6.238",
            "code": "1002-5",
            "display": "American Indian or Alaska Native",
            "userSelected": true
          }
        }, {
          "url": "text",
          "valueString": "American Indian or Alaska Native"
        }, {
          "url": "detailed",
          "valueCoding": {
            "system": "urn:oid:2.16.840.1.113883.6.238",
            "code": "1653-5",
            "display": "Tohono O'Odham"
          }
        } ]
      }, {
        "url": "http://hl7.org/fhir/us/core/StructureDefinition/us-core-ethnicity",
        "extension": [ {
          "url": "ombCategory",
          "valueCoding": {
            "system": "urn:oid:2.16.840.1.113883.6.238",
            "code": "2135-2",
            "display": "Hispanic or Latino",
            "userSelected": true
          }
        }, {
          "url": "text",
          "valueString": "Not Hispanic or Latino"
        }, {
          "url": "detailed",
          "valueCoding": {
            "system": "urn:oid:2.16.840.1.113883.6.238",
            "code": "2153-5",
            "display": "Mexican American Indian"
          }
        } ]
      } ],
      "identifier": [ {
        "type": {
          "coding": [ {
            "system": "http://terminology.hl7.org/CodeSystem/v2-0203",
            "code": "MR"
          } ]
        },
        "system": "https://bonnie-fhir.healthit.gov/",
        "value": "60eda3c80edfe2d9c328006e"
      } ],
      "name": [ {
        "family": "IPPFail",
        "given": [ "Age65Dec31" ]
      } ],
      "gender": "female",
      "birthDate": "1959-01-01"
    }
  }, {
    "fullUrl": "https://madie.cms.gov/Organization/0c33ba8b-b9a8-475b-8b16-5cd4ccdad449",
    "resource": {
      "resourceType": "Organization",
      "id": "0c33ba8b-b9a8-475b-8b16-5cd4ccdad449",
      "meta": {
        "profile": [ "http://hl7.org/fhir/us/qicore/StructureDefinition/qicore-organization" ]
      },
      "identifier": [ {
        "use": "temp",
        "system": "urn:oid:2.16.840.1.113883.4.336",
        "value": "APayer"
      } ],
      "active": true,
      "type": [ {
        "coding": [ {
          "system": "http://terminology.hl7.org/CodeSystem/organization-type",
          "code": "pay",
          "display": "Payer"
        } ],
        "text": "Healthcare Payer"
      } ],
      "name": "Test Medical Center",
      "telecom": [ {
        "system": "phone",
        "value": "(+1) 800-123-4567"
      }, {
        "system": "email",
        "value": "mypayer@test.org"
      } ],
      "address": [ {
        "line": [ "600 Maple Avenue" ],
        "city": "Indianapolis",
        "state": "IN",
        "postalCode": "46237",
        "country": "USA"
      } ]
    }
  }, {
    "fullUrl": "https://madie.cms.gov/Coverage/252a4709-96d7-43fb-9a07-fc4fa064d48e",
    "resource": {
      "resourceType": "Coverage",
      "id": "252a4709-96d7-43fb-9a07-fc4fa064d48e",
      "meta": {
        "profile": [ "http://hl7.org/fhir/us/qicore/StructureDefinition/qicore-coverage" ]
      },
      "identifier": [ {
        "system": "http://benefitsinc.com/certificate",
        "value": "12345"
      } ],
      "status": "active",
      "type": {
        "coding": [ {
          "system": "https://nahdo.org/sopt",
          "code": "59",
          "display": "Other Private Insurance"
        } ]
      },
      "policyHolder": {
        "reference": "Patient/74e4451c-12d0-4e5b-8f99-c9410766c3c4"
      },
      "subscriber": {
        "reference": "Patient/74e4451c-12d0-4e5b-8f99-c9410766c3c4"
      },
      "subscriberId": "123456",
      "beneficiary": {
        "reference": "Patient/74e4451c-12d0-4e5b-8f99-c9410766c3c4"
      },
      "dependent": "0",
      "relationship": {
        "coding": [ {
          "system": "http://terminology.hl7.org/CodeSystem/subscriber-relationship",
          "code": "self"
        } ]
      },
      "period": {
        "start": "2023-01-01T06:00:00.000+00:00",
        "end": "2023-01-01T11:06:01.000+00:00"
      },
      "payor": [ {
        "reference": "Organization/0c33ba8b-b9a8-475b-8b16-5cd4ccdad449"
      } ],
      "order": 9
    }
  }, {
    "fullUrl": "https://madie.cms.gov/Encounter/82e1393d-1775-423f-acd8-b221a0844f3d",
    "resource": {
      "resourceType": "Encounter",
      "id": "82e1393d-1775-423f-acd8-b221a0844f3d",
      "meta": {
        "profile": [ "http://hl7.org/fhir/us/qicore/StructureDefinition/qicore-encounter" ]
      },
      "status": "finished",
      "class": {
        "system": "http://terminology.hl7.org/CodeSystem/v3-ActCode",
        "code": "AMB",
        "display": "ambulatory",
        "userSelected": true
      },
      "type": [ {
        "coding": [ {
          "system": "http://snomed.info/sct",
          "version": "2020-09",
          "code": "185463005",
          "display": "Visit out of hours (procedure)",
          "userSelected": true
        } ]
      } ],
      "subject": {
        "reference": "Patient/74e4451c-12d0-4e5b-8f99-c9410766c3c4"
      },
      "period": {
        "start": "2026-04-04T08:00:00.000+00:00",
        "end": "2026-04-04T08:15:00.000+00:00"
      }
    }
  }, {
    "fullUrl": "https://madie.cms.gov/MeasureReport/7aff3fc2-6220-4b74-9401-f67695ad0281",
    "resource": {
      "resourceType": "MeasureReport",
      "id": "7aff3fc2-6220-4b74-9401-f67695ad0281",
      "meta": {
        "profile": [ "http://hl7.org/fhir/us/cqfmeasures/StructureDefinition/test-case-cqfm" ]
      },
      "contained": [ {
        "resourceType": "Parameters",
        "id": "581ce114-86bf-4df7-8c55-849291355f72-parameters",
        "parameter": [ {
          "name": "subject",
          "valueString": "74e4451c-12d0-4e5b-8f99-c9410766c3c4"
        } ]
      } ],
      "extension": [ {
        "url": "http://hl7.org/fhir/StructureDefinition/cqf-inputParameters",
        "valueReference": {
          "reference": "#581ce114-86bf-4df7-8c55-849291355f72-parameters"
        }
      }, {
        "url": "http://hl7.org/fhir/us/cqfmeasures/StructureDefinition/cqfm-testCaseDescription",
        "valueMarkdown": "Patient turns 66 on start of MP."
      } ],
      "modifierExtension": [ {
        "url": "http://hl7.org/fhir/us/cqfmeasures/StructureDefinition/cqfm-isTestCase",
        "valueBoolean": true
      } ],
      "status": "complete",
      "type": "individual",
      "measure": "https://madie.cms.gov/Measure/CMS349FHIRHIVScreening",
      "period": {
        "start": "2026-01-01",
        "end": "2026-12-31"
      },
      "group": [ {
        "id": "Group_1",
        "population": [ {
          "id": "InitialPopulation_1",
          "code": {
            "coding": [ {
              "system": "http://terminology.hl7.org/CodeSystem/measure-population",
              "code": "initial-population",
              "display": "Initial Population"
            } ]
          },
          "count": 0
        }, {
          "id": "Denominator_1",
          "code": {
            "coding": [ {
              "system": "http://terminology.hl7.org/CodeSystem/measure-population",
              "code": "denominator",
              "display": "Denominator"
            } ]
          },
          "count": 0
        }, {
          "id": "DenominatorExclusion_1",
          "code": {
            "coding": [ {
              "system": "http://terminology.hl7.org/CodeSystem/measure-population",
              "code": "denominator-exclusion",
              "display": "Denominator Exclusion"
            } ]
          },
          "count": 0
        }, {
          "id": "Numerator_1",
          "code": {
            "coding": [ {
              "system": "http://terminology.hl7.org/CodeSystem/measure-population",
              "code": "numerator",
              "display": "Numerator"
            } ]
          },
          "count": 0
        }, {
          "id": "DenominatorException_1",
          "code": {
            "coding": [ {
              "system": "http://terminology.hl7.org/CodeSystem/measure-population",
              "code": "denominator-exception",
              "display": "Denominator Exception"
            } ]
          },
          "count": 0
        } ],
        "measureScore": {
          "value": 1.0
        }
      } ],
      "evaluatedResource": [ {
        "reference": "Patient/74e4451c-12d0-4e5b-8f99-c9410766c3c4"
      }, {
        "reference": "Organization/0c33ba8b-b9a8-475b-8b16-5cd4ccdad449"
      }, {
        "reference": "Coverage/252a4709-96d7-43fb-9a07-fc4fa064d48e"
      }, {
        "reference": "Encounter/82e1393d-1775-423f-acd8-b221a0844f3d"
      } ]
    }
  } ]
}