{
  "resourceType": "Bundle",
  "id": "633b3f9e0968f80122503cbb",
  "type": "transaction",
  "entry": [ {
    "fullUrl": "https://madie.cms.gov/Patient/a1f320ce-9962-408d-9b45-ee06251601d0",
    "resource": {
      "resourceType": "Patient",
      "id": "a1f320ce-9962-408d-9b45-ee06251601d0",
      "meta": {
        "profile": [ "http://hl7.org/fhir/us/qicore/StructureDefinition/qicore-patient" ]
      },
      "text": {
        "status": "generated",
        "div": "<div xmlns=\"http://www.w3.org/1999/xhtml\"><div class=\"hapiHeaderText\">SexIsMale<b>IPOPPass</b></div><table class=\"hapiPropertyTable\"><tbody><tr><td>Date of birth</td><td><span>01 February 2004</span></td></tr></tbody></table></div>"
      },
      "extension": [ {
        "url": "http://hl7.org/fhir/us/core/StructureDefinition/us-core-race",
        "extension": [ {
          "url": "ombCategory",
          "valueCoding": {
            "system": "urn:oid:2.16.840.1.113883.6.238",
            "code": "1002-5",
            "display": "American Indian or Alaska Native",
            "userSelected": true
          }
        }, {
          "url": "text",
          "valueString": "American Indian or Alaska Native"
        } ]
      }, {
        "url": "http://hl7.org/fhir/us/core/StructureDefinition/us-core-ethnicity",
        "extension": [ {
          "url": "ombCategory",
          "valueCoding": {
            "system": "urn:oid:2.16.840.1.113883.6.238",
            "code": "2135-2",
            "display": "Hispanic or Latino",
            "userSelected": true
          }
        }, {
          "url": "text",
          "valueString": "Hispanic or Latino"
        } ]
      }, {
        "url": "http://hl7.org/fhir/us/core/StructureDefinition/us-core-sex",
        "valueCode": "248153007"
      } ],
      "identifier": [ {
        "type": {
          "coding": [ {
            "system": "http://terminology.hl7.org/CodeSystem/v2-0203",
            "code": "MR"
          } ]
        },
        "system": "https://bonnie-fhir.healthit.gov/",
        "value": "633b3f9e0968f80122503cbb"
      } ],
      "active": true,
      "name": [ {
        "use": "usual",
        "family": "IPOPPass",
        "given": [ "SexIsMale" ]
      } ],
      "gender": "male",
      "birthDate": "2017-02-01"
    },
    "request": {
      "method": "PUT",
      "url": "Patient/a1f320ce-9962-408d-9b45-ee06251601d0"
    }
  }, {
    "fullUrl": "https://madie.cms.gov/Encounter/355d95f7-1636-4570-9b46-60ccae72a727",
    "resource": {
      "resourceType": "Encounter",
      "id": "355d95f7-1636-4570-9b46-60ccae72a727",
      "meta": {
        "profile": [ "http://hl7.org/fhir/us/qicore/StructureDefinition/qicore-encounter" ]
      },
      "status": "finished",
      "class": {
        "system": "http://terminology.hl7.org/CodeSystem/v3-ActCode",
        "code": "IMP",
        "display": "inpatient encounter"
      },
      "type": [ {
        "coding": [ {
          "system": "http://snomed.info/sct",
          "code": "183452005"
        } ]
      } ],
      "subject": {
        "reference": "Patient/a1f320ce-9962-408d-9b45-ee06251601d0"
      },
      "period": {
        "start": "2026-02-01T08:00:00.000+00:00",
        "end": "2026-02-05T08:15:00.000+00:00"
      },
      "diagnosis": [ {
        "condition": {
          "reference": "Condition/Condition-2"
        },
        "use": {
          "coding": [ {
            "system": "http://snomed.info/sct",
            "code": "169826009",
            "display": "Single live birth from singleton pregnancy (finding)"
          } ]
        }
      } ]
    },
    "request": {
      "method": "PUT",
      "url": "Encounter/355d95f7-1636-4570-9b46-60ccae72a727"
    }
  }, {
    "fullUrl": "https://madie.cms.gov/Procedure/22c19504-b9a3-495f-a502-f898837f33b9",
    "resource": {
      "resourceType": "Procedure",
      "id": "22c19504-b9a3-495f-a502-f898837f33b9",
      "meta": {
        "profile": [ "http://hl7.org/fhir/us/qicore/StructureDefinition/qicore-procedure" ]
      },
      "extension": [ {
        "url": "http://hl7.org/fhir/us/qicore/StructureDefinition/qicore-recorded",
        "valueDateTime": "2014-04-05T13:35:00.000+00:00"
      } ],
      "status": "completed",
      "code": {
        "coding": [ {
          "system": "http://snomed.info/sct",
          "version": "2022-09",
          "code": "10745001",
          "display": "Delivery of transverse presentation (procedure)",
          "userSelected": true
        } ]
      },
      "subject": {
        "reference": "Patient/a1f320ce-9962-408d-9b45-ee06251601d0"
      },
      "performedPeriod": {
        "start": "2026-02-01T08:00:00.000+00:00",
        "end": "2026-02-05T08:15:00.000+00:00"
      }
    },
    "request": {
      "method": "PUT",
      "url": "Procedure/22c19504-b9a3-495f-a502-f898837f33b9"
    }
  }, {
    "fullUrl": "https://madie.cms.gov/Coverage/37b0cc5b-64ee-4e12-91cb-46f53cbc769a",
    "resource": {
      "resourceType": "Coverage",
      "id": "37b0cc5b-64ee-4e12-91cb-46f53cbc769a",
      "meta": {
        "profile": [ "http://hl7.org/fhir/us/qicore/StructureDefinition/qicore-coverage" ]
      },
      "status": "active",
      "beneficiary": {
        "reference": "Patient/a1f320ce-9962-408d-9b45-ee06251601d0"
      },
      "payor": [ {
        "reference": "Organization/38fcf26f-ce68-4dee-a3a2-1e61e2d88ee4"
      } ]
    },
    "request": {
      "method": "PUT",
      "url": "Coverage/37b0cc5b-64ee-4e12-91cb-46f53cbc769a"
    }
  }, {
    "fullUrl": "https://madie.cms.gov/Organization/38fcf26f-ce68-4dee-a3a2-1e61e2d88ee4",
    "resource": {
      "resourceType": "Organization",
      "id": "38fcf26f-ce68-4dee-a3a2-1e61e2d88ee4",
      "meta": {
        "profile": [ "http://hl7.org/fhir/us/qicore/StructureDefinition/qicore-organization" ]
      },
      "identifier": [ {
        "use": "temp",
        "system": "urn:oid:2.16.840.1.113883.4.4",
        "value": "21-3259825"
      } ],
      "active": true,
      "type": [ {
        "coding": [ {
          "system": "http://terminology.hl7.org/CodeSystem/organization-type",
          "code": "pay",
          "display": "Payer"
        } ]
      } ],
      "name": "Blue Cross Blue Shield of Texas",
      "telecom": [ {
        "system": "phone",
        "value": "(+1) 972-766-6900"
      } ],
      "address": [ {
        "use": "billing",
        "type": "postal",
        "line": [ "P.O. Box 660044" ],
        "city": "Dallas",
        "state": "TX",
        "postalCode": "75266-0044",
        "country": "USA"
      } ]
    },
    "request": {
      "method": "PUT",
      "url": "Organization/38fcf26f-ce68-4dee-a3a2-1e61e2d88ee4"
    }
  }, {
    "fullUrl": "https://madie.cms.gov/Practitioner/9be3c3f5-2e85-4eef-80b7-9ad9bdd37c97",
    "resource": {
      "resourceType": "Practitioner",
      "id": "9be3c3f5-2e85-4eef-80b7-9ad9bdd37c97",
      "identifier": [ {
        "system": "http://hl7.org/fhir/sid/us-npi",
        "value": "123456"
      } ],
      "name": [ {
        "family": "Evil",
        "prefix": [ "Dr" ]
      } ]
    },
    "request": {
      "method": "PUT",
      "url": "Practitioner/9be3c3f5-2e85-4eef-80b7-9ad9bdd37c97"
    }
  }, {
    "fullUrl": "https://madie.cms.gov/MeasureReport/3f4d730b-9196-4bf1-beb8-1fcb97fbdb7b",
    "resource": {
      "resourceType": "MeasureReport",
      "id": "3f4d730b-9196-4bf1-beb8-1fcb97fbdb7b",
      "meta": {
        "profile": [ "http://hl7.org/fhir/us/cqfmeasures/StructureDefinition/test-case-cqfm" ]
      },
      "contained": [ {
        "resourceType": "Parameters",
        "id": "a5a99255-55fb-4894-be6f-fb6dd0007794-parameters",
        "parameter": [ {
          "name": "subject",
          "valueString": "a1f320ce-9962-408d-9b45-ee06251601d0"
        } ]
      } ],
      "extension": [ {
        "url": "http://hl7.org/fhir/StructureDefinition/cqf-inputParameters",
        "valueReference": {
          "reference": "#a5a99255-55fb-4894-be6f-fb6dd0007794-parameters"
        }
      }, {
        "url": "http://hl7.org/fhir/us/cqfmeasures/StructureDefinition/cqfm-testCaseDescription",
        "valueMarkdown": "Sex=male, will still pass measure as sex is not qualified in the measure"
      } ],
      "modifierExtension": [ {
        "url": "http://hl7.org/fhir/us/cqfmeasures/StructureDefinition/cqfm-isTestCase",
        "valueBoolean": true
      } ],
      "status": "complete",
      "type": "individual",
      "measure": "https://madie.cms.gov/Measure/CMS1028FHIRPCSevereOBComps",
      "period": {
        "start": "2026-01-01",
        "end": "2026-12-31"
      },
      "group": [ {
        "id": "Group_1",
        "population": [ {
          "id": "InitialPopulation_1",
          "code": {
            "coding": [ {
              "system": "http://terminology.hl7.org/CodeSystem/measure-population",
              "code": "initial-population",
              "display": "Initial Population"
            } ]
          },
          "count": 1
        }, {
          "id": "Denominator_1",
          "code": {
            "coding": [ {
              "system": "http://terminology.hl7.org/CodeSystem/measure-population",
              "code": "denominator",
              "display": "Denominator"
            } ]
          },
          "count": 0
        }, {
          "id": "Numerator_1",
          "code": {
            "coding": [ {
              "system": "http://terminology.hl7.org/CodeSystem/measure-population",
              "code": "numerator",
              "display": "Numerator"
            } ]
          },
          "count": 0
        }, {
          "id": "NumeratorExclusion_1",
          "code": {
            "coding": [ {
              "system": "http://terminology.hl7.org/CodeSystem/measure-population",
              "code": "numerator-exclusion",
              "display": "Numerator Exclusion"
            } ]
          },
          "count": 0
        } ],
        "measureScore": {
          "value": 0.0
        }
      }, {
        "id": "Group_2",
        "population": [ {
          "id": "InitialPopulation_2",
          "code": {
            "coding": [ {
              "system": "http://terminology.hl7.org/CodeSystem/measure-population",
              "code": "initial-population",
              "display": "Initial Population"
            } ]
          },
          "count": 1
        }, {
          "id": "Denominator_2",
          "code": {
            "coding": [ {
              "system": "http://terminology.hl7.org/CodeSystem/measure-population",
              "code": "denominator",
              "display": "Denominator"
            } ]
          },
          "count": 0
        }, {
          "id": "Numerator_2",
          "code": {
            "coding": [ {
              "system": "http://terminology.hl7.org/CodeSystem/measure-population",
              "code": "numerator",
              "display": "Numerator"
            } ]
          },
          "count": 0
        }, {
          "id": "NumeratorExclusion_2",
          "code": {
            "coding": [ {
              "system": "http://terminology.hl7.org/CodeSystem/measure-population",
              "code": "numerator-exclusion",
              "display": "Numerator Exclusion"
            } ]
          },
          "count": 0
        } ],
        "measureScore": {
          "value": 0.0
        }
      } ],
      "evaluatedResource": [ {
        "reference": "Patient/a1f320ce-9962-408d-9b45-ee06251601d0"
      }, {
        "reference": "Encounter/355d95f7-1636-4570-9b46-60ccae72a727"
      }, {
        "reference": "Procedure/22c19504-b9a3-495f-a502-f898837f33b9"
      }, {
        "reference": "Coverage/37b0cc5b-64ee-4e12-91cb-46f53cbc769a"
      }, {
        "reference": "Organization/38fcf26f-ce68-4dee-a3a2-1e61e2d88ee4"
      }, {
        "reference": "Practitioner/9be3c3f5-2e85-4eef-80b7-9ad9bdd37c97"
      } ]
    },
    "request": {
      "method": "PUT",
      "url": "MeasureReport/3f4d730b-9196-4bf1-beb8-1fcb97fbdb7b"
    }
  } ]
}