{
  "resourceType": "Bundle",
  "id": "163135134631313",
  "type": "collection",
  "entry": [ {
    "fullUrl": "https://madie.cms.gov/Patient/595a3383-df44-495d-80c2-2cf3fe6e6c4a",
    "resource": {
      "resourceType": "Patient",
      "id": "595a3383-df44-495d-80c2-2cf3fe6e6c4a",
      "meta": {
        "profile": [ "http://hl7.org/fhir/us/qicore/StructureDefinition/qicore-patient" ]
      },
      "extension": [ {
        "url": "http://hl7.org/fhir/us/core/StructureDefinition/us-core-race",
        "extension": [ {
          "url": "ombCategory",
          "valueCoding": {
            "system": "urn:oid:2.16.840.1.113883.6.238",
            "code": "1002-5",
            "display": "American Indian or Alaska Native"
          }
        }, {
          "url": "text",
          "valueString": "American Indian or Alaska Native"
        } ]
      }, {
        "url": "http://hl7.org/fhir/us/core/StructureDefinition/us-core-ethnicity",
        "extension": [ {
          "url": "ombCategory",
          "valueCoding": {
            "system": "urn:oid:2.16.840.1.113883.6.238",
            "code": "2135-2",
            "display": "Hispanic or Latino"
          }
        }, {
          "url": "text",
          "valueString": "Hispanic or Latino"
        } ]
      } ],
      "identifier": [ {
        "type": {
          "coding": [ {
            "system": "http://terminology.hl7.org/CodeSystem/v2-0203",
            "code": "MR"
          } ]
        },
        "system": "https://bonnie-fhir.healthit.gov/",
        "value": "45651616463131"
      } ],
      "name": [ {
        "family": "IPPass",
        "given": [ "OPConsX2HF" ]
      } ],
      "gender": "male",
      "birthDate": "1943-11-20"
    }
  }, {
    "fullUrl": "https://madie.cms.gov/Encounter/1b3f3768-22ef-4072-a969-e5c97589064e",
    "resource": {
      "resourceType": "Encounter",
      "id": "1b3f3768-22ef-4072-a969-e5c97589064e",
      "meta": {
        "profile": [ "http://hl7.org/fhir/us/qicore/StructureDefinition/qicore-encounter" ]
      },
      "status": "finished",
      "class": {
        "system": "http://terminology.hl7.org/CodeSystem/v3-ActCode",
        "code": "AMB",
        "display": "ambulatory"
      },
      "type": [ {
        "coding": [ {
          "system": "http://snomed.info/sct",
          "version": "http://snomed.info/sct/731000124108/version/20250301",
          "code": "281036007",
          "display": "Follow-up consultation (procedure)"
        } ]
      } ],
      "subject": {
        "reference": "Patient/595a3383-df44-495d-80c2-2cf3fe6e6c4a"
      },
      "period": {
        "start": "2026-01-24T08:00:00.000+00:00",
        "end": "2026-01-24T08:15:00.000+00:00"
      }
    }
  }, {
    "fullUrl": "https://madie.cms.gov/Encounter/1c7ea0ad-677d-4fd0-ab5b-650230c9fa38",
    "resource": {
      "resourceType": "Encounter",
      "id": "1c7ea0ad-677d-4fd0-ab5b-650230c9fa38",
      "meta": {
        "profile": [ "http://hl7.org/fhir/us/qicore/StructureDefinition/qicore-encounter" ]
      },
      "status": "finished",
      "class": {
        "system": "http://terminology.hl7.org/CodeSystem/v3-ActCode",
        "code": "AMB",
        "display": "ambulatory"
      },
      "type": [ {
        "coding": [ {
          "system": "http://snomed.info/sct",
          "version": "http://snomed.info/sct/731000124108/version/20250301",
          "code": "281036007",
          "display": "Follow-up consultation (procedure)"
        } ]
      } ],
      "subject": {
        "reference": "Patient/595a3383-df44-495d-80c2-2cf3fe6e6c4a"
      },
      "period": {
        "start": "2026-03-28T08:00:00.000+00:00",
        "end": "2026-03-28T08:15:00.000+00:00"
      }
    }
  }, {
    "fullUrl": "https://madie.cms.gov/Condition/42414830-5e8a-411d-b715-37643a1abf5f",
    "resource": {
      "resourceType": "Condition",
      "id": "42414830-5e8a-411d-b715-37643a1abf5f",
      "meta": {
        "profile": [ "http://hl7.org/fhir/us/qicore/StructureDefinition/qicore-condition-problems-health-concerns" ]
      },
      "clinicalStatus": {
        "coding": [ {
          "system": "http://terminology.hl7.org/CodeSystem/condition-clinical",
          "code": "active",
          "display": "active"
        } ]
      },
      "verificationStatus": {
        "coding": [ {
          "system": "http://terminology.hl7.org/CodeSystem/condition-ver-status",
          "code": "confirmed",
          "display": "Confirmed"
        } ]
      },
      "category": [ {
        "coding": [ {
          "system": "http://terminology.hl7.org/CodeSystem/condition-category",
          "code": "problem-list-item",
          "display": "Problem List Item"
        } ]
      } ],
      "code": {
        "coding": [ {
          "system": "http://snomed.info/sct",
          "version": "http://snomed.info/sct/731000124108/version/20250301",
          "code": "10091002",
          "display": "High output heart failure (disorder)",
          "userSelected": true
        } ]
      },
      "subject": {
        "reference": "Patient/595a3383-df44-495d-80c2-2cf3fe6e6c4a"
      },
      "onsetPeriod": {
        "start": "2025-07-05T08:00:00.000+00:00",
        "end": "2026-02-20T08:15:00.000+00:00"
      }
    }
  }, {
    "fullUrl": "https://madie.cms.gov/MeasureReport/a446c907-5b1c-4346-91ea-db003f225e0d",
    "resource": {
      "resourceType": "MeasureReport",
      "id": "a446c907-5b1c-4346-91ea-db003f225e0d",
      "meta": {
        "profile": [ "http://hl7.org/fhir/us/cqfmeasures/StructureDefinition/test-case-cqfm" ]
      },
      "contained": [ {
        "resourceType": "Parameters",
        "id": "eebedf2a-c8a1-46f3-9bde-6bf74ae1ec74-parameters",
        "parameter": [ {
          "name": "subject",
          "valueString": "595a3383-df44-495d-80c2-2cf3fe6e6c4a"
        } ]
      } ],
      "extension": [ {
        "url": "http://hl7.org/fhir/StructureDefinition/cqf-inputParameters",
        "valueReference": {
          "reference": "#eebedf2a-c8a1-46f3-9bde-6bf74ae1ec74-parameters"
        }
      }, {
        "url": "http://hl7.org/fhir/us/cqfmeasures/StructureDefinition/cqfm-testCaseDescription",
        "valueMarkdown": "Patient with HF diagnosis and 2 outpatient consults meeting initial population criteria."
      } ],
      "modifierExtension": [ {
        "url": "http://hl7.org/fhir/us/cqfmeasures/StructureDefinition/cqfm-isTestCase",
        "valueBoolean": true
      } ],
      "status": "complete",
      "type": "individual",
      "measure": "https://madie.cms.gov/Measure/CMS135FHIRACEIorARBorARNIforHF",
      "period": {
        "start": "2026-01-01",
        "end": "2026-12-31"
      },
      "group": [ {
        "id": "Group_1",
        "population": [ {
          "id": "InitialPopulation_1",
          "code": {
            "coding": [ {
              "system": "http://terminology.hl7.org/CodeSystem/measure-population",
              "code": "initial-population",
              "display": "Initial Population"
            } ]
          },
          "count": 1
        }, {
          "id": "Denominator_1",
          "code": {
            "coding": [ {
              "system": "http://terminology.hl7.org/CodeSystem/measure-population",
              "code": "denominator",
              "display": "Denominator"
            } ]
          },
          "count": 0
        }, {
          "id": "DenominatorExclusion_1",
          "code": {
            "coding": [ {
              "system": "http://terminology.hl7.org/CodeSystem/measure-population",
              "code": "denominator-exclusion",
              "display": "Denominator Exclusion"
            } ]
          },
          "count": 0
        }, {
          "id": "Numerator_1",
          "code": {
            "coding": [ {
              "system": "http://terminology.hl7.org/CodeSystem/measure-population",
              "code": "numerator",
              "display": "Numerator"
            } ]
          },
          "count": 0
        }, {
          "id": "DenominatorException_1",
          "code": {
            "coding": [ {
              "system": "http://terminology.hl7.org/CodeSystem/measure-population",
              "code": "denominator-exception",
              "display": "Denominator Exception"
            } ]
          },
          "count": 0
        } ],
        "measureScore": {
          "value": 1.0
        }
      } ],
      "evaluatedResource": [ {
        "reference": "Patient/595a3383-df44-495d-80c2-2cf3fe6e6c4a"
      }, {
        "reference": "Encounter/1b3f3768-22ef-4072-a969-e5c97589064e"
      }, {
        "reference": "Encounter/1c7ea0ad-677d-4fd0-ab5b-650230c9fa38"
      }, {
        "reference": "Condition/42414830-5e8a-411d-b715-37643a1abf5f"
      } ]
    }
  } ]
}