{
  "resourceType": "Bundle",
  "id": "6345651316431",
  "type": "collection",
  "entry": [ {
    "fullUrl": "https://madie.cms.gov/Patient/c095195c-8893-4bf1-aa7d-ad2bfd9bafa5",
    "resource": {
      "resourceType": "Patient",
      "id": "c095195c-8893-4bf1-aa7d-ad2bfd9bafa5",
      "meta": {
        "profile": [ "http://hl7.org/fhir/us/qicore/StructureDefinition/qicore-patient" ]
      },
      "extension": [ {
        "url": "http://hl7.org/fhir/us/core/StructureDefinition/us-core-race",
        "extension": [ {
          "url": "ombCategory",
          "valueCoding": {
            "system": "urn:oid:2.16.840.1.113883.6.238",
            "code": "1002-5",
            "display": "American Indian or Alaska Native"
          }
        }, {
          "url": "text",
          "valueString": "American Indian or Alaska Native"
        } ]
      }, {
        "url": "http://hl7.org/fhir/us/core/StructureDefinition/us-core-ethnicity",
        "extension": [ {
          "url": "ombCategory",
          "valueCoding": {
            "system": "urn:oid:2.16.840.1.113883.6.238",
            "code": "2135-2",
            "display": "Hispanic or Latino"
          }
        }, {
          "url": "text",
          "valueString": "Hispanic or Latino"
        } ]
      } ],
      "identifier": [ {
        "type": {
          "coding": [ {
            "system": "http://terminology.hl7.org/CodeSystem/v2-0203",
            "code": "MR"
          } ]
        },
        "system": "https://bonnie-fhir.healthit.gov/",
        "value": "684964651963"
      } ],
      "name": [ {
        "family": "DENOMFail",
        "given": [ "EFLT40Obsv1MinAfterEncEdge" ]
      } ],
      "gender": "female",
      "birthDate": "1958-12-21"
    }
  }, {
    "fullUrl": "https://madie.cms.gov/Encounter/f723d90e-9a0e-4fd9-95e7-dd3bf7c1c319",
    "resource": {
      "resourceType": "Encounter",
      "id": "f723d90e-9a0e-4fd9-95e7-dd3bf7c1c319",
      "meta": {
        "profile": [ "http://hl7.org/fhir/us/qicore/StructureDefinition/qicore-encounter" ]
      },
      "status": "finished",
      "class": {
        "system": "http://terminology.hl7.org/CodeSystem/v3-ActCode",
        "code": "AMB",
        "display": "ambulatory"
      },
      "type": [ {
        "coding": [ {
          "system": "http://snomed.info/sct",
          "version": "http://snomed.info/sct/731000124108/version/20250301",
          "code": "281036007",
          "display": "Follow-up consultation (procedure)"
        } ]
      } ],
      "subject": {
        "reference": "Patient/c095195c-8893-4bf1-aa7d-ad2bfd9bafa5"
      },
      "period": {
        "start": "2026-06-15T08:00:00.000+00:00",
        "end": "2026-06-15T08:15:00.000+00:00"
      }
    }
  }, {
    "fullUrl": "https://madie.cms.gov/Encounter/0a2b5654-48c1-4c13-802f-1ffa480bc3f3",
    "resource": {
      "resourceType": "Encounter",
      "id": "0a2b5654-48c1-4c13-802f-1ffa480bc3f3",
      "meta": {
        "profile": [ "http://hl7.org/fhir/us/qicore/StructureDefinition/qicore-encounter" ]
      },
      "status": "finished",
      "class": {
        "system": "http://terminology.hl7.org/CodeSystem/v3-ActCode",
        "code": "AMB",
        "display": "ambulatory"
      },
      "type": [ {
        "coding": [ {
          "system": "http://snomed.info/sct",
          "version": "http://snomed.info/sct/731000124108/version/20250301",
          "code": "281036007",
          "display": "Follow-up consultation (procedure)"
        } ]
      } ],
      "subject": {
        "reference": "Patient/c095195c-8893-4bf1-aa7d-ad2bfd9bafa5"
      },
      "period": {
        "start": "2026-07-15T08:00:00.000+00:00",
        "end": "2026-07-15T08:15:00.000+00:00"
      }
    }
  }, {
    "fullUrl": "https://madie.cms.gov/Condition/06caf2cb-f9cd-4151-bfb5-62ea418e5b7a",
    "resource": {
      "resourceType": "Condition",
      "id": "06caf2cb-f9cd-4151-bfb5-62ea418e5b7a",
      "meta": {
        "profile": [ "http://hl7.org/fhir/us/qicore/StructureDefinition/qicore-condition-problems-health-concerns" ]
      },
      "clinicalStatus": {
        "coding": [ {
          "system": "http://terminology.hl7.org/CodeSystem/condition-clinical",
          "code": "active",
          "display": "active"
        } ]
      },
      "verificationStatus": {
        "coding": [ {
          "system": "http://terminology.hl7.org/CodeSystem/condition-ver-status",
          "code": "confirmed",
          "display": "Confirmed"
        } ]
      },
      "category": [ {
        "coding": [ {
          "system": "http://terminology.hl7.org/CodeSystem/condition-category",
          "code": "problem-list-item",
          "display": "Problem List Item"
        } ]
      } ],
      "code": {
        "coding": [ {
          "system": "http://snomed.info/sct",
          "version": "http://snomed.info/sct/731000124108/version/20250301",
          "code": "10091002",
          "display": "High output heart failure (disorder)"
        } ]
      },
      "subject": {
        "reference": "Patient/c095195c-8893-4bf1-aa7d-ad2bfd9bafa5"
      },
      "onsetPeriod": {
        "start": "2026-06-10T08:00:00.000+00:00",
        "end": "2026-07-14T08:15:00.000+00:00"
      }
    }
  }, {
    "fullUrl": "https://madie.cms.gov/Observation/6a5dcddb-4413-4cd3-a49d-2c3677c35e63",
    "resource": {
      "resourceType": "Observation",
      "id": "6a5dcddb-4413-4cd3-a49d-2c3677c35e63",
      "meta": {
        "profile": [ "http://hl7.org/fhir/us/qicore/StructureDefinition/qicore-observation-clinical-result" ]
      },
      "status": "final",
      "category": [ {
        "coding": [ {
          "system": "http://terminology.hl7.org/CodeSystem/observation-category",
          "code": "imaging",
          "display": "Imaging"
        } ]
      }, {
        "coding": [ {
          "system": "http://terminology.hl7.org/CodeSystem/observation-category",
          "code": "survey"
        } ]
      } ],
      "code": {
        "coding": [ {
          "system": "http://loinc.org",
          "version": "2.76",
          "code": "10230-1",
          "display": "Left ventricular Ejection fraction"
        } ]
      },
      "subject": {
        "reference": "Patient/c095195c-8893-4bf1-aa7d-ad2bfd9bafa5"
      },
      "effectiveDateTime": "2026-07-15T08:16:00.000+00:00",
      "valueQuantity": {
        "value": 39,
        "unit": "%",
        "system": "http://unitsofmeasure.org",
        "code": "%"
      }
    }
  }, {
    "fullUrl": "https://madie.cms.gov/MedicationRequest/07d579bf-dbf5-4122-82c4-40fccb1922dd",
    "resource": {
      "resourceType": "MedicationRequest",
      "id": "07d579bf-dbf5-4122-82c4-40fccb1922dd",
      "meta": {
        "profile": [ "http://hl7.org/fhir/us/qicore/StructureDefinition/qicore-medicationrequest" ]
      },
      "status": "completed",
      "intent": "order",
      "medicationReference": {
        "reference": "Medication/5256de90-9f37-4c32-a9db-c45b3383d841"
      },
      "subject": {
        "reference": "Patient/c095195c-8893-4bf1-aa7d-ad2bfd9bafa5"
      },
      "authoredOn": "2026-04-15T10:30:00.000+00:00",
      "requester": {
        "reference": "Practitioner/f6315530-c6ae-4d28-b354-5aafbcfc2ba3"
      }
    }
  }, {
    "fullUrl": "https://madie.cms.gov/Medication/5256de90-9f37-4c32-a9db-c45b3383d841",
    "resource": {
      "resourceType": "Medication",
      "id": "5256de90-9f37-4c32-a9db-c45b3383d841",
      "meta": {
        "profile": [ "http://hl7.org/fhir/us/qicore/StructureDefinition/qicore-medication" ]
      },
      "code": {
        "coding": [ {
          "system": "http://www.nlm.nih.gov/research/umls/rxnorm",
          "version": "06052023",
          "code": "1000001",
          "display": "amlodipine 5 MG / hydrochlorothiazide 25 MG / olmesartan medoxomil 40 MG Oral Tablet"
        } ]
      }
    }
  }, {
    "fullUrl": "https://madie.cms.gov/Coverage/0df76e38-2426-429d-9cfd-62a727e5c5a0",
    "resource": {
      "resourceType": "Coverage",
      "id": "0df76e38-2426-429d-9cfd-62a727e5c5a0",
      "meta": {
        "profile": [ "http://hl7.org/fhir/us/qicore/StructureDefinition/qicore-coverage" ]
      },
      "status": "active",
      "type": {
        "coding": [ {
          "system": "https://nahdo.org/sopt",
          "code": "59",
          "display": "Other Private Insurance"
        } ]
      },
      "subscriberId": "123456",
      "beneficiary": {
        "reference": "Patient/c095195c-8893-4bf1-aa7d-ad2bfd9bafa5"
      },
      "relationship": {
        "coding": [ {
          "system": "http://terminology.hl7.org/CodeSystem/subscriber-relationship",
          "code": "self",
          "display": "Self"
        } ]
      },
      "period": {
        "start": "2025-01-01T08:00:00.000+00:00"
      },
      "payor": [ {
        "reference": "Organization/c3bc92c1-9033-4335-beb9-7d1a71061c98"
      } ]
    }
  }, {
    "fullUrl": "https://madie.cms.gov/Organization/c3bc92c1-9033-4335-beb9-7d1a71061c98",
    "resource": {
      "resourceType": "Organization",
      "id": "c3bc92c1-9033-4335-beb9-7d1a71061c98",
      "meta": {
        "profile": [ "http://hl7.org/fhir/us/qicore/StructureDefinition/qicore-organization" ]
      },
      "identifier": [ {
        "use": "temp",
        "system": "urn:oid:2.16.840.1.113883.4.4",
        "value": "21-3259825"
      } ],
      "active": true,
      "type": [ {
        "coding": [ {
          "system": "http://terminology.hl7.org/CodeSystem/organization-type",
          "code": "pay",
          "display": "Payer"
        } ]
      } ],
      "name": "Blue Cross Blue Shield of Texas",
      "telecom": [ {
        "system": "phone",
        "value": "(+1) 972-766-6900"
      } ],
      "address": [ {
        "use": "billing",
        "type": "postal",
        "line": [ "P.O. Box 660044" ],
        "city": "Dallas",
        "state": "TX",
        "postalCode": "75266-0044",
        "country": "USA"
      } ]
    }
  }, {
    "fullUrl": "https://madie.cms.gov/Practitioner/f6315530-c6ae-4d28-b354-5aafbcfc2ba3",
    "resource": {
      "resourceType": "Practitioner",
      "id": "f6315530-c6ae-4d28-b354-5aafbcfc2ba3",
      "meta": {
        "profile": [ "http://hl7.org/fhir/us/qicore/StructureDefinition/qicore-practitioner" ]
      },
      "identifier": [ {
        "use": "temp",
        "system": "urn:oid:2.16.840.1.113883.4.336",
        "value": "Practitioner-23"
      } ],
      "active": true,
      "name": [ {
        "family": "Careful",
        "given": [ "Adam" ],
        "prefix": [ "Dr" ]
      } ],
      "address": [ {
        "use": "home",
        "line": [ "534 Erewhon St" ],
        "city": "PleasantVille",
        "state": "UT",
        "postalCode": "84414"
      } ],
      "qualification": [ {
        "identifier": [ {
          "system": "http://mock-value.org/UniversityIdentifier",
          "value": "12345"
        } ],
        "code": {
          "coding": [ {
            "system": "http://terminology.hl7.org/CodeSystem/v2-0360|2.7",
            "code": "BS",
            "display": "Bachelor of Science"
          } ],
          "text": "Bachelor of Science"
        },
        "period": {
          "start": "1996"
        },
        "issuer": {
          "display": "Example University"
        }
      } ]
    }
  }, {
    "fullUrl": "https://madie.cms.gov/MeasureReport/f2d033da-6f32-46dc-86bc-69fdf82b1cfd",
    "resource": {
      "resourceType": "MeasureReport",
      "id": "f2d033da-6f32-46dc-86bc-69fdf82b1cfd",
      "meta": {
        "profile": [ "http://hl7.org/fhir/us/cqfmeasures/StructureDefinition/test-case-cqfm" ]
      },
      "contained": [ {
        "resourceType": "Parameters",
        "id": "414ac74c-36c0-4741-b303-5005aab3cc3c-parameters",
        "parameter": [ {
          "name": "subject",
          "valueString": "c095195c-8893-4bf1-aa7d-ad2bfd9bafa5"
        } ]
      } ],
      "extension": [ {
        "url": "http://hl7.org/fhir/StructureDefinition/cqf-inputParameters",
        "valueReference": {
          "reference": "#414ac74c-36c0-4741-b303-5005aab3cc3c-parameters"
        }
      }, {
        "url": "http://hl7.org/fhir/us/cqfmeasures/StructureDefinition/cqfm-testCaseDescription",
        "valueMarkdown": "Fails denominator due to Ejection Fraction < 40 Observation being one minute past encounter"
      } ],
      "modifierExtension": [ {
        "url": "http://hl7.org/fhir/us/cqfmeasures/StructureDefinition/cqfm-isTestCase",
        "valueBoolean": true
      } ],
      "status": "complete",
      "type": "individual",
      "measure": "https://madie.cms.gov/Measure/CMS135FHIRACEIorARBorARNIforHF",
      "period": {
        "start": "2026-01-01",
        "end": "2026-12-31"
      },
      "group": [ {
        "id": "Group_1",
        "population": [ {
          "id": "InitialPopulation_1",
          "code": {
            "coding": [ {
              "system": "http://terminology.hl7.org/CodeSystem/measure-population",
              "code": "initial-population",
              "display": "Initial Population"
            } ]
          },
          "count": 1
        }, {
          "id": "Denominator_1",
          "code": {
            "coding": [ {
              "system": "http://terminology.hl7.org/CodeSystem/measure-population",
              "code": "denominator",
              "display": "Denominator"
            } ]
          },
          "count": 0
        }, {
          "id": "DenominatorExclusion_1",
          "code": {
            "coding": [ {
              "system": "http://terminology.hl7.org/CodeSystem/measure-population",
              "code": "denominator-exclusion",
              "display": "Denominator Exclusion"
            } ]
          },
          "count": 0
        }, {
          "id": "Numerator_1",
          "code": {
            "coding": [ {
              "system": "http://terminology.hl7.org/CodeSystem/measure-population",
              "code": "numerator",
              "display": "Numerator"
            } ]
          },
          "count": 0
        }, {
          "id": "DenominatorException_1",
          "code": {
            "coding": [ {
              "system": "http://terminology.hl7.org/CodeSystem/measure-population",
              "code": "denominator-exception",
              "display": "Denominator Exception"
            } ]
          },
          "count": 0
        } ],
        "measureScore": {
          "value": 1.0
        }
      } ],
      "evaluatedResource": [ {
        "reference": "Patient/c095195c-8893-4bf1-aa7d-ad2bfd9bafa5"
      }, {
        "reference": "Encounter/f723d90e-9a0e-4fd9-95e7-dd3bf7c1c319"
      }, {
        "reference": "Encounter/0a2b5654-48c1-4c13-802f-1ffa480bc3f3"
      }, {
        "reference": "Condition/06caf2cb-f9cd-4151-bfb5-62ea418e5b7a"
      }, {
        "reference": "Observation/6a5dcddb-4413-4cd3-a49d-2c3677c35e63"
      }, {
        "reference": "MedicationRequest/07d579bf-dbf5-4122-82c4-40fccb1922dd"
      }, {
        "reference": "Medication/5256de90-9f37-4c32-a9db-c45b3383d841"
      }, {
        "reference": "Coverage/0df76e38-2426-429d-9cfd-62a727e5c5a0"
      }, {
        "reference": "Organization/c3bc92c1-9033-4335-beb9-7d1a71061c98"
      }, {
        "reference": "Practitioner/f6315530-c6ae-4d28-b354-5aafbcfc2ba3"
      } ]
    }
  } ]
}