{
  "resourceType": "Bundle",
  "id": "633c9d040968f8012250fcac",
  "type": "transaction",
  "entry": [ {
    "fullUrl": "https://madie.cms.gov/Patient/acdea97f-8a2e-4aa3-b51f-768c5ad5ead8",
    "resource": {
      "resourceType": "Patient",
      "id": "acdea97f-8a2e-4aa3-b51f-768c5ad5ead8",
      "meta": {
        "profile": [ "http://hl7.org/fhir/us/qicore/StructureDefinition/qicore-patient" ]
      },
      "text": {
        "status": "generated",
        "div": "<div xmlns=\"http://www.w3.org/1999/xhtml\"><div class=\"hapiHeaderText\">DCtoICU <b>DENEXFAIL </b></div><table class=\"hapiPropertyTable\"><tbody><tr><td>Identifier</td><td>a1386c36da1b287caf9fd1b8d75c10d3</td></tr><tr><td>Date of birth</td><td><span>31 July 1969</span></td></tr></tbody></table></div>"
      },
      "extension": [ {
        "url": "http://hl7.org/fhir/us/core/StructureDefinition/us-core-race",
        "extension": [ {
          "url": "ombCategory",
          "valueCoding": {
            "system": "urn:oid:2.16.840.1.113883.6.238",
            "code": "1002-5",
            "display": "American Indian or Alaska Native",
            "userSelected": true
          }
        }, {
          "url": "text",
          "valueString": "American Indian or Alaska Native"
        } ]
      }, {
        "url": "http://hl7.org/fhir/us/core/StructureDefinition/us-core-ethnicity",
        "extension": [ {
          "url": "ombCategory",
          "valueCoding": {
            "system": "urn:oid:2.16.840.1.113883.6.238",
            "code": "2135-2",
            "display": "Hispanic or Latino",
            "userSelected": true
          }
        }, {
          "url": "text",
          "valueString": "Hispanic or Latino"
        } ]
      } ],
      "identifier": [ {
        "type": {
          "coding": [ {
            "system": "http://terminology.hl7.org/CodeSystem/v2-0203",
            "code": "MR"
          } ]
        },
        "system": "https://bonnie-fhir.healthit.gov/",
        "value": "633c9d040968f8012250fcac"
      } ],
      "active": true,
      "name": [ {
        "use": "usual",
        "family": "DENEXFail",
        "given": [ "DCtoICU" ]
      } ],
      "gender": "male",
      "birthDate": "1970-07-31"
    },
    "request": {
      "method": "PUT",
      "url": "Patient/acdea97f-8a2e-4aa3-b51f-768c5ad5ead8"
    }
  }, {
    "fullUrl": "https://madie.cms.gov/Encounter/c2392893-a82e-49d4-aeae-82003ca247b5",
    "resource": {
      "resourceType": "Encounter",
      "id": "c2392893-a82e-49d4-aeae-82003ca247b5",
      "meta": {
        "profile": [ "http://hl7.org/fhir/us/qicore/StructureDefinition/qicore-encounter" ]
      },
      "status": "finished",
      "class": {
        "system": "http://terminology.hl7.org/CodeSystem/v3-ActCode",
        "code": "EMER",
        "display": "emergency"
      },
      "type": [ {
        "coding": [ {
          "system": "http://snomed.info/sct",
          "code": "4525004"
        } ]
      } ],
      "subject": {
        "reference": "Patient/acdea97f-8a2e-4aa3-b51f-768c5ad5ead8"
      },
      "period": {
        "start": "2026-11-20T07:00:00.000+00:00",
        "end": "2026-11-20T07:45:00.000+00:00"
      },
      "length": {
        "value": 0,
        "unit": "days"
      }
    },
    "request": {
      "method": "PUT",
      "url": "Encounter/c2392893-a82e-49d4-aeae-82003ca247b5"
    }
  }, {
    "fullUrl": "https://madie.cms.gov/Encounter/c48a8d34-c83c-4b9a-8105-4a6b19756eab",
    "resource": {
      "resourceType": "Encounter",
      "id": "c48a8d34-c83c-4b9a-8105-4a6b19756eab",
      "meta": {
        "profile": [ "http://hl7.org/fhir/us/qicore/StructureDefinition/qicore-encounter" ]
      },
      "status": "finished",
      "class": {
        "system": "http://terminology.hl7.org/CodeSystem/v3-ActCode",
        "code": "IMP",
        "display": "inpatient encounter"
      },
      "type": [ {
        "coding": [ {
          "system": "http://snomed.info/sct",
          "code": "32485007"
        } ]
      } ],
      "subject": {
        "reference": "Patient/acdea97f-8a2e-4aa3-b51f-768c5ad5ead8"
      },
      "period": {
        "start": "2026-11-20T08:00:00.000+00:00",
        "end": "2026-11-24T08:15:00.000+00:00"
      },
      "length": {
        "value": 4,
        "unit": "days"
      },
      "hospitalization": {
        "dischargeDisposition": {
          "coding": [ {
            "system": "http://cts.nlm.nih.gov/fhir/cs/hsloc",
            "code": "1025-6",
            "display": "Trauma Critical Care"
          } ]
        }
      }
    },
    "request": {
      "method": "PUT",
      "url": "Encounter/c48a8d34-c83c-4b9a-8105-4a6b19756eab"
    }
  }, {
    "fullUrl": "https://madie.cms.gov/claim/5ca62962b8484628b8de1ec5",
    "resource": {
      "resourceType": "Claim",
      "id": "5ca62962b8484628b8de1ec5",
      "meta": {
        "profile": [ "http://hl7.org/fhir/us/qicore/StructureDefinition/qicore-claim" ]
      },
      "status": "active",
      "type": {
        "coding": [ {
          "system": "http://terminology.hl7.org/CodeSystem/claim-type",
          "code": "institutional"
        } ]
      },
      "use": "claim",
      "patient": {
        "reference": "Patient/d170a0a8-b5ad-4303-b6df-e304dd5f92ad"
      },
      "created": "2026-12-01",
      "provider": {
        "reference": "Practitioner/5c50249d-1943-4861-95ce-1d703a61e18f"
      },
      "priority": {
        "coding": [ {
          "system": "http://terminology.hl7.org/CodeSystem/processpriority",
          "code": "normal"
        } ]
      },
      "diagnosis": [ {
        "sequence": 1,
        "diagnosisCodeableConcept": {
          "coding": [ {
            "system": "http://hl7.org/fhir/sid/icd-10-cm",
            "code": "I63.00"
          } ]
        },
        "type": [ {
          "coding": [ {
            "system": "http://terminology.hl7.org/CodeSystem/ex-diagnosistype",
            "code": "principal"
          } ]
        } ]
      } ],
      "insurance": [ {
        "sequence": 1,
        "focal": true,
        "coverage": {
          "reference": "Coverage/5fa041661c76ba66d9959367"
        }
      } ],
      "item": [ {
        "sequence": 1,
        "diagnosisSequence": [ 1 ],
        "productOrService": {
          "coding": [ {
            "system": "http://terminology.hl7.org/CodeSystem/ex-USCLS",
            "code": "99555"
          } ]
        },
        "encounter": [ {
          "reference": "Encounter/c48a8d34-c83c-4b9a-8105-4a6b19756eab"
        } ]
      } ]
    },
    "request": {
      "method": "PUT",
      "url": "Claim/5ca62962b8484628b8de1ec5"
    }
  }, {
    "fullUrl": "https://madie.cms.gov/Coverage/0caca8f3-2cb5-43f5-ac4e-85909c4e47b0",
    "resource": {
      "resourceType": "Coverage",
      "id": "0caca8f3-2cb5-43f5-ac4e-85909c4e47b0",
      "meta": {
        "profile": [ "http://hl7.org/fhir/us/qicore/StructureDefinition/qicore-coverage" ]
      },
      "status": "active",
      "subscriberId": "523435",
      "beneficiary": {
        "reference": "Patient/162a5913-9989-42f2-8d6a-ae460e245e4c"
      },
      "relationship": {
        "coding": [ {
          "system": "http://terminology.hl7.org/CodeSystem/subscriber-relationship",
          "code": "self"
        } ]
      },
      "payor": [ {
        "reference": "Organization/142f35e1-2175-4a2a-a3bf-7a29bee7935c"
      } ]
    },
    "request": {
      "method": "PUT",
      "url": "Coverage/0caca8f3-2cb5-43f5-ac4e-85909c4e47b0"
    }
  }, {
    "fullUrl": "https://madie.cms.gov/Procedure/fdbf87eb-6cd5-488b-bb2c-791d27af641b",
    "resource": {
      "resourceType": "Procedure",
      "id": "fdbf87eb-6cd5-488b-bb2c-791d27af641b",
      "meta": {
        "profile": [ "http://hl7.org/fhir/us/qicore/StructureDefinition/qicore-procedure" ]
      },
      "extension": [ {
        "url": "http://hl7.org/fhir/us/qicore/StructureDefinition/qicore-recorded",
        "valueDateTime": "2026-11-19T13:35:00.000+00:00"
      } ],
      "status": "completed",
      "code": {
        "coding": [ {
          "system": "http://www.cms.gov/Medicare/Coding/ICD10",
          "code": "02560ZZ"
        }, {
          "system": "http://snomed.info/sct",
          "code": "175095005"
        } ]
      },
      "subject": {
        "reference": "Patient/acdea97f-8a2e-4aa3-b51f-768c5ad5ead8"
      },
      "performedPeriod": {
        "start": "2026-11-19T08:00:00.000+00:00",
        "end": "2026-11-20T08:15:00.000+00:00"
      }
    },
    "request": {
      "method": "PUT",
      "url": "Procedure/fdbf87eb-6cd5-488b-bb2c-791d27af641b"
    }
  }, {
    "fullUrl": "https://madie.cms.gov/Condition/2566b2c1-392d-4449-8de7-9f5392d57a4d",
    "resource": {
      "resourceType": "Condition",
      "id": "2566b2c1-392d-4449-8de7-9f5392d57a4d",
      "meta": {
        "profile": [ "http://hl7.org/fhir/us/qicore/StructureDefinition/qicore-condition-problems-health-concerns" ]
      },
      "clinicalStatus": {
        "coding": [ {
          "system": "http://terminology.hl7.org/CodeSystem/condition-clinical",
          "code": "active"
        } ]
      },
      "verificationStatus": {
        "coding": [ {
          "system": "http://terminology.hl7.org/CodeSystem/condition-ver-status",
          "code": "confirmed"
        } ]
      },
      "category": [ {
        "coding": [ {
          "system": "http://terminology.hl7.org/CodeSystem/condition-category",
          "code": "encounter-diagnosis",
          "display": "Encounter Diagnosis"
        } ]
      } ],
      "code": {
        "coding": [ {
          "system": "http://snomed.info/sct",
          "version": "2021-09",
          "code": "111297002",
          "display": "Nonparalytic stroke (disorder)",
          "userSelected": true
        } ]
      },
      "subject": {
        "reference": "Patient/acdea97f-8a2e-4aa3-b51f-768c5ad5ead8"
      },
      "recordedDate": "2026-10-13T08:00:00.000+00:00"
    },
    "request": {
      "method": "PUT",
      "url": "Condition/2566b2c1-392d-4449-8de7-9f5392d57a4d"
    }
  }, {
    "fullUrl": "https://madie.cms.gov/Organization/142f35e1-2175-4a2a-a3bf-7a29bee7935c",
    "resource": {
      "resourceType": "Organization",
      "id": "142f35e1-2175-4a2a-a3bf-7a29bee7935c",
      "meta": {
        "profile": [ "http://hl7.org/fhir/us/qicore/StructureDefinition/qicore-organization" ]
      },
      "identifier": [ {
        "use": "temp",
        "system": "urn:oid:2.16.840.1.113883.4.4",
        "value": "21-3259825"
      } ],
      "active": true,
      "type": [ {
        "coding": [ {
          "system": "http://terminology.hl7.org/CodeSystem/organization-type",
          "code": "pay",
          "display": "Payer"
        } ]
      } ],
      "name": "Blue Cross Blue Shield of Texas",
      "telecom": [ {
        "system": "phone",
        "value": "(+1) 972-766-6900"
      } ],
      "address": [ {
        "use": "billing",
        "type": "postal",
        "line": [ "P.O. Box 660044" ],
        "city": "Dallas",
        "state": "TX",
        "postalCode": "75266-0044",
        "country": "USA"
      } ]
    },
    "request": {
      "method": "PUT",
      "url": "Organization/142f35e1-2175-4a2a-a3bf-7a29bee7935c"
    }
  }, {
    "fullUrl": "https://madie.cms.gov/Practitioner/5c50249d-1943-4861-95ce-1d703a61e18f",
    "resource": {
      "resourceType": "Practitioner",
      "id": "5c50249d-1943-4861-95ce-1d703a61e18f",
      "meta": {
        "profile": [ "http://hl7.org/fhir/us/qicore/StructureDefinition/qicore-practitioner" ]
      },
      "identifier": [ {
        "system": "http://hl7.org/fhir/sid/us-npi",
        "value": "9999999896"
      } ],
      "name": [ {
        "family": "Evil",
        "prefix": [ "Dr" ]
      } ]
    },
    "request": {
      "method": "PUT",
      "url": "Practitioner/5c50249d-1943-4861-95ce-1d703a61e18f"
    }
  }, {
    "fullUrl": "https://madie.cms.gov/MeasureReport/4808d190-6290-4dd4-a242-25439b75aa9a",
    "resource": {
      "resourceType": "MeasureReport",
      "id": "4808d190-6290-4dd4-a242-25439b75aa9a",
      "meta": {
        "profile": [ "http://hl7.org/fhir/us/cqfmeasures/StructureDefinition/test-case-cqfm" ]
      },
      "contained": [ {
        "resourceType": "Parameters",
        "id": "d1e4a023-edfd-49bc-b76e-0410e788c517-parameters",
        "parameter": [ {
          "name": "subject",
          "valueString": "acdea97f-8a2e-4aa3-b51f-768c5ad5ead8"
        } ]
      } ],
      "extension": [ {
        "url": "http://hl7.org/fhir/StructureDefinition/cqf-inputParameters",
        "valueReference": {
          "reference": "#d1e4a023-edfd-49bc-b76e-0410e788c517-parameters"
        }
      }, {
        "url": "http://hl7.org/fhir/us/cqfmeasures/StructureDefinition/cqfm-testCaseDescription",
        "valueMarkdown": "No discharge status indicated. Testing DENEX logic (intentional fail) with disposition to ICD\n"
      } ],
      "modifierExtension": [ {
        "url": "http://hl7.org/fhir/us/cqfmeasures/StructureDefinition/cqfm-isTestCase",
        "valueBoolean": true
      } ],
      "status": "complete",
      "type": "individual",
      "measure": "https://madie.cms.gov/Measure/CMS71FHIRSTKAnticoagAFFlutter",
      "period": {
        "start": "2026-01-01",
        "end": "2026-12-31"
      },
      "group": [ {
        "id": "Group_1",
        "population": [ {
          "id": "InitialPopulation_1",
          "code": {
            "coding": [ {
              "system": "http://terminology.hl7.org/CodeSystem/measure-population",
              "code": "initial-population",
              "display": "Initial Population"
            } ]
          },
          "count": 1
        }, {
          "id": "Denominator_1",
          "code": {
            "coding": [ {
              "system": "http://terminology.hl7.org/CodeSystem/measure-population",
              "code": "denominator",
              "display": "Denominator"
            } ]
          },
          "count": 1
        }, {
          "id": "DenominatorExclusion_1",
          "code": {
            "coding": [ {
              "system": "http://terminology.hl7.org/CodeSystem/measure-population",
              "code": "denominator-exclusion",
              "display": "Denominator Exclusion"
            } ]
          },
          "count": 0
        }, {
          "id": "Numerator_1",
          "code": {
            "coding": [ {
              "system": "http://terminology.hl7.org/CodeSystem/measure-population",
              "code": "numerator",
              "display": "Numerator"
            } ]
          },
          "count": 0
        }, {
          "id": "DenominatorException_1",
          "code": {
            "coding": [ {
              "system": "http://terminology.hl7.org/CodeSystem/measure-population",
              "code": "denominator-exception",
              "display": "Denominator Exception"
            } ]
          },
          "count": 0
        } ],
        "measureScore": {
          "value": 0.0
        }
      } ],
      "evaluatedResource": [ {
        "reference": "Patient/acdea97f-8a2e-4aa3-b51f-768c5ad5ead8"
      }, {
        "reference": "Encounter/c2392893-a82e-49d4-aeae-82003ca247b5"
      }, {
        "reference": "Encounter/c48a8d34-c83c-4b9a-8105-4a6b19756eab"
      }, {
        "reference": "Claim/5ca62962b8484628b8de1ec5"
      }, {
        "reference": "Coverage/0caca8f3-2cb5-43f5-ac4e-85909c4e47b0"
      }, {
        "reference": "Procedure/fdbf87eb-6cd5-488b-bb2c-791d27af641b"
      }, {
        "reference": "Condition/2566b2c1-392d-4449-8de7-9f5392d57a4d"
      }, {
        "reference": "Organization/142f35e1-2175-4a2a-a3bf-7a29bee7935c"
      }, {
        "reference": "Practitioner/5c50249d-1943-4861-95ce-1d703a61e18f"
      } ]
    },
    "request": {
      "method": "PUT",
      "url": "MeasureReport/4808d190-6290-4dd4-a242-25439b75aa9a"
    }
  } ]
}