{
  "resourceType": "Bundle",
  "id": "62fd4b660968f8012246b012",
  "type": "collection",
  "entry": [ {
    "fullUrl": "https://madie.cms.gov/Patient/3e48a3fd-0416-470f-a3c5-3635f18f2913",
    "resource": {
      "resourceType": "Patient",
      "id": "3e48a3fd-0416-470f-a3c5-3635f18f2913",
      "meta": {
        "profile": [ "http://hl7.org/fhir/us/qicore/StructureDefinition/qicore-patient" ]
      },
      "extension": [ {
        "url": "http://hl7.org/fhir/us/core/StructureDefinition/us-core-race",
        "extension": [ {
          "url": "ombCategory",
          "valueCoding": {
            "system": "urn:oid:2.16.840.1.113883.6.238",
            "code": "2028-9",
            "display": "Asian",
            "userSelected": true
          }
        }, {
          "url": "text",
          "valueString": "Asian"
        } ]
      }, {
        "url": "http://hl7.org/fhir/us/core/StructureDefinition/us-core-ethnicity",
        "extension": [ {
          "url": "ombCategory",
          "valueCoding": {
            "system": "urn:oid:2.16.840.1.113883.6.238",
            "code": "2186-5",
            "display": "Not Hispanic or Latino",
            "userSelected": true
          }
        }, {
          "url": "text",
          "valueString": "Not Hispanic or Latino"
        } ]
      } ],
      "identifier": [ {
        "type": {
          "coding": [ {
            "system": "http://terminology.hl7.org/CodeSystem/v2-0203",
            "code": "MR"
          } ]
        },
        "system": "https://bonnie-fhir.healthit.gov/",
        "value": "62fd4b660968f8012246b012"
      } ],
      "name": [ {
        "family": "DenomPass",
        "given": [ "EncRefNewPsychDRC" ]
      } ],
      "gender": "female",
      "birthDate": "1989-11-29"
    }
  }, {
    "fullUrl": "https://madie.cms.gov/ServiceRequest/59853b01-ac87-4abc-911e-e80ef5a77d74",
    "resource": {
      "resourceType": "ServiceRequest",
      "id": "59853b01-ac87-4abc-911e-e80ef5a77d74",
      "meta": {
        "profile": [ "http://hl7.org/fhir/us/qicore/StructureDefinition/qicore-servicerequest" ]
      },
      "status": "completed",
      "intent": "order",
      "code": {
        "coding": [ {
          "system": "http://snomed.info/sct",
          "version": "http://snomed.info/sct/731000124108/version/20250301",
          "code": "103696004",
          "display": "Patient referral to specialist (procedure)",
          "userSelected": true
        } ]
      },
      "subject": {
        "reference": "Patient/3e48a3fd-0416-470f-a3c5-3635f18f2913"
      },
      "authoredOn": "2026-01-01T00:00:00.000+00:00"
    }
  }, {
    "fullUrl": "https://madie.cms.gov/Procedure/49753252-7853-4a64-b162-49b71b06a50a",
    "resource": {
      "resourceType": "Procedure",
      "id": "49753252-7853-4a64-b162-49b71b06a50a",
      "meta": {
        "profile": [ "http://hl7.org/fhir/us/qicore/StructureDefinition/qicore-procedure" ]
      },
      "extension": [ {
        "url": "http://hl7.org/fhir/us/qicore/StructureDefinition/qicore-recorded",
        "valueDateTime": "2026-01-01T00:00:00.000+00:00"
      } ],
      "status": "completed",
      "code": {
        "coding": [ {
          "system": "http://www.ama-assn.org/go/cpt",
          "version": "2021",
          "code": "96138",
          "display": "Psychological or neuropsychological test administration and scoring by technician, two or more tests, any method; first 30 minutes",
          "userSelected": true
        } ]
      },
      "subject": {
        "reference": "Patient/3e48a3fd-0416-470f-a3c5-3635f18f2913"
      },
      "performedDateTime": "2026-01-01T00:00:00.000+00:00"
    }
  }, {
    "fullUrl": "https://madie.cms.gov/Coverage/752be31a-8da1-4720-bf58-171055c7dd1e",
    "resource": {
      "resourceType": "Coverage",
      "id": "752be31a-8da1-4720-bf58-171055c7dd1e",
      "meta": {
        "profile": [ "http://hl7.org/fhir/us/qicore/StructureDefinition/qicore-coverage" ]
      },
      "status": "active",
      "subscriberId": "123456",
      "beneficiary": {
        "reference": "Patient/3e48a3fd-0416-470f-a3c5-3635f18f2913"
      },
      "relationship": {
        "coding": [ {
          "system": "http://terminology.hl7.org/CodeSystem/subscriber-relationship",
          "code": "self",
          "display": "Self"
        } ]
      },
      "payor": [ {
        "reference": "Organization/2539890e-76c9-4566-8b1b-b11b56d019fe"
      } ]
    }
  }, {
    "fullUrl": "https://madie.cms.gov/Organization/2539890e-76c9-4566-8b1b-b11b56d019fe",
    "resource": {
      "resourceType": "Organization",
      "id": "2539890e-76c9-4566-8b1b-b11b56d019fe",
      "meta": {
        "profile": [ "http://hl7.org/fhir/us/qicore/StructureDefinition/qicore-organization" ]
      },
      "identifier": [ {
        "use": "temp",
        "system": "urn:oid:2.16.840.1.113883.4.4",
        "value": "21-3259825"
      } ],
      "active": true,
      "type": [ {
        "coding": [ {
          "system": "http://terminology.hl7.org/CodeSystem/organization-type",
          "code": "pay",
          "display": "Payer"
        } ]
      } ],
      "name": "Blue Cross Blue Shield of Texas",
      "telecom": [ {
        "system": "phone",
        "value": "(+1) 972-766-6900"
      } ],
      "address": [ {
        "use": "billing",
        "type": "postal",
        "line": [ "P.O. Box 660044" ],
        "city": "Dallas",
        "state": "TX",
        "postalCode": "75266-0044",
        "country": "USA"
      } ]
    }
  }, {
    "fullUrl": "https://madie.cms.gov/Practitioner/d0799d4a-a61f-4b57-82da-530178979ccb",
    "resource": {
      "resourceType": "Practitioner",
      "id": "d0799d4a-a61f-4b57-82da-530178979ccb",
      "meta": {
        "profile": [ "http://hl7.org/fhir/us/qicore/StructureDefinition/qicore-practitioner" ]
      },
      "identifier": [ {
        "system": "http://hl7.org/fhir/sid/us-npi",
        "value": "1689411712"
      } ],
      "name": [ {
        "family": "Evil",
        "prefix": [ "Dr" ]
      } ]
    }
  }, {
    "fullUrl": "https://madie.cms.gov/MeasureReport/937050d0-0bb5-40d1-a968-e7e3eb494473",
    "resource": {
      "resourceType": "MeasureReport",
      "id": "937050d0-0bb5-40d1-a968-e7e3eb494473",
      "meta": {
        "profile": [ "http://hl7.org/fhir/us/cqfmeasures/StructureDefinition/test-case-cqfm" ]
      },
      "contained": [ {
        "resourceType": "Parameters",
        "id": "8368b396-dd00-4026-b2d0-186d09ef0f61-parameters",
        "parameter": [ {
          "name": "subject",
          "valueString": "3e48a3fd-0416-470f-a3c5-3635f18f2913"
        } ]
      } ],
      "extension": [ {
        "url": "http://hl7.org/fhir/StructureDefinition/cqf-inputParameters",
        "valueReference": {
          "reference": "#8368b396-dd00-4026-b2d0-186d09ef0f61-parameters"
        }
      }, {
        "url": "http://hl7.org/fhir/us/cqfmeasures/StructureDefinition/cqfm-testCaseDescription",
        "valueMarkdown": "Enc starts first minute of MP and ends in 59 minutes, referral order made."
      } ],
      "modifierExtension": [ {
        "url": "http://hl7.org/fhir/us/cqfmeasures/StructureDefinition/cqfm-isTestCase",
        "valueBoolean": true
      } ],
      "status": "complete",
      "type": "individual",
      "measure": "https://madie.cms.gov/Measure/CMS50FHIRReceiptofSpecialistReport",
      "period": {
        "start": "2026-01-01",
        "end": "2026-12-31"
      },
      "group": [ {
        "id": "Group_1",
        "population": [ {
          "id": "InitialPopulation_1",
          "code": {
            "coding": [ {
              "system": "http://terminology.hl7.org/CodeSystem/measure-population",
              "code": "initial-population",
              "display": "Initial Population"
            } ]
          },
          "count": 1
        }, {
          "id": "Denominator_1",
          "code": {
            "coding": [ {
              "system": "http://terminology.hl7.org/CodeSystem/measure-population",
              "code": "denominator",
              "display": "Denominator"
            } ]
          },
          "count": 1
        }, {
          "id": "Numerator_1",
          "code": {
            "coding": [ {
              "system": "http://terminology.hl7.org/CodeSystem/measure-population",
              "code": "numerator",
              "display": "Numerator"
            } ]
          },
          "count": 0
        } ],
        "measureScore": {
          "value": 1.0
        }
      } ],
      "evaluatedResource": [ {
        "reference": "Patient/3e48a3fd-0416-470f-a3c5-3635f18f2913"
      }, {
        "reference": "ServiceRequest/59853b01-ac87-4abc-911e-e80ef5a77d74"
      }, {
        "reference": "Procedure/49753252-7853-4a64-b162-49b71b06a50a"
      }, {
        "reference": "Coverage/752be31a-8da1-4720-bf58-171055c7dd1e"
      }, {
        "reference": "Organization/2539890e-76c9-4566-8b1b-b11b56d019fe"
      }, {
        "reference": "Practitioner/d0799d4a-a61f-4b57-82da-530178979ccb"
      } ]
    }
  } ]
}