{
  "resourceType": "Bundle",
  "id": "6109650598086b538055a0ff",
  "type": "transaction",
  "entry": [ {
    "fullUrl": "https://madie.cms.gov/Patient/87807ec9-f348-4c7c-8ee2-281e8c4ce03c",
    "resource": {
      "resourceType": "Patient",
      "id": "87807ec9-f348-4c7c-8ee2-281e8c4ce03c",
      "meta": {
        "profile": [ "http://hl7.org/fhir/us/qicore/StructureDefinition/qicore-patient" ]
      },
      "text": {
        "status": "generated",
        "div": "<div xmlns=\"http://www.w3.org/1999/xhtml\"><div class=\"hapiHeaderText\">EncOPConsInvalidCode <b>IPPFAIL </b></div><table class=\"hapiPropertyTable\"><tbody><tr><td>Identifier</td><td>d7ff671e155f36019ce0822b8b7b433f</td></tr><tr><td>Date of birth</td><td><span>13 December 1995</span></td></tr></tbody></table></div>"
      },
      "extension": [ {
        "url": "http://hl7.org/fhir/us/core/StructureDefinition/us-core-race",
        "extension": [ {
          "url": "ombCategory",
          "valueCoding": {
            "system": "urn:oid:2.16.840.1.113883.6.238",
            "code": "2106-3",
            "display": "White",
            "userSelected": true
          }
        }, {
          "url": "text",
          "valueString": "White"
        } ]
      }, {
        "url": "http://hl7.org/fhir/us/core/StructureDefinition/us-core-ethnicity",
        "extension": [ {
          "url": "ombCategory",
          "valueCoding": {
            "system": "urn:oid:2.16.840.1.113883.6.238",
            "code": "2135-2",
            "display": "Hispanic or Latino",
            "userSelected": true
          }
        }, {
          "url": "text",
          "valueString": "Hispanic or Latino"
        } ]
      } ],
      "identifier": [ {
        "type": {
          "coding": [ {
            "system": "http://terminology.hl7.org/CodeSystem/v2-0203",
            "code": "MR"
          } ]
        },
        "system": "https://bonnie-fhir.healthit.gov/",
        "value": "6109650598086b538055a0ff"
      } ],
      "active": true,
      "name": [ {
        "use": "usual",
        "family": "IPFail",
        "given": [ "EncInvalidCode" ]
      } ],
      "gender": "female",
      "birthDate": "2012-12-13"
    },
    "request": {
      "method": "PUT",
      "url": "Patient/87807ec9-f348-4c7c-8ee2-281e8c4ce03c"
    }
  }, {
    "fullUrl": "https://madie.cms.gov/Encounter/1b0d2723-5bcd-4f74-aad4-d12ce81b6493",
    "resource": {
      "resourceType": "Encounter",
      "id": "1b0d2723-5bcd-4f74-aad4-d12ce81b6493",
      "meta": {
        "profile": [ "http://hl7.org/fhir/us/qicore/StructureDefinition/qicore-encounter" ]
      },
      "status": "finished",
      "class": {
        "system": "http://terminology.hl7.org/CodeSystem/v3-ActCode",
        "code": "AMB",
        "display": "ambulatory",
        "userSelected": true
      },
      "type": [ {
        "coding": [ {
          "system": "http://www.ama-assn.org/go/cpt",
          "code": "09214",
          "userSelected": true
        } ]
      } ],
      "subject": {
        "reference": "Patient/87807ec9-f348-4c7c-8ee2-281e8c4ce03c"
      },
      "period": {
        "start": "2026-02-11T08:00:00.000+00:00",
        "end": "2026-02-11T08:15:00.000+00:00"
      },
      "length": {
        "value": 0.0,
        "unit": "days"
      },
      "reasonCode": [ {
        "coding": [ {
          "system": "http://snomed.info/sct",
          "version": "2023-09",
          "code": "10811161000119107",
          "display": "Major depressive disorder in mother complicating pregnancy (disorder)",
          "userSelected": true
        } ]
      } ],
      "diagnosis": [ {
        "condition": {
          "reference": "Condition/a8b4a6dc-943d-4234-9c9a-a6435aee6261"
        },
        "use": {
          "coding": [ {
            "system": "http://snomed.info/sct",
            "version": "2023-09",
            "code": "10811161000119107",
            "display": "Major depressive disorder in mother complicating pregnancy (disorder)",
            "userSelected": true
          } ]
        }
      } ]
    },
    "request": {
      "method": "PUT",
      "url": "Encounter/1b0d2723-5bcd-4f74-aad4-d12ce81b6493"
    }
  }, {
    "fullUrl": "https://madie.cms.gov/Procedure/adf5e23c-f2e9-4167-bdb4-50b8a0770e09",
    "resource": {
      "resourceType": "Procedure",
      "id": "adf5e23c-f2e9-4167-bdb4-50b8a0770e09",
      "meta": {
        "profile": [ "http://hl7.org/fhir/us/qicore/StructureDefinition/qicore-procedure" ]
      },
      "extension": [ {
        "url": "http://hl7.org/fhir/us/qicore/StructureDefinition/qicore-recorded",
        "valueDateTime": "2026-02-10T08:05:00.000+00:00"
      } ],
      "status": "completed",
      "code": {
        "coding": [ {
          "system": "http://snomed.info/sct",
          "code": "225337009"
        } ]
      },
      "subject": {
        "reference": "Patient/87807ec9-f348-4c7c-8ee2-281e8c4ce03c"
      },
      "performedPeriod": {
        "start": "2026-02-10T08:05:00.000+00:00",
        "end": "2026-02-10T08:10:00.000+00:00"
      }
    },
    "request": {
      "method": "PUT",
      "url": "Procedure/adf5e23c-f2e9-4167-bdb4-50b8a0770e09"
    }
  }, {
    "fullUrl": "https://madie.cms.gov/Condition/a8b4a6dc-943d-4234-9c9a-a6435aee6261",
    "resource": {
      "resourceType": "Condition",
      "id": "a8b4a6dc-943d-4234-9c9a-a6435aee6261",
      "meta": {
        "profile": [ "http://hl7.org/fhir/us/qicore/StructureDefinition/qicore-condition" ]
      },
      "category": [ {
        "coding": [ {
          "system": "http://terminology.hl7.org/CodeSystem/condition-category",
          "code": "encounter-diagnosis",
          "display": "encounter-diagnosis",
          "userSelected": true
        } ]
      } ],
      "code": {
        "coding": [ {
          "system": "http://snomed.info/sct",
          "version": "2023-09",
          "code": "10811121000119102",
          "display": "Major depressive disorder in mother complicating childbirth (disorder)",
          "userSelected": true
        } ]
      },
      "subject": {
        "reference": "Patient/87807ec9-f348-4c7c-8ee2-281e8c4ce03c"
      },
      "recordedDate": "2026-02-11T08:00:00.000+00:00"
    },
    "request": {
      "method": "PUT",
      "url": "Condition/a8b4a6dc-943d-4234-9c9a-a6435aee6261"
    }
  }, {
    "fullUrl": "https://madie.cms.gov/Coverage/10dabb2a-6bd3-46b8-9bcc-aa931094807c",
    "resource": {
      "resourceType": "Coverage",
      "id": "10dabb2a-6bd3-46b8-9bcc-aa931094807c",
      "meta": {
        "profile": [ "http://hl7.org/fhir/us/qicore/StructureDefinition/qicore-coverage" ]
      },
      "identifier": [ {
        "system": "http://benefitsinc.com/certificate",
        "value": "12345"
      } ],
      "status": "active",
      "type": {
        "coding": [ {
          "system": "https://nahdo.org/sopt",
          "code": "2",
          "userSelected": true
        } ]
      },
      "beneficiary": {
        "reference": "Patient/87807ec9-f348-4c7c-8ee2-281e8c4ce03c"
      },
      "period": {
        "start": "2026-01-29T08:00:00.000+00:00",
        "end": "2026-03-29T08:15:00.000+00:00"
      },
      "payor": [ {
        "reference": "Organization/9104fcdc-f848-40b2-ae64-4274bd834116"
      } ]
    },
    "request": {
      "method": "PUT",
      "url": "Coverage/10dabb2a-6bd3-46b8-9bcc-aa931094807c"
    }
  }, {
    "fullUrl": "https://madie.cms.gov/Organization/9104fcdc-f848-40b2-ae64-4274bd834116",
    "resource": {
      "resourceType": "Organization",
      "id": "9104fcdc-f848-40b2-ae64-4274bd834116",
      "meta": {
        "profile": [ "http://hl7.org/fhir/us/qicore/StructureDefinition/qicore-organization" ]
      },
      "identifier": [ {
        "use": "temp",
        "system": "urn:oid:2.16.840.1.113883.4.4",
        "value": "21-3259825"
      } ],
      "active": true,
      "type": [ {
        "coding": [ {
          "system": "http://terminology.hl7.org/CodeSystem/organization-type",
          "code": "pay",
          "display": "Payer"
        } ]
      } ],
      "name": "Blue Cross Blue Shield of Texas",
      "telecom": [ {
        "system": "phone",
        "value": "(+1) 972-766-6900"
      } ],
      "address": [ {
        "use": "billing",
        "type": "postal",
        "line": [ "P.O. Box 660044" ],
        "city": "Dallas",
        "state": "TX",
        "postalCode": "75266-0044",
        "country": "USA"
      } ]
    },
    "request": {
      "method": "PUT",
      "url": "Organization/9104fcdc-f848-40b2-ae64-4274bd834116"
    }
  }, {
    "fullUrl": "https://madie.cms.gov/Practitioner/e1b94a95-e25b-4df3-b252-8c99543f4a99",
    "resource": {
      "resourceType": "Practitioner",
      "id": "e1b94a95-e25b-4df3-b252-8c99543f4a99",
      "meta": {
        "profile": [ "http://hl7.org/fhir/us/qicore/StructureDefinition/qicore-practitioner" ]
      },
      "identifier": [ {
        "system": "http://hl7.org/fhir/sid/us-npi",
        "value": "123456"
      } ],
      "name": [ {
        "family": "Evil",
        "prefix": [ "Dr" ]
      } ]
    },
    "request": {
      "method": "PUT",
      "url": "Practitioner/e1b94a95-e25b-4df3-b252-8c99543f4a99"
    }
  }, {
    "fullUrl": "https://madie.cms.gov/MeasureReport/46d5d2e7-a822-488f-aa77-0aef94b030d1",
    "resource": {
      "resourceType": "MeasureReport",
      "id": "46d5d2e7-a822-488f-aa77-0aef94b030d1",
      "meta": {
        "profile": [ "http://hl7.org/fhir/us/cqfmeasures/StructureDefinition/test-case-cqfm" ]
      },
      "contained": [ {
        "resourceType": "Parameters",
        "id": "a1abcc08-7c84-487a-a852-fc18cf6f0e27-parameters",
        "parameter": [ {
          "name": "subject",
          "valueString": "87807ec9-f348-4c7c-8ee2-281e8c4ce03c"
        } ]
      } ],
      "extension": [ {
        "url": "http://hl7.org/fhir/StructureDefinition/cqf-inputParameters",
        "valueReference": {
          "reference": "#a1abcc08-7c84-487a-a852-fc18cf6f0e27-parameters"
        }
      }, {
        "url": "http://hl7.org/fhir/us/cqfmeasures/StructureDefinition/cqfm-testCaseDescription",
        "valueMarkdown": "Patient correct age with Outpatient Consultation using Invalid Code and includes Depressive Disorder during MP"
      } ],
      "modifierExtension": [ {
        "url": "http://hl7.org/fhir/us/cqfmeasures/StructureDefinition/cqfm-isTestCase",
        "valueBoolean": true
      } ],
      "status": "complete",
      "type": "individual",
      "measure": "https://madie.cms.gov/Measure/CMS177FHIRChildMDDSuicideAssmt",
      "period": {
        "start": "2026-01-01",
        "end": "2026-12-31"
      },
      "group": [ {
        "id": "Group_1",
        "population": [ {
          "id": "InitialPopulation_1",
          "code": {
            "coding": [ {
              "system": "http://terminology.hl7.org/CodeSystem/measure-population",
              "code": "initial-population",
              "display": "Initial Population"
            } ]
          },
          "count": 0
        }, {
          "id": "Denominator_1",
          "code": {
            "coding": [ {
              "system": "http://terminology.hl7.org/CodeSystem/measure-population",
              "code": "denominator",
              "display": "Denominator"
            } ]
          },
          "count": 0
        }, {
          "id": "Numerator_1",
          "code": {
            "coding": [ {
              "system": "http://terminology.hl7.org/CodeSystem/measure-population",
              "code": "numerator",
              "display": "Numerator"
            } ]
          },
          "count": 0
        } ],
        "measureScore": {
          "value": 0.0
        }
      } ],
      "evaluatedResource": [ {
        "reference": "Patient/87807ec9-f348-4c7c-8ee2-281e8c4ce03c"
      }, {
        "reference": "Encounter/1b0d2723-5bcd-4f74-aad4-d12ce81b6493"
      }, {
        "reference": "Procedure/adf5e23c-f2e9-4167-bdb4-50b8a0770e09"
      }, {
        "reference": "Condition/a8b4a6dc-943d-4234-9c9a-a6435aee6261"
      }, {
        "reference": "Coverage/10dabb2a-6bd3-46b8-9bcc-aa931094807c"
      }, {
        "reference": "Organization/9104fcdc-f848-40b2-ae64-4274bd834116"
      }, {
        "reference": "Practitioner/e1b94a95-e25b-4df3-b252-8c99543f4a99"
      } ]
    },
    "request": {
      "method": "PUT",
      "url": "MeasureReport/46d5d2e7-a822-488f-aa77-0aef94b030d1"
    }
  } ]
}