{
  "resourceType": "Bundle",
  "id": "634efa0b94ec3c7cd8c85e07",
  "type": "transaction",
  "entry": [ {
    "fullUrl": "https://madie.cms.gov/Patient/1cf4f9fa-f716-489a-82f0-a5481c7d1b54",
    "resource": {
      "resourceType": "Patient",
      "id": "1cf4f9fa-f716-489a-82f0-a5481c7d1b54",
      "meta": {
        "profile": [ "http://hl7.org/fhir/us/qicore/StructureDefinition/qicore-patient" ]
      },
      "extension": [ {
        "url": "http://hl7.org/fhir/us/core/StructureDefinition/us-core-race",
        "extension": [ {
          "url": "ombCategory",
          "valueCoding": {
            "system": "urn:oid:2.16.840.1.113883.6.238",
            "code": "1002-5",
            "display": "American Indian or Alaska Native",
            "userSelected": true
          }
        }, {
          "url": "text",
          "valueString": "American Indian or Alaska Native"
        } ]
      }, {
        "url": "http://hl7.org/fhir/us/core/StructureDefinition/us-core-ethnicity",
        "extension": [ {
          "url": "ombCategory",
          "valueCoding": {
            "system": "urn:oid:2.16.840.1.113883.6.238",
            "code": "2135-2",
            "display": "Hispanic or Latino",
            "userSelected": true
          }
        }, {
          "url": "text",
          "valueString": "Hispanic or Latino"
        } ]
      } ],
      "identifier": [ {
        "type": {
          "coding": [ {
            "system": "http://terminology.hl7.org/CodeSystem/v2-0203",
            "code": "MR"
          } ]
        },
        "system": "https://bonnie-fhir.healthit.gov/",
        "value": "634efa0b94ec3c7cd8c85e07"
      } ],
      "name": [ {
        "family": "IPPass",
        "given": [ "2DeliveryEnc11MosApart" ]
      } ],
      "gender": "female",
      "birthDate": "2001-02-02"
    },
    "request": {
      "method": "PUT",
      "url": "Patient/1cf4f9fa-f716-489a-82f0-a5481c7d1b54"
    }
  }, {
    "fullUrl": "https://madie.cms.gov/Encounter/760182f2-94d0-41f2-8b96-99add6508c74",
    "resource": {
      "resourceType": "Encounter",
      "id": "760182f2-94d0-41f2-8b96-99add6508c74",
      "meta": {
        "profile": [ "http://hl7.org/fhir/us/qicore/StructureDefinition/qicore-encounter" ]
      },
      "status": "finished",
      "class": {
        "system": "http://terminology.hl7.org/CodeSystem/v3-ActCode",
        "code": "IMP",
        "display": "inpatient encounter"
      },
      "type": [ {
        "coding": [ {
          "system": "http://snomed.info/sct",
          "version": "2022-09",
          "code": "183452005",
          "display": "Emergency hospital admission (procedure)",
          "userSelected": true
        } ]
      } ],
      "subject": {
        "reference": "Patient/1cf4f9fa-f716-489a-82f0-a5481c7d1b54"
      },
      "period": {
        "start": "2026-01-01T08:00:00.000+00:00",
        "end": "2026-01-05T08:15:00.000+00:00"
      }
    },
    "request": {
      "method": "PUT",
      "url": "Encounter/760182f2-94d0-41f2-8b96-99add6508c74"
    }
  }, {
    "fullUrl": "https://madie.cms.gov/Encounter/cb2eab15-5e9d-4d51-a0fa-4830bcfab260",
    "resource": {
      "resourceType": "Encounter",
      "id": "cb2eab15-5e9d-4d51-a0fa-4830bcfab260",
      "meta": {
        "profile": [ "http://hl7.org/fhir/us/qicore/StructureDefinition/qicore-encounter" ]
      },
      "status": "finished",
      "class": {
        "system": "http://terminology.hl7.org/CodeSystem/v3-ActCode",
        "code": "IMP",
        "display": "inpatient encounter"
      },
      "type": [ {
        "coding": [ {
          "system": "http://snomed.info/sct",
          "version": "2022-09",
          "code": "183452005",
          "display": "Emergency hospital admission (procedure)",
          "userSelected": true
        } ]
      } ],
      "subject": {
        "reference": "Patient/1cf4f9fa-f716-489a-82f0-a5481c7d1b54"
      },
      "period": {
        "start": "2026-02-01T08:00:00.000+00:00",
        "end": "2026-12-05T08:15:00.000+00:00"
      }
    },
    "request": {
      "method": "PUT",
      "url": "Encounter/cb2eab15-5e9d-4d51-a0fa-4830bcfab260"
    }
  }, {
    "fullUrl": "https://madie.cms.gov/Procedure/72e59d43-7b41-45f1-bc87-d80c0ea1b483",
    "resource": {
      "resourceType": "Procedure",
      "id": "72e59d43-7b41-45f1-bc87-d80c0ea1b483",
      "meta": {
        "profile": [ "http://hl7.org/fhir/us/qicore/StructureDefinition/qicore-procedure" ]
      },
      "extension": [ {
        "url": "http://hl7.org/fhir/us/qicore/StructureDefinition/qicore-recorded",
        "valueDateTime": "2014-04-05T13:35:00.000+00:00"
      } ],
      "status": "completed",
      "code": {
        "coding": [ {
          "system": "http://snomed.info/sct",
          "version": "2022-09",
          "code": "10745001",
          "display": "Delivery of transverse presentation (procedure)",
          "userSelected": true
        } ]
      },
      "subject": {
        "reference": "Patient/1cf4f9fa-f716-489a-82f0-a5481c7d1b54"
      },
      "performedDateTime": "2026-01-01T08:00:00.000+00:00"
    },
    "request": {
      "method": "PUT",
      "url": "Procedure/72e59d43-7b41-45f1-bc87-d80c0ea1b483"
    }
  }, {
    "fullUrl": "https://madie.cms.gov/Procedure/1ec24b0d-43a7-444a-9c8e-74db1357bd3c",
    "resource": {
      "resourceType": "Procedure",
      "id": "1ec24b0d-43a7-444a-9c8e-74db1357bd3c",
      "meta": {
        "profile": [ "http://hl7.org/fhir/us/qicore/StructureDefinition/qicore-procedure" ]
      },
      "extension": [ {
        "url": "http://hl7.org/fhir/us/qicore/StructureDefinition/qicore-recorded",
        "valueDateTime": "2014-04-05T13:35:00.000+00:00"
      } ],
      "status": "completed",
      "code": {
        "coding": [ {
          "system": "http://snomed.info/sct",
          "version": "2022-09",
          "code": "10745001",
          "display": "Delivery of transverse presentation (procedure)",
          "userSelected": true
        } ]
      },
      "subject": {
        "reference": "Patient/1cf4f9fa-f716-489a-82f0-a5481c7d1b54"
      },
      "performedDateTime": "2026-12-01T08:00:00.000+00:00"
    },
    "request": {
      "method": "PUT",
      "url": "Procedure/1ec24b0d-43a7-444a-9c8e-74db1357bd3c"
    }
  }, {
    "fullUrl": "https://madie.cms.gov/Coverage/5cc25b03-d9cb-4faa-81af-16cafa6b43b8",
    "resource": {
      "resourceType": "Coverage",
      "id": "5cc25b03-d9cb-4faa-81af-16cafa6b43b8",
      "meta": {
        "profile": [ "http://hl7.org/fhir/us/qicore/StructureDefinition/qicore-coverage" ]
      },
      "status": "active",
      "beneficiary": {
        "reference": "Patient/1cf4f9fa-f716-489a-82f0-a5481c7d1b54"
      },
      "payor": [ {
        "reference": "Organization/69094f3c-0a87-499d-bdfe-f0e7320c4b80"
      } ]
    },
    "request": {
      "method": "PUT",
      "url": "Coverage/5cc25b03-d9cb-4faa-81af-16cafa6b43b8"
    }
  }, {
    "fullUrl": "https://madie.cms.gov/Organization/69094f3c-0a87-499d-bdfe-f0e7320c4b80",
    "resource": {
      "resourceType": "Organization",
      "id": "69094f3c-0a87-499d-bdfe-f0e7320c4b80",
      "meta": {
        "profile": [ "http://hl7.org/fhir/us/qicore/StructureDefinition/qicore-organization" ]
      },
      "identifier": [ {
        "use": "temp",
        "system": "urn:oid:2.16.840.1.113883.4.4",
        "value": "21-3259825"
      } ],
      "active": true,
      "type": [ {
        "coding": [ {
          "system": "http://terminology.hl7.org/CodeSystem/organization-type",
          "code": "pay",
          "display": "Payer"
        } ]
      } ],
      "name": "Blue Cross Blue Shield of Texas",
      "telecom": [ {
        "system": "phone",
        "value": "(+1) 972-766-6900"
      } ],
      "address": [ {
        "use": "billing",
        "type": "postal",
        "line": [ "P.O. Box 660044" ],
        "city": "Dallas",
        "state": "TX",
        "postalCode": "75266-0044",
        "country": "USA"
      } ]
    },
    "request": {
      "method": "PUT",
      "url": "Organization/69094f3c-0a87-499d-bdfe-f0e7320c4b80"
    }
  }, {
    "fullUrl": "https://madie.cms.gov/Practitioner/0d7b0da1-31eb-41b4-8c93-2cbd9626cec5",
    "resource": {
      "resourceType": "Practitioner",
      "id": "0d7b0da1-31eb-41b4-8c93-2cbd9626cec5",
      "identifier": [ {
        "system": "http://hl7.org/fhir/sid/us-npi",
        "value": "123456"
      } ],
      "name": [ {
        "family": "Evil",
        "prefix": [ "Dr" ]
      } ]
    },
    "request": {
      "method": "PUT",
      "url": "Practitioner/0d7b0da1-31eb-41b4-8c93-2cbd9626cec5"
    }
  }, {
    "fullUrl": "https://madie.cms.gov/MeasureReport/c4956e72-63a5-4503-96ee-fc70d610fa8a",
    "resource": {
      "resourceType": "MeasureReport",
      "id": "c4956e72-63a5-4503-96ee-fc70d610fa8a",
      "meta": {
        "profile": [ "http://hl7.org/fhir/us/cqfmeasures/StructureDefinition/test-case-cqfm" ]
      },
      "contained": [ {
        "resourceType": "Parameters",
        "id": "ba782b81-cbfa-4562-b5ed-f7b9588bee41-parameters",
        "parameter": [ {
          "name": "subject",
          "valueString": "1cf4f9fa-f716-489a-82f0-a5481c7d1b54"
        } ]
      } ],
      "extension": [ {
        "url": "http://hl7.org/fhir/StructureDefinition/cqf-inputParameters",
        "valueReference": {
          "reference": "#ba782b81-cbfa-4562-b5ed-f7b9588bee41-parameters"
        }
      }, {
        "url": "http://hl7.org/fhir/us/cqfmeasures/StructureDefinition/cqfm-testCaseDescription",
        "valueMarkdown": "2 Delivery procedures 11 months apart.\n"
      } ],
      "modifierExtension": [ {
        "url": "http://hl7.org/fhir/us/cqfmeasures/StructureDefinition/cqfm-isTestCase",
        "valueBoolean": true
      } ],
      "status": "complete",
      "type": "individual",
      "measure": "https://madie.cms.gov/Measure/CMS1028FHIRPCSevereOBComps",
      "period": {
        "start": "2026-01-01",
        "end": "2026-12-31"
      },
      "group": [ {
        "id": "Group_1",
        "population": [ {
          "id": "InitialPopulation_1",
          "code": {
            "coding": [ {
              "system": "http://terminology.hl7.org/CodeSystem/measure-population",
              "code": "initial-population",
              "display": "Initial Population"
            } ]
          },
          "count": 2
        }, {
          "id": "Denominator_1",
          "code": {
            "coding": [ {
              "system": "http://terminology.hl7.org/CodeSystem/measure-population",
              "code": "denominator",
              "display": "Denominator"
            } ]
          },
          "count": 0
        }, {
          "id": "Numerator_1",
          "code": {
            "coding": [ {
              "system": "http://terminology.hl7.org/CodeSystem/measure-population",
              "code": "numerator",
              "display": "Numerator"
            } ]
          },
          "count": 0
        }, {
          "id": "NumeratorExclusion_1",
          "code": {
            "coding": [ {
              "system": "http://terminology.hl7.org/CodeSystem/measure-population",
              "code": "numerator-exclusion",
              "display": "Numerator Exclusion"
            } ]
          },
          "count": 0
        } ],
        "measureScore": {
          "value": 0.0
        }
      }, {
        "id": "Group_2",
        "population": [ {
          "id": "InitialPopulation_2",
          "code": {
            "coding": [ {
              "system": "http://terminology.hl7.org/CodeSystem/measure-population",
              "code": "initial-population",
              "display": "Initial Population"
            } ]
          },
          "count": 2
        }, {
          "id": "Denominator_2",
          "code": {
            "coding": [ {
              "system": "http://terminology.hl7.org/CodeSystem/measure-population",
              "code": "denominator",
              "display": "Denominator"
            } ]
          },
          "count": 0
        }, {
          "id": "Numerator_2",
          "code": {
            "coding": [ {
              "system": "http://terminology.hl7.org/CodeSystem/measure-population",
              "code": "numerator",
              "display": "Numerator"
            } ]
          },
          "count": 0
        }, {
          "id": "NumeratorExclusion_2",
          "code": {
            "coding": [ {
              "system": "http://terminology.hl7.org/CodeSystem/measure-population",
              "code": "numerator-exclusion",
              "display": "Numerator Exclusion"
            } ]
          },
          "count": 0
        } ],
        "measureScore": {
          "value": 0.0
        }
      } ],
      "evaluatedResource": [ {
        "reference": "Patient/1cf4f9fa-f716-489a-82f0-a5481c7d1b54"
      }, {
        "reference": "Encounter/760182f2-94d0-41f2-8b96-99add6508c74"
      }, {
        "reference": "Encounter/cb2eab15-5e9d-4d51-a0fa-4830bcfab260"
      }, {
        "reference": "Procedure/72e59d43-7b41-45f1-bc87-d80c0ea1b483"
      }, {
        "reference": "Procedure/1ec24b0d-43a7-444a-9c8e-74db1357bd3c"
      }, {
        "reference": "Coverage/5cc25b03-d9cb-4faa-81af-16cafa6b43b8"
      }, {
        "reference": "Organization/69094f3c-0a87-499d-bdfe-f0e7320c4b80"
      }, {
        "reference": "Practitioner/0d7b0da1-31eb-41b4-8c93-2cbd9626cec5"
      } ]
    },
    "request": {
      "method": "PUT",
      "url": "MeasureReport/c4956e72-63a5-4503-96ee-fc70d610fa8a"
    }
  } ]
}