{
  "resourceType": "Bundle",
  "id": "NUMERPass-AllVaccinesAsProcedures",
  "type": "transaction",
  "entry": [ {
    "fullUrl": "https://madie.cms.gov/Patient/1e7dc519-5d75-4c07-b23f-ae9421a12943",
    "resource": {
      "resourceType": "Patient",
      "id": "1e7dc519-5d75-4c07-b23f-ae9421a12943",
      "meta": {
        "profile": [ "http://hl7.org/fhir/us/qicore/StructureDefinition/qicore-patient" ]
      },
      "extension": [ {
        "url": "http://hl7.org/fhir/us/core/StructureDefinition/us-core-race",
        "extension": [ {
          "url": "ombCategory",
          "valueCoding": {
            "system": "urn:oid:2.16.840.1.113883.6.238",
            "code": "2028-9",
            "display": "Asian",
            "userSelected": true
          }
        }, {
          "url": "text",
          "valueString": "Asian"
        } ]
      }, {
        "url": "http://hl7.org/fhir/us/core/StructureDefinition/us-core-ethnicity",
        "extension": [ {
          "url": "ombCategory",
          "valueCoding": {
            "system": "urn:oid:2.16.840.1.113883.6.238",
            "code": "2135-2",
            "display": "Hispanic or Latino",
            "userSelected": true
          }
        }, {
          "url": "text",
          "valueString": "Hispanic or Latino"
        } ]
      } ],
      "identifier": [ {
        "type": {
          "coding": [ {
            "system": "http://terminology.hl7.org/CodeSystem/v2-0203",
            "code": "MR"
          } ]
        },
        "system": "http://hospital.smarthealthit.org",
        "value": "999999995"
      } ],
      "name": [ {
        "family": "Bertha",
        "given": [ "Betty" ]
      } ],
      "gender": "female",
      "birthDate": "2024-01-01"
    },
    "request": {
      "method": "PUT",
      "url": "Patient/1e7dc519-5d75-4c07-b23f-ae9421a12943"
    }
  }, {
    "fullUrl": "https://madie.cms.gov/Encounter/9c14e051-39c8-4b63-b8d5-d2da02d776f6",
    "resource": {
      "resourceType": "Encounter",
      "id": "9c14e051-39c8-4b63-b8d5-d2da02d776f6",
      "meta": {
        "profile": [ "http://hl7.org/fhir/us/qicore/StructureDefinition/qicore-encounter" ]
      },
      "status": "finished",
      "class": {
        "system": "http://terminology.hl7.org/CodeSystem/v3-ActCode",
        "code": "AMB",
        "display": "ambulatory"
      },
      "type": [ {
        "coding": [ {
          "system": "http://snomed.info/sct",
          "code": "185317003",
          "display": "Telephone encounter (procedure)"
        } ]
      } ],
      "subject": {
        "reference": "Patient/1e7dc519-5d75-4c07-b23f-ae9421a12943"
      },
      "period": {
        "start": "2026-01-01T01:00:00.000+00:00",
        "end": "2026-01-01T01:15:00.000+00:00"
      }
    },
    "request": {
      "method": "PUT",
      "url": "Encounter/9c14e051-39c8-4b63-b8d5-d2da02d776f6"
    }
  }, {
    "fullUrl": "https://madie.cms.gov/Immunization/3fed3875-1e70-42ee-8724-35ba31286838",
    "resource": {
      "resourceType": "Immunization",
      "id": "3fed3875-1e70-42ee-8724-35ba31286838",
      "meta": {
        "profile": [ "http://hl7.org/fhir/us/qicore/StructureDefinition/qicore-immunization" ]
      },
      "status": "completed",
      "vaccineCode": {
        "coding": [ {
          "system": "http://hl7.org/fhir/sid/cvx",
          "code": "146",
          "display": "DTaP,IPV,Hib,HepB"
        } ]
      },
      "patient": {
        "reference": "Patient/1e7dc519-5d75-4c07-b23f-ae9421a12943"
      },
      "occurrenceDateTime": "2025-01-02T00:00:00.000+00:00",
      "recorded": "2025-01-02T00:00:00.000+00:00",
      "primarySource": true
    },
    "request": {
      "method": "PUT",
      "url": "Immunization/3fed3875-1e70-42ee-8724-35ba31286838"
    }
  }, {
    "fullUrl": "https://madie.cms.gov/Immunization/2f8ddaf4-41f0-4e16-a555-a074da192430",
    "resource": {
      "resourceType": "Immunization",
      "id": "2f8ddaf4-41f0-4e16-a555-a074da192430",
      "meta": {
        "profile": [ "http://hl7.org/fhir/us/qicore/StructureDefinition/qicore-immunization" ]
      },
      "status": "completed",
      "vaccineCode": {
        "coding": [ {
          "system": "http://hl7.org/fhir/sid/cvx",
          "code": "146",
          "display": "DTaP,IPV,Hib,HepB"
        } ]
      },
      "patient": {
        "reference": "Patient/1e7dc519-5d75-4c07-b23f-ae9421a12943"
      },
      "occurrenceDateTime": "2025-01-05T00:00:00.000+00:00",
      "recorded": "2025-01-02T00:00:00.000+00:00",
      "primarySource": true
    },
    "request": {
      "method": "PUT",
      "url": "Immunization/2f8ddaf4-41f0-4e16-a555-a074da192430"
    }
  }, {
    "fullUrl": "https://madie.cms.gov/Immunization/98ab93dc-6fe3-4b9a-ac6d-c2ffb2af9216",
    "resource": {
      "resourceType": "Immunization",
      "id": "98ab93dc-6fe3-4b9a-ac6d-c2ffb2af9216",
      "meta": {
        "profile": [ "http://hl7.org/fhir/us/qicore/StructureDefinition/qicore-immunization" ]
      },
      "status": "completed",
      "vaccineCode": {
        "coding": [ {
          "system": "http://hl7.org/fhir/sid/cvx",
          "code": "146",
          "display": "DTaP,IPV,Hib,HepB"
        } ]
      },
      "patient": {
        "reference": "Patient/1e7dc519-5d75-4c07-b23f-ae9421a12943"
      },
      "occurrenceDateTime": "2025-01-07T00:00:00.000+00:00",
      "recorded": "2025-01-02T00:00:00.000+00:00",
      "primarySource": true
    },
    "request": {
      "method": "PUT",
      "url": "Immunization/98ab93dc-6fe3-4b9a-ac6d-c2ffb2af9216"
    }
  }, {
    "fullUrl": "https://madie.cms.gov/Procedure/411ccf5c-aa59-4cd8-b70d-f279a77f1733",
    "resource": {
      "resourceType": "Procedure",
      "id": "411ccf5c-aa59-4cd8-b70d-f279a77f1733",
      "meta": {
        "profile": [ "http://hl7.org/fhir/us/qicore/StructureDefinition/qicore-procedure" ]
      },
      "extension": [ {
        "url": "http://hl7.org/fhir/us/qicore/StructureDefinition/qicore-recorded",
        "valueDateTime": "2025-01-02T00:00:00.000+00:00"
      } ],
      "status": "completed",
      "code": {
        "coding": [ {
          "system": "http://www.ama-assn.org/go/cpt",
          "code": "90700",
          "display": "Diphtheria, tetanus toxoids, and acellular pertussis vaccine (DTaP), when administered to individuals younger than 7 years, for intramuscular use"
        } ]
      },
      "subject": {
        "reference": "Patient/1e7dc519-5d75-4c07-b23f-ae9421a12943"
      },
      "performedPeriod": {
        "start": "2025-01-02T00:00:00.000+00:00",
        "end": "2025-01-02T23:59:59.000+00:00"
      }
    },
    "request": {
      "method": "PUT",
      "url": "Procedure/411ccf5c-aa59-4cd8-b70d-f279a77f1733"
    }
  }, {
    "fullUrl": "https://madie.cms.gov/Immunization/eb30ff06-6c5a-4b72-bd2c-94e873d399ea",
    "resource": {
      "resourceType": "Immunization",
      "id": "eb30ff06-6c5a-4b72-bd2c-94e873d399ea",
      "meta": {
        "profile": [ "http://hl7.org/fhir/us/qicore/StructureDefinition/qicore-immunization" ]
      },
      "status": "completed",
      "vaccineCode": {
        "coding": [ {
          "system": "http://hl7.org/fhir/sid/cvx",
          "code": "146",
          "display": "DTaP,IPV,Hib,HepB"
        } ]
      },
      "patient": {
        "reference": "Patient/1e7dc519-5d75-4c07-b23f-ae9421a12943"
      },
      "occurrenceDateTime": "2025-01-02T00:00:00.000+00:00",
      "recorded": "2025-01-02T00:00:00.000+00:00",
      "primarySource": true
    },
    "request": {
      "method": "PUT",
      "url": "Immunization/eb30ff06-6c5a-4b72-bd2c-94e873d399ea"
    }
  }, {
    "fullUrl": "https://madie.cms.gov/Immunization/50024089-ba3d-48ab-91c5-d06283b11ba4",
    "resource": {
      "resourceType": "Immunization",
      "id": "50024089-ba3d-48ab-91c5-d06283b11ba4",
      "meta": {
        "profile": [ "http://hl7.org/fhir/us/qicore/StructureDefinition/qicore-immunization" ]
      },
      "status": "completed",
      "vaccineCode": {
        "coding": [ {
          "system": "http://hl7.org/fhir/sid/cvx",
          "code": "146",
          "display": "DTaP,IPV,Hib,HepB"
        } ]
      },
      "patient": {
        "reference": "Patient/1e7dc519-5d75-4c07-b23f-ae9421a12943"
      },
      "occurrenceDateTime": "2025-01-06T00:00:00.000+00:00",
      "recorded": "2025-01-02T00:00:00.000+00:00",
      "primarySource": true
    },
    "request": {
      "method": "PUT",
      "url": "Immunization/50024089-ba3d-48ab-91c5-d06283b11ba4"
    }
  }, {
    "fullUrl": "https://madie.cms.gov/Procedure/38cb3a32-9bcb-4b9b-90c8-b04276bc1cfc",
    "resource": {
      "resourceType": "Procedure",
      "id": "38cb3a32-9bcb-4b9b-90c8-b04276bc1cfc",
      "meta": {
        "profile": [ "http://hl7.org/fhir/us/qicore/StructureDefinition/qicore-procedure" ]
      },
      "extension": [ {
        "url": "http://hl7.org/fhir/us/qicore/StructureDefinition/qicore-recorded",
        "valueDateTime": "2025-01-02T00:00:00.000+00:00"
      } ],
      "status": "completed",
      "code": {
        "coding": [ {
          "system": "http://www.ama-assn.org/go/cpt",
          "code": "90713",
          "display": "Poliovirus vaccine, inactivated (IPV), for subcutaneous or intramuscular use"
        } ]
      },
      "subject": {
        "reference": "Patient/1e7dc519-5d75-4c07-b23f-ae9421a12943"
      },
      "performedPeriod": {
        "start": "2025-01-02T00:00:00.000+00:00",
        "end": "2025-01-02T23:59:59.000+00:00"
      }
    },
    "request": {
      "method": "PUT",
      "url": "Procedure/38cb3a32-9bcb-4b9b-90c8-b04276bc1cfc"
    }
  }, {
    "fullUrl": "https://madie.cms.gov/Procedure/9666f4d4-d43f-4620-88e4-a1bacdceda04",
    "resource": {
      "resourceType": "Procedure",
      "id": "9666f4d4-d43f-4620-88e4-a1bacdceda04",
      "meta": {
        "profile": [ "http://hl7.org/fhir/us/qicore/StructureDefinition/qicore-procedure" ]
      },
      "extension": [ {
        "url": "http://hl7.org/fhir/us/qicore/StructureDefinition/qicore-recorded",
        "valueDateTime": "2025-01-02T00:00:00.000+00:00"
      } ],
      "status": "completed",
      "code": {
        "coding": [ {
          "system": "http://www.ama-assn.org/go/cpt",
          "code": "90710",
          "display": "Measles, mumps, rubella, and varicella vaccine (MMRV), live, for subcutaneous use"
        } ]
      },
      "subject": {
        "reference": "Patient/1e7dc519-5d75-4c07-b23f-ae9421a12943"
      },
      "performedPeriod": {
        "start": "2025-01-02T00:00:00.000+00:00",
        "end": "2025-01-02T23:59:59.000+00:00"
      }
    },
    "request": {
      "method": "PUT",
      "url": "Procedure/9666f4d4-d43f-4620-88e4-a1bacdceda04"
    }
  }, {
    "fullUrl": "https://madie.cms.gov/Immunization/3e6ec068-f314-441f-bab4-b3891fa21a07",
    "resource": {
      "resourceType": "Immunization",
      "id": "3e6ec068-f314-441f-bab4-b3891fa21a07",
      "meta": {
        "profile": [ "http://hl7.org/fhir/us/qicore/StructureDefinition/qicore-immunization" ]
      },
      "status": "completed",
      "vaccineCode": {
        "coding": [ {
          "system": "http://hl7.org/fhir/sid/cvx",
          "code": "49",
          "display": "Haemophilus influenzae type b vaccine, PRP-OMP conjugate"
        } ]
      },
      "patient": {
        "reference": "Patient/1e7dc519-5d75-4c07-b23f-ae9421a12943"
      },
      "occurrenceDateTime": "2025-01-02T00:00:00.000+00:00",
      "recorded": "2025-01-02T00:00:00.000+00:00",
      "primarySource": true
    },
    "request": {
      "method": "PUT",
      "url": "Immunization/3e6ec068-f314-441f-bab4-b3891fa21a07"
    }
  }, {
    "fullUrl": "https://madie.cms.gov/Immunization/96715573-5881-46b7-924c-95f61b9c7bdb",
    "resource": {
      "resourceType": "Immunization",
      "id": "96715573-5881-46b7-924c-95f61b9c7bdb",
      "meta": {
        "profile": [ "http://hl7.org/fhir/us/qicore/StructureDefinition/qicore-immunization" ]
      },
      "status": "completed",
      "vaccineCode": {
        "coding": [ {
          "system": "http://hl7.org/fhir/sid/cvx",
          "code": "49",
          "display": "Haemophilus influenzae type b vaccine, PRP-OMP conjugate"
        } ]
      },
      "patient": {
        "reference": "Patient/1e7dc519-5d75-4c07-b23f-ae9421a12943"
      },
      "occurrenceDateTime": "2025-01-02T00:00:00.000+00:00",
      "recorded": "2025-01-02T00:00:00.000+00:00",
      "primarySource": true
    },
    "request": {
      "method": "PUT",
      "url": "Immunization/96715573-5881-46b7-924c-95f61b9c7bdb"
    }
  }, {
    "fullUrl": "https://madie.cms.gov/Procedure/9f48d0d0-e9aa-4f52-af24-57a1800eba34",
    "resource": {
      "resourceType": "Procedure",
      "id": "9f48d0d0-e9aa-4f52-af24-57a1800eba34",
      "meta": {
        "profile": [ "http://hl7.org/fhir/us/qicore/StructureDefinition/qicore-procedure" ]
      },
      "extension": [ {
        "url": "http://hl7.org/fhir/us/qicore/StructureDefinition/qicore-recorded",
        "valueDateTime": "2025-01-02T00:00:00.000+00:00"
      } ],
      "status": "completed",
      "code": {
        "coding": [ {
          "system": "http://www.ama-assn.org/go/cpt",
          "code": "90697",
          "display": "Diphtheria, tetanus toxoids, acellular pertussis vaccine, inactivated poliovirus vaccine, Haemophilus influenzae type b PRP-OMP conjugate vaccine, and hepatitis B vaccine (DTaP-IPV-Hib-HepB), for intramuscular use"
        } ]
      },
      "subject": {
        "reference": "Patient/1e7dc519-5d75-4c07-b23f-ae9421a12943"
      },
      "performedPeriod": {
        "start": "2025-01-02T00:00:00.000+00:00",
        "end": "2025-01-02T23:59:59.000+00:00"
      }
    },
    "request": {
      "method": "PUT",
      "url": "Procedure/9f48d0d0-e9aa-4f52-af24-57a1800eba34"
    }
  }, {
    "fullUrl": "https://madie.cms.gov/Immunization/b5185f0b-1c47-44e2-aa4d-42a604860676",
    "resource": {
      "resourceType": "Immunization",
      "id": "b5185f0b-1c47-44e2-aa4d-42a604860676",
      "meta": {
        "profile": [ "http://hl7.org/fhir/us/qicore/StructureDefinition/qicore-immunization" ]
      },
      "status": "completed",
      "vaccineCode": {
        "coding": [ {
          "system": "http://hl7.org/fhir/sid/cvx",
          "code": "51",
          "display": "Haemophilus influenzae type b conjugate and Hepatitis B vaccine"
        } ]
      },
      "patient": {
        "reference": "Patient/1e7dc519-5d75-4c07-b23f-ae9421a12943"
      },
      "occurrenceDateTime": "2025-01-02T00:00:00.000+00:00",
      "recorded": "2025-01-02T00:00:00.000+00:00",
      "primarySource": true
    },
    "request": {
      "method": "PUT",
      "url": "Immunization/b5185f0b-1c47-44e2-aa4d-42a604860676"
    }
  }, {
    "fullUrl": "https://madie.cms.gov/Immunization/794d5c28-d2aa-44d0-9fae-2625b07506d0",
    "resource": {
      "resourceType": "Immunization",
      "id": "794d5c28-d2aa-44d0-9fae-2625b07506d0",
      "meta": {
        "profile": [ "http://hl7.org/fhir/us/qicore/StructureDefinition/qicore-immunization" ]
      },
      "status": "completed",
      "vaccineCode": {
        "coding": [ {
          "system": "http://hl7.org/fhir/sid/cvx",
          "code": "51",
          "display": "Haemophilus influenzae type b conjugate and Hepatitis B vaccine"
        } ]
      },
      "patient": {
        "reference": "Patient/1e7dc519-5d75-4c07-b23f-ae9421a12943"
      },
      "occurrenceDateTime": "2025-01-10T00:00:00.000+00:00",
      "recorded": "2025-01-02T00:00:00.000+00:00",
      "primarySource": true
    },
    "request": {
      "method": "PUT",
      "url": "Immunization/794d5c28-d2aa-44d0-9fae-2625b07506d0"
    }
  }, {
    "fullUrl": "https://madie.cms.gov/Procedure/d4e2ae38-d4e4-417d-82bd-70d59704d7e7",
    "resource": {
      "resourceType": "Procedure",
      "id": "d4e2ae38-d4e4-417d-82bd-70d59704d7e7",
      "meta": {
        "profile": [ "http://hl7.org/fhir/us/qicore/StructureDefinition/qicore-procedure" ]
      },
      "extension": [ {
        "url": "http://hl7.org/fhir/us/qicore/StructureDefinition/qicore-recorded",
        "valueDateTime": "2025-01-02T00:00:00.000+00:00"
      } ],
      "status": "completed",
      "code": {
        "coding": [ {
          "system": "http://www.ama-assn.org/go/cpt",
          "code": "90740",
          "display": "Hepatitis B vaccine (HepB), dialysis or immunosuppressed patient dosage, 3 dose schedule, for intramuscular use"
        } ]
      },
      "subject": {
        "reference": "Patient/1e7dc519-5d75-4c07-b23f-ae9421a12943"
      },
      "performedPeriod": {
        "start": "2025-01-02T00:00:00.000+00:00",
        "end": "2025-01-02T23:59:59.000+00:00"
      }
    },
    "request": {
      "method": "PUT",
      "url": "Procedure/d4e2ae38-d4e4-417d-82bd-70d59704d7e7"
    }
  }, {
    "fullUrl": "https://madie.cms.gov/Immunization/81e895d9-f8da-4e61-9268-44fe572a4fb1",
    "resource": {
      "resourceType": "Immunization",
      "id": "81e895d9-f8da-4e61-9268-44fe572a4fb1",
      "meta": {
        "profile": [ "http://hl7.org/fhir/us/qicore/StructureDefinition/qicore-immunization" ]
      },
      "status": "completed",
      "vaccineCode": {
        "coding": [ {
          "system": "http://hl7.org/fhir/sid/cvx",
          "code": "94",
          "display": "measles, mumps, rubella, and varicella virus vaccine"
        } ]
      },
      "patient": {
        "reference": "Patient/1e7dc519-5d75-4c07-b23f-ae9421a12943"
      },
      "occurrenceDateTime": "2025-01-02T00:00:00.000+00:00",
      "recorded": "2025-01-02T00:00:00.000+00:00",
      "primarySource": true
    },
    "request": {
      "method": "PUT",
      "url": "Immunization/81e895d9-f8da-4e61-9268-44fe572a4fb1"
    }
  }, {
    "fullUrl": "https://madie.cms.gov/Immunization/0e60cca8-08d3-47ed-8489-b52f2c3b256e",
    "resource": {
      "resourceType": "Immunization",
      "id": "0e60cca8-08d3-47ed-8489-b52f2c3b256e",
      "meta": {
        "profile": [ "http://hl7.org/fhir/us/qicore/StructureDefinition/qicore-immunization" ]
      },
      "status": "completed",
      "vaccineCode": {
        "coding": [ {
          "system": "http://hl7.org/fhir/sid/cvx",
          "code": "215",
          "display": "Pneumococcal conjugate vaccine 15-valent (PCV15), polysaccharide CRM197 conjugate, adjuvant, preservative free"
        } ]
      },
      "patient": {
        "reference": "Patient/1e7dc519-5d75-4c07-b23f-ae9421a12943"
      },
      "occurrenceDateTime": "2025-01-12T00:00:00.000+00:00",
      "recorded": "2025-01-02T00:00:00.000+00:00",
      "primarySource": true
    },
    "request": {
      "method": "PUT",
      "url": "Immunization/0e60cca8-08d3-47ed-8489-b52f2c3b256e"
    }
  }, {
    "fullUrl": "https://madie.cms.gov/Immunization/d61be48b-5291-4d1e-b9df-a1a1e522b02a",
    "resource": {
      "resourceType": "Immunization",
      "id": "d61be48b-5291-4d1e-b9df-a1a1e522b02a",
      "meta": {
        "profile": [ "http://hl7.org/fhir/us/qicore/StructureDefinition/qicore-immunization" ]
      },
      "status": "completed",
      "vaccineCode": {
        "coding": [ {
          "system": "http://hl7.org/fhir/sid/cvx",
          "code": "215",
          "display": "Pneumococcal conjugate vaccine 15-valent (PCV15), polysaccharide CRM197 conjugate, adjuvant, preservative free"
        } ]
      },
      "patient": {
        "reference": "Patient/1e7dc519-5d75-4c07-b23f-ae9421a12943"
      },
      "occurrenceDateTime": "2025-01-14T00:00:00.000+00:00",
      "recorded": "2025-01-02T00:00:00.000+00:00",
      "primarySource": true
    },
    "request": {
      "method": "PUT",
      "url": "Immunization/d61be48b-5291-4d1e-b9df-a1a1e522b02a"
    }
  }, {
    "fullUrl": "https://madie.cms.gov/Immunization/661f0706-3165-4567-bd1e-7d8c8af06220",
    "resource": {
      "resourceType": "Immunization",
      "id": "661f0706-3165-4567-bd1e-7d8c8af06220",
      "meta": {
        "profile": [ "http://hl7.org/fhir/us/qicore/StructureDefinition/qicore-immunization" ]
      },
      "status": "completed",
      "vaccineCode": {
        "coding": [ {
          "system": "http://hl7.org/fhir/sid/cvx",
          "code": "215",
          "display": "Pneumococcal conjugate vaccine 15-valent (PCV15), polysaccharide CRM197 conjugate, adjuvant, preservative free"
        } ]
      },
      "patient": {
        "reference": "Patient/1e7dc519-5d75-4c07-b23f-ae9421a12943"
      },
      "occurrenceDateTime": "2025-01-20T00:00:00.000+00:00",
      "recorded": "2025-01-02T00:00:00.000+00:00",
      "primarySource": true
    },
    "request": {
      "method": "PUT",
      "url": "Immunization/661f0706-3165-4567-bd1e-7d8c8af06220"
    }
  }, {
    "fullUrl": "https://madie.cms.gov/Procedure/6b8863eb-77df-4025-be49-226443c9aa98",
    "resource": {
      "resourceType": "Procedure",
      "id": "6b8863eb-77df-4025-be49-226443c9aa98",
      "meta": {
        "profile": [ "http://hl7.org/fhir/us/qicore/StructureDefinition/qicore-procedure" ]
      },
      "extension": [ {
        "url": "http://hl7.org/fhir/us/qicore/StructureDefinition/qicore-recorded",
        "valueDateTime": "2025-01-02T00:00:00.000+00:00"
      } ],
      "status": "completed",
      "code": {
        "coding": [ {
          "system": "http://www.ama-assn.org/go/cpt",
          "code": "90670",
          "display": "Pneumococcal conjugate vaccine, 13 valent (PCV13), for intramuscular use"
        } ]
      },
      "subject": {
        "reference": "Patient/1e7dc519-5d75-4c07-b23f-ae9421a12943"
      },
      "performedPeriod": {
        "start": "2025-01-02T00:00:00.000+00:00",
        "end": "2025-01-02T23:59:59.000+00:00"
      }
    },
    "request": {
      "method": "PUT",
      "url": "Procedure/6b8863eb-77df-4025-be49-226443c9aa98"
    }
  }, {
    "fullUrl": "https://madie.cms.gov/Procedure/2d276c34-d577-45fa-b9de-e4726c322b9c",
    "resource": {
      "resourceType": "Procedure",
      "id": "2d276c34-d577-45fa-b9de-e4726c322b9c",
      "meta": {
        "profile": [ "http://hl7.org/fhir/us/qicore/StructureDefinition/qicore-procedure" ]
      },
      "extension": [ {
        "url": "http://hl7.org/fhir/us/qicore/StructureDefinition/qicore-recorded",
        "valueDateTime": "2025-01-02T00:00:00.000+00:00"
      } ],
      "status": "completed",
      "code": {
        "coding": [ {
          "system": "http://www.ama-assn.org/go/cpt",
          "code": "90633",
          "display": "Hepatitis A vaccine (HepA), pediatric/adolescent dosage-2 dose schedule, for intramuscular use"
        } ]
      },
      "subject": {
        "reference": "Patient/1e7dc519-5d75-4c07-b23f-ae9421a12943"
      },
      "performedPeriod": {
        "start": "2025-01-02T00:00:00.000+00:00",
        "end": "2025-01-02T23:59:59.000+00:00"
      }
    },
    "request": {
      "method": "PUT",
      "url": "Procedure/2d276c34-d577-45fa-b9de-e4726c322b9c"
    }
  }, {
    "fullUrl": "https://madie.cms.gov/Immunization/e2b48530-9445-4c68-aee4-b442af088061",
    "resource": {
      "resourceType": "Immunization",
      "id": "e2b48530-9445-4c68-aee4-b442af088061",
      "meta": {
        "profile": [ "http://hl7.org/fhir/us/qicore/StructureDefinition/qicore-immunization" ]
      },
      "status": "completed",
      "vaccineCode": {
        "coding": [ {
          "system": "http://hl7.org/fhir/sid/cvx",
          "code": "119",
          "display": "rotavirus, live, monovalent vaccine"
        } ]
      },
      "patient": {
        "reference": "Patient/1e7dc519-5d75-4c07-b23f-ae9421a12943"
      },
      "occurrenceDateTime": "2025-01-02T00:00:00.000+00:00",
      "recorded": "2025-01-02T00:00:00.000+00:00",
      "primarySource": true
    },
    "request": {
      "method": "PUT",
      "url": "Immunization/e2b48530-9445-4c68-aee4-b442af088061"
    }
  }, {
    "fullUrl": "https://madie.cms.gov/Procedure/30e135b3-3ba8-4299-9579-47809d738983",
    "resource": {
      "resourceType": "Procedure",
      "id": "30e135b3-3ba8-4299-9579-47809d738983",
      "meta": {
        "profile": [ "http://hl7.org/fhir/us/qicore/StructureDefinition/qicore-procedure" ]
      },
      "extension": [ {
        "url": "http://hl7.org/fhir/us/qicore/StructureDefinition/qicore-recorded",
        "valueDateTime": "2025-01-02T00:00:00.000+00:00"
      } ],
      "status": "completed",
      "code": {
        "coding": [ {
          "system": "http://www.ama-assn.org/go/cpt",
          "code": "90681",
          "display": "Rotavirus vaccine, human, attenuated (RV1), 2 dose schedule, live, for oral use"
        } ]
      },
      "subject": {
        "reference": "Patient/1e7dc519-5d75-4c07-b23f-ae9421a12943"
      },
      "performedPeriod": {
        "start": "2025-01-07T00:00:00.000+00:00",
        "end": "2025-01-07T23:59:59.000+00:00"
      }
    },
    "request": {
      "method": "PUT",
      "url": "Procedure/30e135b3-3ba8-4299-9579-47809d738983"
    }
  }, {
    "fullUrl": "https://madie.cms.gov/Immunization/a28e4818-6200-422a-bade-f4494c404138",
    "resource": {
      "resourceType": "Immunization",
      "id": "a28e4818-6200-422a-bade-f4494c404138",
      "meta": {
        "profile": [ "http://hl7.org/fhir/us/qicore/StructureDefinition/qicore-immunization" ]
      },
      "status": "completed",
      "vaccineCode": {
        "coding": [ {
          "system": "http://hl7.org/fhir/sid/cvx",
          "code": "153",
          "display": "Influenza, injectable, MDCK, preservative free"
        } ]
      },
      "patient": {
        "reference": "Patient/1e7dc519-5d75-4c07-b23f-ae9421a12943"
      },
      "occurrenceDateTime": "2025-01-02T00:00:00.000+00:00",
      "recorded": "2025-01-02T00:00:00.000+00:00",
      "primarySource": true
    },
    "request": {
      "method": "PUT",
      "url": "Immunization/a28e4818-6200-422a-bade-f4494c404138"
    }
  }, {
    "fullUrl": "https://madie.cms.gov/Procedure/1bde3eee-5162-4f93-a0ca-535128542e04",
    "resource": {
      "resourceType": "Procedure",
      "id": "1bde3eee-5162-4f93-a0ca-535128542e04",
      "meta": {
        "profile": [ "http://hl7.org/fhir/us/qicore/StructureDefinition/qicore-procedure" ]
      },
      "extension": [ {
        "url": "http://hl7.org/fhir/us/qicore/StructureDefinition/qicore-recorded",
        "valueDateTime": "2025-01-10T00:00:00.000+00:00"
      } ],
      "status": "completed",
      "code": {
        "coding": [ {
          "system": "http://www.ama-assn.org/go/cpt",
          "code": "90689",
          "display": "Influenza virus vaccine, quadrivalent (IIV4), inactivated, adjuvanted, preservative free, 0.25 mL dosage, for intramuscular use"
        } ]
      },
      "subject": {
        "reference": "Patient/1e7dc519-5d75-4c07-b23f-ae9421a12943"
      },
      "performedPeriod": {
        "start": "2025-01-10T00:00:00.000+00:00",
        "end": "2025-01-10T23:59:59.000+00:00"
      }
    },
    "request": {
      "method": "PUT",
      "url": "Procedure/1bde3eee-5162-4f93-a0ca-535128542e04"
    }
  }, {
    "fullUrl": "https://madie.cms.gov/MeasureReport/dfd8ab37-8030-499b-8ebf-3cd046819cf7",
    "resource": {
      "resourceType": "MeasureReport",
      "id": "dfd8ab37-8030-499b-8ebf-3cd046819cf7",
      "meta": {
        "profile": [ "http://hl7.org/fhir/us/cqfmeasures/StructureDefinition/test-case-cqfm" ]
      },
      "contained": [ {
        "resourceType": "Parameters",
        "id": "06c5c722-e6b8-4b8f-a6af-89c4238d6280-parameters",
        "parameter": [ {
          "name": "subject",
          "valueString": "1e7dc519-5d75-4c07-b23f-ae9421a12943"
        } ]
      } ],
      "extension": [ {
        "url": "http://hl7.org/fhir/StructureDefinition/cqf-inputParameters",
        "valueReference": {
          "reference": "#06c5c722-e6b8-4b8f-a6af-89c4238d6280-parameters"
        }
      }, {
        "url": "http://hl7.org/fhir/us/cqfmeasures/StructureDefinition/cqfm-testCaseDescription",
        "valueMarkdown": "All vaccines met - procedures"
      } ],
      "modifierExtension": [ {
        "url": "http://hl7.org/fhir/us/cqfmeasures/StructureDefinition/cqfm-isTestCase",
        "valueBoolean": true
      } ],
      "status": "complete",
      "type": "individual",
      "measure": "https://madie.cms.gov/Measure/CMS117FHIRChildImmunStatus",
      "period": {
        "start": "2026-01-01",
        "end": "2026-12-31"
      },
      "group": [ {
        "id": "Group_1",
        "population": [ {
          "id": "InitialPopulation_1",
          "code": {
            "coding": [ {
              "system": "http://terminology.hl7.org/CodeSystem/measure-population",
              "code": "initial-population",
              "display": "Initial Population"
            } ]
          },
          "count": 1
        }, {
          "id": "Denominator_1",
          "code": {
            "coding": [ {
              "system": "http://terminology.hl7.org/CodeSystem/measure-population",
              "code": "denominator",
              "display": "Denominator"
            } ]
          },
          "count": 1
        }, {
          "id": "DenominatorExclusion_1",
          "code": {
            "coding": [ {
              "system": "http://terminology.hl7.org/CodeSystem/measure-population",
              "code": "denominator-exclusion",
              "display": "Denominator Exclusion"
            } ]
          },
          "count": 0
        }, {
          "id": "Numerator_1",
          "code": {
            "coding": [ {
              "system": "http://terminology.hl7.org/CodeSystem/measure-population",
              "code": "numerator",
              "display": "Numerator"
            } ]
          },
          "count": 1
        } ],
        "measureScore": {
          "value": 1.0
        }
      } ],
      "evaluatedResource": [ {
        "reference": "Patient/1e7dc519-5d75-4c07-b23f-ae9421a12943"
      }, {
        "reference": "Encounter/9c14e051-39c8-4b63-b8d5-d2da02d776f6"
      }, {
        "reference": "Immunization/3fed3875-1e70-42ee-8724-35ba31286838"
      }, {
        "reference": "Immunization/2f8ddaf4-41f0-4e16-a555-a074da192430"
      }, {
        "reference": "Immunization/98ab93dc-6fe3-4b9a-ac6d-c2ffb2af9216"
      }, {
        "reference": "Procedure/411ccf5c-aa59-4cd8-b70d-f279a77f1733"
      }, {
        "reference": "Immunization/eb30ff06-6c5a-4b72-bd2c-94e873d399ea"
      }, {
        "reference": "Immunization/50024089-ba3d-48ab-91c5-d06283b11ba4"
      }, {
        "reference": "Procedure/38cb3a32-9bcb-4b9b-90c8-b04276bc1cfc"
      }, {
        "reference": "Procedure/9666f4d4-d43f-4620-88e4-a1bacdceda04"
      }, {
        "reference": "Immunization/3e6ec068-f314-441f-bab4-b3891fa21a07"
      }, {
        "reference": "Immunization/96715573-5881-46b7-924c-95f61b9c7bdb"
      }, {
        "reference": "Procedure/9f48d0d0-e9aa-4f52-af24-57a1800eba34"
      }, {
        "reference": "Immunization/b5185f0b-1c47-44e2-aa4d-42a604860676"
      }, {
        "reference": "Immunization/794d5c28-d2aa-44d0-9fae-2625b07506d0"
      }, {
        "reference": "Procedure/d4e2ae38-d4e4-417d-82bd-70d59704d7e7"
      }, {
        "reference": "Immunization/81e895d9-f8da-4e61-9268-44fe572a4fb1"
      }, {
        "reference": "Immunization/0e60cca8-08d3-47ed-8489-b52f2c3b256e"
      }, {
        "reference": "Immunization/d61be48b-5291-4d1e-b9df-a1a1e522b02a"
      }, {
        "reference": "Immunization/661f0706-3165-4567-bd1e-7d8c8af06220"
      }, {
        "reference": "Procedure/6b8863eb-77df-4025-be49-226443c9aa98"
      }, {
        "reference": "Procedure/2d276c34-d577-45fa-b9de-e4726c322b9c"
      }, {
        "reference": "Immunization/e2b48530-9445-4c68-aee4-b442af088061"
      }, {
        "reference": "Procedure/30e135b3-3ba8-4299-9579-47809d738983"
      }, {
        "reference": "Immunization/a28e4818-6200-422a-bade-f4494c404138"
      }, {
        "reference": "Procedure/1bde3eee-5162-4f93-a0ca-535128542e04"
      } ]
    },
    "request": {
      "method": "PUT",
      "url": "MeasureReport/dfd8ab37-8030-499b-8ebf-3cd046819cf7"
    }
  } ]
}