{
  "resourceType": "Bundle",
  "id": "612e6ebc02c62a011f2ef6a5",
  "type": "transaction",
  "entry": [ {
    "fullUrl": "https://madie.cms.gov/Patient/25265601-4e27-4fe0-8d35-68ebac8f9894",
    "resource": {
      "resourceType": "Patient",
      "id": "25265601-4e27-4fe0-8d35-68ebac8f9894",
      "meta": {
        "profile": [ "http://hl7.org/fhir/us/qicore/StructureDefinition/qicore-patient" ]
      },
      "text": {
        "status": "generated",
        "div": "<div xmlns=\"http://www.w3.org/1999/xhtml\"><div class=\"hapiHeaderText\">GlycoDayAfterAnesNullMedEndtime <b>NUMERPASS </b></div><table class=\"hapiPropertyTable\"><tbody><tr><td>Identifier</td><td>4a42020f0b8dee0fc88266e960041057</td></tr><tr><td>Date of birth</td><td><span>03 March 1974</span></td></tr></tbody></table></div>"
      },
      "extension": [ {
        "url": "http://hl7.org/fhir/us/core/StructureDefinition/us-core-race",
        "extension": [ {
          "url": "ombCategory",
          "valueCoding": {
            "system": "urn:oid:2.16.840.1.113883.6.238",
            "code": "1002-5",
            "display": "American Indian or Alaska Native",
            "userSelected": true
          }
        }, {
          "url": "text",
          "valueString": "American Indian or Alaska Native"
        } ]
      }, {
        "url": "http://hl7.org/fhir/us/core/StructureDefinition/us-core-ethnicity",
        "extension": [ {
          "url": "ombCategory",
          "valueCoding": {
            "system": "urn:oid:2.16.840.1.113883.6.238",
            "code": "2135-2",
            "display": "Hispanic or Latino",
            "userSelected": true
          }
        }, {
          "url": "text",
          "valueString": "Hispanic or Latino"
        } ]
      } ],
      "identifier": [ {
        "type": {
          "coding": [ {
            "system": "http://terminology.hl7.org/CodeSystem/v2-0203",
            "code": "MR"
          } ]
        },
        "system": "https://bonnie-fhir.healthit.gov/",
        "value": "612e6ebc02c62a011f2ef6a5"
      } ],
      "active": true,
      "name": [ {
        "use": "usual",
        "family": "NUMERPass",
        "given": [ "GlycoDayAfterAnesNullMedEndtime" ]
      } ],
      "gender": "female",
      "birthDate": "1975-03-03"
    },
    "request": {
      "method": "PUT",
      "url": "Patient/25265601-4e27-4fe0-8d35-68ebac8f9894"
    }
  }, {
    "fullUrl": "https://madie.cms.gov/Encounter/d4321966-22fc-476b-9034-8f253823e54c",
    "resource": {
      "resourceType": "Encounter",
      "id": "d4321966-22fc-476b-9034-8f253823e54c",
      "meta": {
        "profile": [ "http://hl7.org/fhir/us/qicore/StructureDefinition/qicore-encounter" ]
      },
      "status": "finished",
      "class": {
        "system": "http://terminology.hl7.org/CodeSystem/v3-ActCode",
        "code": "IMP",
        "display": "inpatient encounter"
      },
      "type": [ {
        "coding": [ {
          "system": "http://snomed.info/sct",
          "code": "8715000"
        } ]
      } ],
      "subject": {
        "reference": "Patient/25265601-4e27-4fe0-8d35-68ebac8f9894"
      },
      "period": {
        "start": "2026-12-04T08:00:00.000+00:00",
        "end": "2026-12-30T08:15:00.000+00:00"
      },
      "length": {
        "value": 26.0,
        "unit": "days"
      },
      "location": [ {
        "location": {
          "reference": "Location/b9caf6ab-8e75-4af8-a538-f234b1e57e7a"
        },
        "period": {
          "start": "2026-12-06T08:00:00.000+00:00",
          "end": "2026-12-12T08:15:00.000+00:00"
        }
      } ]
    },
    "request": {
      "method": "PUT",
      "url": "Encounter/d4321966-22fc-476b-9034-8f253823e54c"
    }
  }, {
    "fullUrl": "https://madie.cms.gov/Coverage/ba942f03-394c-491b-a911-ecf6c7fab149",
    "resource": {
      "resourceType": "Coverage",
      "id": "ba942f03-394c-491b-a911-ecf6c7fab149",
      "status": "active",
      "beneficiary": {
        "reference": "Patient/25265601-4e27-4fe0-8d35-68ebac8f9894"
      },
      "period": {
        "start": "1975-03-03T08:00:00.000+00:00"
      },
      "payor": [ {
        "reference": "Organization/5da46559-5e6b-4383-ba0a-28dcabc89185"
      } ]
    },
    "request": {
      "method": "PUT",
      "url": "Coverage/ba942f03-394c-491b-a911-ecf6c7fab149"
    }
  }, {
    "fullUrl": "https://madie.cms.gov/MedicationAdministration/a9e45785-2d75-4bb7-907e-789aa98d8f86",
    "resource": {
      "resourceType": "MedicationAdministration",
      "id": "a9e45785-2d75-4bb7-907e-789aa98d8f86",
      "meta": {
        "profile": [ "http://hl7.org/fhir/us/qicore/StructureDefinition/qicore-medicationadministration" ]
      },
      "status": "completed",
      "medicationCodeableConcept": {
        "coding": [ {
          "system": "http://www.nlm.nih.gov/research/umls/rxnorm",
          "code": "200349"
        } ]
      },
      "subject": {
        "reference": "Patient/25265601-4e27-4fe0-8d35-68ebac8f9894"
      },
      "effectivePeriod": {
        "start": "2026-12-08T11:30:00.000+00:00"
      }
    },
    "request": {
      "method": "PUT",
      "url": "MedicationAdministration/a9e45785-2d75-4bb7-907e-789aa98d8f86"
    }
  }, {
    "fullUrl": "https://madie.cms.gov/Procedure/2e4eef3b-2791-4c30-b914-c49b8e1435e4",
    "resource": {
      "resourceType": "Procedure",
      "id": "2e4eef3b-2791-4c30-b914-c49b8e1435e4",
      "meta": {
        "profile": [ "http://hl7.org/fhir/us/qicore/StructureDefinition/qicore-procedure" ]
      },
      "extension": [ {
        "url": "http://hl7.org/fhir/us/qicore/StructureDefinition/qicore-recorded",
        "valueDateTime": "2013-12-07T13:35:00.000+00:00"
      } ],
      "status": "completed",
      "code": {
        "coding": [ {
          "system": "http://snomed.info/sct",
          "code": "18946005"
        } ]
      },
      "subject": {
        "reference": "Patient/25265601-4e27-4fe0-8d35-68ebac8f9894"
      },
      "performedPeriod": {
        "start": "2026-12-07T11:00:00.000+00:00",
        "end": "2026-12-07T11:15:00.000+00:00"
      }
    },
    "request": {
      "method": "PUT",
      "url": "Procedure/2e4eef3b-2791-4c30-b914-c49b8e1435e4"
    }
  }, {
    "fullUrl": "https://madie.cms.gov/Location/b9caf6ab-8e75-4af8-a538-f234b1e57e7a",
    "resource": {
      "resourceType": "Location",
      "id": "b9caf6ab-8e75-4af8-a538-f234b1e57e7a",
      "meta": {
        "profile": [ "http://hl7.org/fhir/us/qicore/StructureDefinition/qicore-location" ]
      },
      "identifier": [ {
        "use": "usual",
        "system": "http://exampleoflocation.com",
        "value": "B1-S.F2"
      } ],
      "name": "Medical Surgical East, first floor",
      "type": [ {
        "coding": [ {
          "system": "https://www.cdc.gov/nhsn/cdaportal/terminology/codesystem/hsloc.html",
          "code": "1025-6",
          "display": "Trauma Critical Care",
          "userSelected": true
        } ]
      } ]
    },
    "request": {
      "method": "PUT",
      "url": "Location/b9caf6ab-8e75-4af8-a538-f234b1e57e7a"
    }
  }, {
    "fullUrl": "https://madie.cms.gov/Organization/5da46559-5e6b-4383-ba0a-28dcabc89185",
    "resource": {
      "resourceType": "Organization",
      "id": "5da46559-5e6b-4383-ba0a-28dcabc89185",
      "meta": {
        "profile": [ "http://hl7.org/fhir/us/qicore/StructureDefinition/qicore-organization" ]
      },
      "identifier": [ {
        "use": "temp",
        "system": "urn:oid:2.16.840.1.113883.4.4",
        "value": "21-3259825"
      } ],
      "active": true,
      "type": [ {
        "coding": [ {
          "system": "http://terminology.hl7.org/CodeSystem/organization-type",
          "code": "pay",
          "display": "Payer"
        } ]
      } ],
      "name": "Blue Cross Blue Shield of Texas",
      "telecom": [ {
        "system": "phone",
        "value": "(+1) 972-766-6900"
      } ],
      "address": [ {
        "use": "billing",
        "type": "postal",
        "line": [ "P.O. Box 660044" ],
        "city": "Dallas",
        "state": "TX",
        "postalCode": "75266-0044",
        "country": "USA"
      } ]
    },
    "request": {
      "method": "PUT",
      "url": "Organization/5da46559-5e6b-4383-ba0a-28dcabc89185"
    }
  }, {
    "fullUrl": "https://madie.cms.gov/Practitioner/539ff66f-b23e-4084-bde4-4e9b72bd2108",
    "resource": {
      "resourceType": "Practitioner",
      "id": "539ff66f-b23e-4084-bde4-4e9b72bd2108",
      "identifier": [ {
        "system": "http://hl7.org/fhir/sid/us-npi",
        "value": "123456"
      } ],
      "name": [ {
        "family": "Evil",
        "prefix": [ "Dr" ]
      } ]
    },
    "request": {
      "method": "PUT",
      "url": "Practitioner/539ff66f-b23e-4084-bde4-4e9b72bd2108"
    }
  }, {
    "fullUrl": "https://madie.cms.gov/MeasureReport/8c553334-a698-4b32-b246-a527342618f9",
    "resource": {
      "resourceType": "MeasureReport",
      "id": "8c553334-a698-4b32-b246-a527342618f9",
      "meta": {
        "profile": [ "http://hl7.org/fhir/us/cqfmeasures/StructureDefinition/test-case-cqfm" ]
      },
      "contained": [ {
        "resourceType": "Parameters",
        "id": "ba23e51e-3b88-4847-9a49-578a7412650b-parameters",
        "parameter": [ {
          "name": "subject",
          "valueString": "25265601-4e27-4fe0-8d35-68ebac8f9894"
        } ]
      } ],
      "extension": [ {
        "url": "http://hl7.org/fhir/StructureDefinition/cqf-inputParameters",
        "valueReference": {
          "reference": "#ba23e51e-3b88-4847-9a49-578a7412650b-parameters"
        }
      }, {
        "url": "http://hl7.org/fhir/us/cqfmeasures/StructureDefinition/cqfm-testCaseDescription",
        "valueMarkdown": "Glycoprotein IIb/IIIa Inhibitors administered day after neuraxial anesthesia\n"
      } ],
      "modifierExtension": [ {
        "url": "http://hl7.org/fhir/us/cqfmeasures/StructureDefinition/cqfm-isTestCase",
        "valueBoolean": true
      } ],
      "status": "complete",
      "type": "individual",
      "measure": "https://madie.cms.gov/Measure/CMS190FHIRVTEProphylaxisICU",
      "period": {
        "start": "2026-01-01",
        "end": "2026-12-31"
      },
      "group": [ {
        "id": "Group_1",
        "population": [ {
          "id": "InitialPopulation_1",
          "code": {
            "coding": [ {
              "system": "http://terminology.hl7.org/CodeSystem/measure-population",
              "code": "initial-population",
              "display": "Initial Population"
            } ]
          },
          "count": 1
        }, {
          "id": "Denominator_1",
          "code": {
            "coding": [ {
              "system": "http://terminology.hl7.org/CodeSystem/measure-population",
              "code": "denominator",
              "display": "Denominator"
            } ]
          },
          "count": 1
        }, {
          "id": "DenominatorExclusion_1",
          "code": {
            "coding": [ {
              "system": "http://terminology.hl7.org/CodeSystem/measure-population",
              "code": "denominator-exclusion",
              "display": "Denominator Exclusion"
            } ]
          },
          "count": 0
        }, {
          "id": "Numerator_1",
          "code": {
            "coding": [ {
              "system": "http://terminology.hl7.org/CodeSystem/measure-population",
              "code": "numerator",
              "display": "Numerator"
            } ]
          },
          "count": 1
        }, {
          "id": "DenominatorException_1",
          "code": {
            "coding": [ {
              "system": "http://terminology.hl7.org/CodeSystem/measure-population",
              "code": "denominator-exception",
              "display": "Denominator Exception"
            } ]
          },
          "count": 0
        } ],
        "measureScore": {
          "value": 0.0
        }
      } ],
      "evaluatedResource": [ {
        "reference": "Patient/25265601-4e27-4fe0-8d35-68ebac8f9894"
      }, {
        "reference": "Encounter/d4321966-22fc-476b-9034-8f253823e54c"
      }, {
        "reference": "Coverage/ba942f03-394c-491b-a911-ecf6c7fab149"
      }, {
        "reference": "MedicationAdministration/a9e45785-2d75-4bb7-907e-789aa98d8f86"
      }, {
        "reference": "Procedure/2e4eef3b-2791-4c30-b914-c49b8e1435e4"
      }, {
        "reference": "Location/b9caf6ab-8e75-4af8-a538-f234b1e57e7a"
      }, {
        "reference": "Organization/5da46559-5e6b-4383-ba0a-28dcabc89185"
      }, {
        "reference": "Practitioner/539ff66f-b23e-4084-bde4-4e9b72bd2108"
      } ]
    },
    "request": {
      "method": "PUT",
      "url": "MeasureReport/8c553334-a698-4b32-b246-a527342618f9"
    }
  } ]
}