{
  "resourceType": "Bundle",
  "id": "NUMER1and3PASS-NifedipineMedsOrderedDiffDays",
  "type": "transaction",
  "entry": [ {
    "fullUrl": "https://madie.cms.gov/Patient/a584af54-f1b9-4abc-b90b-1a2fa3b2016e",
    "resource": {
      "resourceType": "Patient",
      "id": "a584af54-f1b9-4abc-b90b-1a2fa3b2016e",
      "meta": {
        "profile": [ "http://hl7.org/fhir/us/qicore/StructureDefinition/qicore-patient" ]
      },
      "extension": [ {
        "url": "http://hl7.org/fhir/us/core/StructureDefinition/us-core-race",
        "extension": [ {
          "url": "ombCategory",
          "valueCoding": {
            "system": "urn:oid:2.16.840.1.113883.6.238",
            "code": "2028-9",
            "display": "Asian",
            "userSelected": true
          }
        }, {
          "url": "text",
          "valueString": "Asian"
        } ]
      }, {
        "url": "http://hl7.org/fhir/us/core/StructureDefinition/us-core-ethnicity",
        "extension": [ {
          "url": "ombCategory",
          "valueCoding": {
            "system": "urn:oid:2.16.840.1.113883.6.238",
            "code": "2135-2",
            "display": "Hispanic or Latino",
            "userSelected": true
          }
        }, {
          "url": "text",
          "valueString": "Hispanic or Latino"
        } ]
      } ],
      "identifier": [ {
        "type": {
          "coding": [ {
            "system": "http://terminology.hl7.org/CodeSystem/v2-0203",
            "code": "MR"
          } ]
        },
        "system": "http://hospital.smarthealthit.org",
        "value": "999999995"
      } ],
      "name": [ {
        "family": "Bertha",
        "given": [ "Betty" ]
      } ],
      "gender": "female",
      "birthDate": "1961-01-01"
    },
    "request": {
      "method": "PUT",
      "url": "Patient/a584af54-f1b9-4abc-b90b-1a2fa3b2016e"
    }
  }, {
    "fullUrl": "https://madie.cms.gov/Encounter/7d853b5a-59b2-493d-add9-89aa3e2f4ef5",
    "resource": {
      "resourceType": "Encounter",
      "id": "7d853b5a-59b2-493d-add9-89aa3e2f4ef5",
      "meta": {
        "profile": [ "http://hl7.org/fhir/us/qicore/StructureDefinition/qicore-encounter" ]
      },
      "status": "finished",
      "class": {
        "system": "http://terminology.hl7.org/CodeSystem/v3-ActCode",
        "code": "AMB",
        "display": "ambulatory"
      },
      "type": [ {
        "coding": [ {
          "system": "http://snomed.info/sct",
          "code": "185317003",
          "display": "Telephone encounter (procedure)"
        } ]
      } ],
      "subject": {
        "reference": "Patient/a584af54-f1b9-4abc-b90b-1a2fa3b2016e"
      },
      "period": {
        "start": "2026-01-01T00:00:00.000+00:00",
        "end": "2026-01-01T01:15:00.000+00:00"
      }
    },
    "request": {
      "method": "PUT",
      "url": "Encounter/7d853b5a-59b2-493d-add9-89aa3e2f4ef5"
    }
  }, {
    "fullUrl": "https://madie.cms.gov/MedicationRequest/aa9bdd97-c49d-4b02-a244-4cf31dabaaea",
    "resource": {
      "resourceType": "MedicationRequest",
      "id": "aa9bdd97-c49d-4b02-a244-4cf31dabaaea",
      "meta": {
        "profile": [ "http://hl7.org/fhir/us/qicore/StructureDefinition/qicore-medicationrequest" ]
      },
      "status": "active",
      "intent": "order",
      "category": [ {
        "coding": [ {
          "system": "http://terminology.hl7.org/CodeSystem/medicationrequest-category",
          "code": "discharge",
          "display": "Discharge"
        } ]
      } ],
      "medicationCodeableConcept": {
        "coding": [ {
          "system": "http://www.nlm.nih.gov/research/umls/rxnorm",
          "code": "198032",
          "display": "nifedipine 10 MG Oral Capsule",
          "userSelected": true
        } ]
      },
      "subject": {
        "reference": "Patient/a584af54-f1b9-4abc-b90b-1a2fa3b2016e"
      },
      "authoredOn": "2026-01-01T00:00:00.000+00:00",
      "requester": {
        "reference": "Practitioner/example"
      }
    },
    "request": {
      "method": "PUT",
      "url": "MedicationRequest/aa9bdd97-c49d-4b02-a244-4cf31dabaaea"
    }
  }, {
    "fullUrl": "https://madie.cms.gov/MedicationRequest/b2ad5364-15e1-4c36-a751-09d933e2b2e8",
    "resource": {
      "resourceType": "MedicationRequest",
      "id": "b2ad5364-15e1-4c36-a751-09d933e2b2e8",
      "meta": {
        "profile": [ "http://hl7.org/fhir/us/qicore/StructureDefinition/qicore-medicationrequest" ]
      },
      "status": "active",
      "intent": "order",
      "category": [ {
        "coding": [ {
          "system": "http://terminology.hl7.org/CodeSystem/medicationrequest-category",
          "code": "discharge",
          "display": "Discharge"
        } ]
      } ],
      "medicationCodeableConcept": {
        "coding": [ {
          "system": "http://www.nlm.nih.gov/research/umls/rxnorm",
          "code": "198032",
          "display": "nifedipine 10 MG Oral Capsule",
          "userSelected": true
        } ]
      },
      "subject": {
        "reference": "Patient/a584af54-f1b9-4abc-b90b-1a2fa3b2016e"
      },
      "authoredOn": "2026-01-02T00:00:00.000+00:00",
      "requester": {
        "reference": "Practitioner/example"
      }
    },
    "request": {
      "method": "PUT",
      "url": "MedicationRequest/b2ad5364-15e1-4c36-a751-09d933e2b2e8"
    }
  }, {
    "fullUrl": "https://madie.cms.gov/MeasureReport/13a90135-8f47-4594-9963-d92d9448031a",
    "resource": {
      "resourceType": "MeasureReport",
      "id": "13a90135-8f47-4594-9963-d92d9448031a",
      "meta": {
        "profile": [ "http://hl7.org/fhir/us/cqfmeasures/StructureDefinition/test-case-cqfm" ]
      },
      "contained": [ {
        "resourceType": "Parameters",
        "id": "624bd370-730b-4d19-9d53-b42aff48b374-parameters",
        "parameter": [ {
          "name": "subject",
          "valueString": "a584af54-f1b9-4abc-b90b-1a2fa3b2016e"
        } ]
      } ],
      "extension": [ {
        "url": "http://hl7.org/fhir/StructureDefinition/cqf-inputParameters",
        "valueReference": {
          "reference": "#624bd370-730b-4d19-9d53-b42aff48b374-parameters"
        }
      }, {
        "url": "http://hl7.org/fhir/us/cqfmeasures/StructureDefinition/cqfm-testCaseDescription",
        "valueMarkdown": "Nifedipine meds ordered on different days"
      } ],
      "modifierExtension": [ {
        "url": "http://hl7.org/fhir/us/cqfmeasures/StructureDefinition/cqfm-isTestCase",
        "valueBoolean": true
      } ],
      "status": "complete",
      "type": "individual",
      "measure": "https://madie.cms.gov/Measure/CMS156FHIRHighRiskMedsElderly",
      "period": {
        "start": "2026-01-01",
        "end": "2026-12-31"
      },
      "group": [ {
        "id": "Group_1",
        "population": [ {
          "id": "InitialPopulation_1",
          "code": {
            "coding": [ {
              "system": "http://terminology.hl7.org/CodeSystem/measure-population",
              "code": "initial-population",
              "display": "Initial Population"
            } ]
          },
          "count": 1
        }, {
          "id": "Denominator_1",
          "code": {
            "coding": [ {
              "system": "http://terminology.hl7.org/CodeSystem/measure-population",
              "code": "denominator",
              "display": "Denominator"
            } ]
          },
          "count": 1
        }, {
          "id": "DenominatorExclusion_1",
          "code": {
            "coding": [ {
              "system": "http://terminology.hl7.org/CodeSystem/measure-population",
              "code": "denominator-exclusion",
              "display": "Denominator Exclusion"
            } ]
          },
          "count": 0
        }, {
          "id": "Numerator_1",
          "code": {
            "coding": [ {
              "system": "http://terminology.hl7.org/CodeSystem/measure-population",
              "code": "numerator",
              "display": "Numerator"
            } ]
          },
          "count": 1
        } ],
        "measureScore": {
          "value": 1.0
        }
      }, {
        "id": "Group_2",
        "population": [ {
          "id": "InitialPopulation_2",
          "code": {
            "coding": [ {
              "system": "http://terminology.hl7.org/CodeSystem/measure-population",
              "code": "initial-population",
              "display": "Initial Population"
            } ]
          },
          "count": 1
        }, {
          "id": "Denominator_2",
          "code": {
            "coding": [ {
              "system": "http://terminology.hl7.org/CodeSystem/measure-population",
              "code": "denominator",
              "display": "Denominator"
            } ]
          },
          "count": 1
        }, {
          "id": "DenominatorExclusion_2",
          "code": {
            "coding": [ {
              "system": "http://terminology.hl7.org/CodeSystem/measure-population",
              "code": "denominator-exclusion",
              "display": "Denominator Exclusion"
            } ]
          },
          "count": 0
        }, {
          "id": "Numerator_2",
          "code": {
            "coding": [ {
              "system": "http://terminology.hl7.org/CodeSystem/measure-population",
              "code": "numerator",
              "display": "Numerator"
            } ]
          },
          "count": 0
        } ],
        "measureScore": {
          "value": 1.0
        }
      }, {
        "id": "Group_3",
        "population": [ {
          "id": "InitialPopulation_3",
          "code": {
            "coding": [ {
              "system": "http://terminology.hl7.org/CodeSystem/measure-population",
              "code": "initial-population",
              "display": "Initial Population"
            } ]
          },
          "count": 1
        }, {
          "id": "Denominator_3",
          "code": {
            "coding": [ {
              "system": "http://terminology.hl7.org/CodeSystem/measure-population",
              "code": "denominator",
              "display": "Denominator"
            } ]
          },
          "count": 1
        }, {
          "id": "DenominatorExclusion_3",
          "code": {
            "coding": [ {
              "system": "http://terminology.hl7.org/CodeSystem/measure-population",
              "code": "denominator-exclusion",
              "display": "Denominator Exclusion"
            } ]
          },
          "count": 0
        }, {
          "id": "Numerator_3",
          "code": {
            "coding": [ {
              "system": "http://terminology.hl7.org/CodeSystem/measure-population",
              "code": "numerator",
              "display": "Numerator"
            } ]
          },
          "count": 1
        } ],
        "measureScore": {
          "value": 1.0
        }
      } ],
      "evaluatedResource": [ {
        "reference": "Patient/a584af54-f1b9-4abc-b90b-1a2fa3b2016e"
      }, {
        "reference": "Encounter/7d853b5a-59b2-493d-add9-89aa3e2f4ef5"
      }, {
        "reference": "MedicationRequest/aa9bdd97-c49d-4b02-a244-4cf31dabaaea"
      }, {
        "reference": "MedicationRequest/b2ad5364-15e1-4c36-a751-09d933e2b2e8"
      } ]
    },
    "request": {
      "method": "PUT",
      "url": "MeasureReport/13a90135-8f47-4594-9963-d92d9448031a"
    }
  } ]
}