{
  "resourceType": "Bundle",
  "id": "DENEXFail-AdvIllnessDxBefore2Yrs",
  "type": "transaction",
  "entry": [ {
    "fullUrl": "https://madie.cms.gov/Patient/598f05e7-83b4-4609-9795-e9ac75f57f36",
    "resource": {
      "resourceType": "Patient",
      "id": "598f05e7-83b4-4609-9795-e9ac75f57f36",
      "meta": {
        "profile": [ "http://hl7.org/fhir/us/qicore/StructureDefinition/qicore-patient" ]
      },
      "extension": [ {
        "url": "http://hl7.org/fhir/us/core/StructureDefinition/us-core-race",
        "extension": [ {
          "url": "ombCategory",
          "valueCoding": {
            "system": "urn:oid:2.16.840.1.113883.6.238",
            "code": "2028-9",
            "display": "Asian"
          }
        }, {
          "url": "text",
          "valueString": "Asian"
        } ]
      }, {
        "url": "http://hl7.org/fhir/us/core/StructureDefinition/us-core-ethnicity",
        "extension": [ {
          "url": "ombCategory",
          "valueCoding": {
            "system": "urn:oid:2.16.840.1.113883.6.238",
            "code": "2135-2",
            "display": "Hispanic or Latino"
          }
        }, {
          "url": "text",
          "valueString": "Hispanic or Latino"
        } ]
      } ],
      "identifier": [ {
        "system": "http://hospital.smarthealthit.org",
        "value": "999999995"
      } ],
      "name": [ {
        "family": "DENEXFail",
        "given": [ "AdvIllnessDxBefore2Yrs" ]
      } ],
      "gender": "female",
      "birthDate": "1959-12-31"
    },
    "request": {
      "method": "PUT",
      "url": "Patient/598f05e7-83b4-4609-9795-e9ac75f57f36"
    }
  }, {
    "fullUrl": "https://madie.cms.gov/Encounter/67e9d6b5-6288-47d1-a5a5-c87706ac868a",
    "resource": {
      "resourceType": "Encounter",
      "id": "67e9d6b5-6288-47d1-a5a5-c87706ac868a",
      "meta": {
        "profile": [ "http://hl7.org/fhir/us/qicore/StructureDefinition/qicore-encounter" ]
      },
      "status": "finished",
      "class": {
        "system": "http://terminology.hl7.org/CodeSystem/v3-ActCode",
        "code": "AMB",
        "display": "ambulatory"
      },
      "type": [ {
        "coding": [ {
          "system": "http://snomed.info/sct",
          "code": "3391000175108",
          "display": "Office visit for pediatric care and assessment (procedure)"
        } ]
      } ],
      "subject": {
        "reference": "Patient/598f05e7-83b4-4609-9795-e9ac75f57f36"
      },
      "period": {
        "start": "2026-01-01T00:00:00.000+00:00",
        "end": "2026-01-01T01:00:00.000+00:00"
      }
    },
    "request": {
      "method": "PUT",
      "url": "Encounter/67e9d6b5-6288-47d1-a5a5-c87706ac868a"
    }
  }, {
    "fullUrl": "https://madie.cms.gov/Condition/72d8fafa-2074-4f4f-858e-d2e2be2e88ad",
    "resource": {
      "resourceType": "Condition",
      "id": "72d8fafa-2074-4f4f-858e-d2e2be2e88ad",
      "meta": {
        "profile": [ "http://hl7.org/fhir/us/qicore/StructureDefinition/qicore-condition-problems-health-concerns" ]
      },
      "clinicalStatus": {
        "coding": [ {
          "system": "http://terminology.hl7.org/CodeSystem/condition-clinical",
          "code": "active"
        } ]
      },
      "category": [ {
        "coding": [ {
          "system": "http://terminology.hl7.org/CodeSystem/condition-category",
          "code": "problem-list-item",
          "display": "Problem List Item"
        } ]
      } ],
      "code": {
        "coding": [ {
          "system": "http://snomed.info/sct",
          "code": "371125006",
          "display": "Labile essential hypertension (disorder)"
        } ]
      },
      "subject": {
        "reference": "Patient/598f05e7-83b4-4609-9795-e9ac75f57f36"
      },
      "onsetDateTime": "2026-06-30T23:59:59.000+00:00"
    },
    "request": {
      "method": "PUT",
      "url": "Condition/72d8fafa-2074-4f4f-858e-d2e2be2e88ad"
    }
  }, {
    "fullUrl": "https://madie.cms.gov/Condition/ddb2b55f-b0f9-49da-9334-5be4e4971104",
    "resource": {
      "resourceType": "Condition",
      "id": "ddb2b55f-b0f9-49da-9334-5be4e4971104",
      "meta": {
        "profile": [ "http://hl7.org/fhir/us/qicore/StructureDefinition/qicore-condition-problems-health-concerns" ]
      },
      "clinicalStatus": {
        "coding": [ {
          "system": "http://terminology.hl7.org/CodeSystem/condition-clinical",
          "code": "active"
        } ]
      },
      "category": [ {
        "coding": [ {
          "system": "http://terminology.hl7.org/CodeSystem/condition-category",
          "code": "problem-list-item",
          "display": "Problem List Item"
        } ]
      } ],
      "code": {
        "coding": [ {
          "system": "http://snomed.info/sct",
          "code": "101421000119107",
          "display": "Dementia due to Parkinson's disease (disorder)"
        } ]
      },
      "subject": {
        "reference": "Patient/598f05e7-83b4-4609-9795-e9ac75f57f36"
      },
      "onsetDateTime": "2024-12-31T23:59:59.000+00:00"
    },
    "request": {
      "method": "PUT",
      "url": "Condition/ddb2b55f-b0f9-49da-9334-5be4e4971104"
    }
  }, {
    "fullUrl": "https://madie.cms.gov/Encounter/ef4d5f79-7ea2-4ade-a7d8-c6fce57632af",
    "resource": {
      "resourceType": "Encounter",
      "id": "ef4d5f79-7ea2-4ade-a7d8-c6fce57632af",
      "meta": {
        "profile": [ "http://hl7.org/fhir/us/qicore/StructureDefinition/qicore-encounter" ]
      },
      "status": "finished",
      "class": {
        "system": "http://terminology.hl7.org/CodeSystem/v3-ActCode",
        "code": "AMB",
        "display": "ambulatory"
      },
      "type": [ {
        "coding": [ {
          "system": "http://snomed.info/sct",
          "code": "183450002",
          "display": "Admission to burn unit (procedure)"
        } ]
      } ],
      "subject": {
        "reference": "Patient/598f05e7-83b4-4609-9795-e9ac75f57f36"
      },
      "period": {
        "start": "2026-05-01T00:00:00.000+00:00",
        "end": "2026-05-01T01:00:00.000+00:00"
      },
      "diagnosis": [ {
        "condition": {
          "reference": "Condition/ddb2b55f-b0f9-49da-9334-5be4e4971104"
        }
      } ]
    },
    "request": {
      "method": "PUT",
      "url": "Encounter/ef4d5f79-7ea2-4ade-a7d8-c6fce57632af"
    }
  }, {
    "fullUrl": "https://madie.cms.gov/DeviceRequest/e7c86ee8-0293-4e19-aa2d-9ece2cd46b17",
    "resource": {
      "resourceType": "DeviceRequest",
      "id": "e7c86ee8-0293-4e19-aa2d-9ece2cd46b17",
      "meta": {
        "profile": [ "http://hl7.org/fhir/us/qicore/StructureDefinition/qicore-devicerequest" ]
      },
      "modifierExtension": [ {
        "url": "http://hl7.org/fhir/5.0/StructureDefinition/extension-DeviceRequest.doNotPerform",
        "valueBoolean": false
      } ],
      "status": "completed",
      "intent": "order",
      "codeCodeableConcept": {
        "coding": [ {
          "system": "http://snomed.info/sct",
          "code": "183240000",
          "display": "Self-propelled wheelchair (physical object)"
        } ]
      },
      "subject": {
        "reference": "Patient/598f05e7-83b4-4609-9795-e9ac75f57f36"
      },
      "authoredOn": "2026-11-01T23:59:00.000+00:00"
    },
    "request": {
      "method": "PUT",
      "url": "DeviceRequest/e7c86ee8-0293-4e19-aa2d-9ece2cd46b17"
    }
  }, {
    "fullUrl": "https://madie.cms.gov/MeasureReport/d0e6d92d-0c97-4597-a0e5-79d962308e3f",
    "resource": {
      "resourceType": "MeasureReport",
      "id": "d0e6d92d-0c97-4597-a0e5-79d962308e3f",
      "meta": {
        "profile": [ "http://hl7.org/fhir/us/cqfmeasures/StructureDefinition/test-case-cqfm" ]
      },
      "contained": [ {
        "resourceType": "Parameters",
        "id": "a9993e2c-348b-4c4a-949e-13aa99d14ce2-parameters",
        "parameter": [ {
          "name": "subject",
          "valueString": "598f05e7-83b4-4609-9795-e9ac75f57f36"
        } ]
      } ],
      "extension": [ {
        "url": "http://hl7.org/fhir/StructureDefinition/cqf-inputParameters",
        "valueReference": {
          "reference": "#a9993e2c-348b-4c4a-949e-13aa99d14ce2-parameters"
        }
      }, {
        "url": "http://hl7.org/fhir/us/cqfmeasures/StructureDefinition/cqfm-testCaseDescription",
        "valueMarkdown": "Advanced illness diagnosis before 2 years"
      } ],
      "modifierExtension": [ {
        "url": "http://hl7.org/fhir/us/cqfmeasures/StructureDefinition/cqfm-isTestCase",
        "valueBoolean": true
      } ],
      "status": "complete",
      "type": "individual",
      "measure": "https://madie.cms.gov/Measure/CMS165FHIRControllingHighBP",
      "period": {
        "start": "2026-01-01",
        "end": "2026-12-31"
      },
      "group": [ {
        "id": "Group_1",
        "population": [ {
          "id": "InitialPopulation_1",
          "code": {
            "coding": [ {
              "system": "http://terminology.hl7.org/CodeSystem/measure-population",
              "code": "initial-population",
              "display": "Initial Population"
            } ]
          },
          "count": 1
        }, {
          "id": "Denominator_1",
          "code": {
            "coding": [ {
              "system": "http://terminology.hl7.org/CodeSystem/measure-population",
              "code": "denominator",
              "display": "Denominator"
            } ]
          },
          "count": 1
        }, {
          "id": "DenominatorExclusion_1",
          "code": {
            "coding": [ {
              "system": "http://terminology.hl7.org/CodeSystem/measure-population",
              "code": "denominator-exclusion",
              "display": "Denominator Exclusion"
            } ]
          },
          "count": 0
        }, {
          "id": "Numerator_1",
          "code": {
            "coding": [ {
              "system": "http://terminology.hl7.org/CodeSystem/measure-population",
              "code": "numerator",
              "display": "Numerator"
            } ]
          },
          "count": 0
        } ],
        "measureScore": {
          "value": 1.0
        }
      } ],
      "evaluatedResource": [ {
        "reference": "Patient/598f05e7-83b4-4609-9795-e9ac75f57f36"
      }, {
        "reference": "Encounter/67e9d6b5-6288-47d1-a5a5-c87706ac868a"
      }, {
        "reference": "Condition/72d8fafa-2074-4f4f-858e-d2e2be2e88ad"
      }, {
        "reference": "Condition/ddb2b55f-b0f9-49da-9334-5be4e4971104"
      }, {
        "reference": "Encounter/ef4d5f79-7ea2-4ade-a7d8-c6fce57632af"
      }, {
        "reference": "DeviceRequest/e7c86ee8-0293-4e19-aa2d-9ece2cd46b17"
      } ]
    },
    "request": {
      "method": "PUT",
      "url": "MeasureReport/d0e6d92d-0c97-4597-a0e5-79d962308e3f"
    }
  } ]
}