{
  "resourceType": "Bundle",
  "id": "64946f9cd09ece2c2e9bf952",
  "type": "collection",
  "entry": [ {
    "fullUrl": "https://madie.cms.gov/Patient/ca5f1ee4-ff35-4324-96b5-1488a696dd04",
    "resource": {
      "resourceType": "Patient",
      "id": "ca5f1ee4-ff35-4324-96b5-1488a696dd04",
      "meta": {
        "profile": [ "http://hl7.org/fhir/us/qicore/StructureDefinition/qicore-patient" ]
      },
      "extension": [ {
        "url": "http://hl7.org/fhir/us/core/StructureDefinition/us-core-race",
        "extension": [ {
          "url": "ombCategory",
          "valueCoding": {
            "system": "urn:oid:2.16.840.1.113883.6.238",
            "code": "2028-9",
            "display": "Asian",
            "userSelected": true
          }
        }, {
          "url": "text",
          "valueString": "Asian"
        } ]
      }, {
        "url": "http://hl7.org/fhir/us/core/StructureDefinition/us-core-ethnicity",
        "extension": [ {
          "url": "ombCategory",
          "valueCoding": {
            "system": "urn:oid:2.16.840.1.113883.6.238",
            "code": "2135-2",
            "display": "Hispanic or Latino",
            "userSelected": true
          }
        }, {
          "url": "text",
          "valueString": "Hispanic or Latino"
        } ]
      } ],
      "identifier": [ {
        "type": {
          "coding": [ {
            "system": "http://terminology.hl7.org/CodeSystem/v2-0203",
            "code": "MR"
          } ]
        },
        "system": "https://bonnie-fhir.healthit.gov/",
        "value": "64946f9cd09ece2c2e9bf952"
      } ],
      "name": [ {
        "family": "21IPFail",
        "given": [ "OnlyEncMoreThan240DaysIntoMP" ]
      } ],
      "gender": "female",
      "birthDate": "2007-02-08"
    }
  }, {
    "fullUrl": "https://madie.cms.gov/Condition/a02d4b72-0882-41e9-a60b-132f99b2966c",
    "resource": {
      "resourceType": "Condition",
      "id": "a02d4b72-0882-41e9-a60b-132f99b2966c",
      "meta": {
        "profile": [ "http://hl7.org/fhir/us/qicore/StructureDefinition/qicore-condition-problems-health-concerns" ]
      },
      "clinicalStatus": {
        "coding": [ {
          "system": "http://terminology.hl7.org/CodeSystem/condition-clinical",
          "code": "active",
          "display": "active",
          "userSelected": true
        } ]
      },
      "category": [ {
        "coding": [ {
          "system": "http://terminology.hl7.org/CodeSystem/condition-category",
          "code": "problem-list-item",
          "display": "Problem List Item"
        } ]
      } ],
      "code": {
        "coding": [ {
          "system": "http://hl7.org/fhir/sid/icd-9-cm",
          "version": "2013",
          "code": "042",
          "display": "Human immunodeficiency virus [HIV] disease",
          "userSelected": true
        }, {
          "system": "http://snomed.info/sct",
          "version": "http://snomed.info/sct/731000124108/version/20250301",
          "code": "165816005",
          "userSelected": true
        } ]
      },
      "subject": {
        "reference": "Patient/ca5f1ee4-ff35-4324-96b5-1488a696dd04"
      },
      "onsetDateTime": "2009-01-20T08:00:00.000+00:00",
      "recordedDate": "2009-01-20T08:00:00.000+00:00"
    }
  }, {
    "fullUrl": "https://madie.cms.gov/Encounter/52278d5e-e11e-466d-b23b-ecd7c4634400",
    "resource": {
      "resourceType": "Encounter",
      "id": "52278d5e-e11e-466d-b23b-ecd7c4634400",
      "meta": {
        "profile": [ "http://hl7.org/fhir/us/qicore/StructureDefinition/qicore-encounter" ]
      },
      "status": "finished",
      "class": {
        "system": "http://terminology.hl7.org/CodeSystem/v3-ActCode",
        "code": "AMB",
        "display": "ambulatory"
      },
      "type": [ {
        "coding": [ {
          "system": "http://snomed.info/sct",
          "version": "2022-09",
          "code": "12843005",
          "display": "Subsequent hospital visit by physician (procedure)",
          "userSelected": true
        } ]
      } ],
      "subject": {
        "reference": "Patient/ca5f1ee4-ff35-4324-96b5-1488a696dd04"
      },
      "period": {
        "start": "2026-12-22T08:00:00.000+00:00",
        "end": "2026-12-22T08:15:00.000+00:00"
      }
    }
  }, {
    "fullUrl": "https://madie.cms.gov/Coverage/fe3ab837-3103-4b22-87f3-25c6524e6932",
    "resource": {
      "resourceType": "Coverage",
      "id": "fe3ab837-3103-4b22-87f3-25c6524e6932",
      "meta": {
        "profile": [ "http://hl7.org/fhir/us/qicore/StructureDefinition/qicore-coverage" ]
      },
      "status": "active",
      "subscriberId": "123456",
      "beneficiary": {
        "reference": "Patient/ca5f1ee4-ff35-4324-96b5-1488a696dd04"
      },
      "relationship": {
        "coding": [ {
          "system": "http://terminology.hl7.org/CodeSystem/subscriber-relationship",
          "code": "self",
          "display": "Self"
        } ]
      },
      "payor": [ {
        "reference": "Organization/15a1023b-b0d1-422f-9d8a-9bef04c818b5"
      } ]
    }
  }, {
    "fullUrl": "https://madie.cms.gov/Organization/15a1023b-b0d1-422f-9d8a-9bef04c818b5",
    "resource": {
      "resourceType": "Organization",
      "id": "15a1023b-b0d1-422f-9d8a-9bef04c818b5",
      "meta": {
        "profile": [ "http://hl7.org/fhir/us/qicore/StructureDefinition/qicore-organization" ]
      },
      "identifier": [ {
        "use": "temp",
        "system": "urn:oid:2.16.840.1.113883.4.4",
        "value": "21-3259825"
      } ],
      "active": true,
      "type": [ {
        "coding": [ {
          "system": "http://terminology.hl7.org/CodeSystem/organization-type",
          "code": "pay",
          "display": "Payer"
        } ]
      } ],
      "name": "Blue Cross Blue Shield of Texas",
      "telecom": [ {
        "system": "phone",
        "value": "(+1) 972-766-6900"
      } ],
      "address": [ {
        "use": "billing",
        "type": "postal",
        "line": [ "P.O. Box 660044" ],
        "city": "Dallas",
        "state": "TX",
        "postalCode": "75266-0044",
        "country": "USA"
      } ]
    }
  }, {
    "fullUrl": "https://madie.cms.gov/Practitioner/2a672417-19a7-4135-883d-cf75a9ce23cd",
    "resource": {
      "resourceType": "Practitioner",
      "id": "2a672417-19a7-4135-883d-cf75a9ce23cd",
      "meta": {
        "profile": [ "http://hl7.org/fhir/us/qicore/StructureDefinition/qicore-practitioner" ]
      },
      "identifier": [ {
        "system": "http://hl7.org/fhir/sid/us-npi",
        "value": "1689411712"
      } ],
      "name": [ {
        "family": "Evil",
        "prefix": [ "Dr" ]
      } ]
    }
  }, {
    "fullUrl": "https://madie.cms.gov/MeasureReport/01f5404b-4e1d-4f2f-a293-24e84d22a076",
    "resource": {
      "resourceType": "MeasureReport",
      "id": "01f5404b-4e1d-4f2f-a293-24e84d22a076",
      "meta": {
        "profile": [ "http://hl7.org/fhir/us/cqfmeasures/StructureDefinition/test-case-cqfm" ]
      },
      "contained": [ {
        "resourceType": "Parameters",
        "id": "898b853d-d0d7-4a5f-8fab-bc9c2cb04f46-parameters",
        "parameter": [ {
          "name": "subject",
          "valueString": "ca5f1ee4-ff35-4324-96b5-1488a696dd04"
        } ]
      } ],
      "extension": [ {
        "url": "http://hl7.org/fhir/StructureDefinition/cqf-inputParameters",
        "valueReference": {
          "reference": "#898b853d-d0d7-4a5f-8fab-bc9c2cb04f46-parameters"
        }
      }, {
        "url": "http://hl7.org/fhir/us/cqfmeasures/StructureDefinition/cqfm-testCaseDescription",
        "valueMarkdown": "Patient has one encounter occurring more than 240 days after the start of MP."
      } ],
      "modifierExtension": [ {
        "url": "http://hl7.org/fhir/us/cqfmeasures/StructureDefinition/cqfm-isTestCase",
        "valueBoolean": true
      } ],
      "status": "complete",
      "type": "individual",
      "measure": "https://madie.cms.gov/Measure/CMS1157FHIRHIVRetention",
      "period": {
        "start": "2026-01-01",
        "end": "2026-12-31"
      },
      "group": [ {
        "id": "Group_1",
        "population": [ {
          "id": "InitialPopulation_1",
          "code": {
            "coding": [ {
              "system": "http://terminology.hl7.org/CodeSystem/measure-population",
              "code": "initial-population",
              "display": "Initial Population"
            } ]
          },
          "count": 0
        }, {
          "id": "Denominator_1",
          "code": {
            "coding": [ {
              "system": "http://terminology.hl7.org/CodeSystem/measure-population",
              "code": "denominator",
              "display": "Denominator"
            } ]
          },
          "count": 0
        }, {
          "id": "Numerator_1",
          "code": {
            "coding": [ {
              "system": "http://terminology.hl7.org/CodeSystem/measure-population",
              "code": "numerator",
              "display": "Numerator"
            } ]
          },
          "count": 0
        } ],
        "measureScore": {
          "value": 1.0
        }
      } ],
      "evaluatedResource": [ {
        "reference": "Patient/ca5f1ee4-ff35-4324-96b5-1488a696dd04"
      }, {
        "reference": "Condition/a02d4b72-0882-41e9-a60b-132f99b2966c"
      }, {
        "reference": "Encounter/52278d5e-e11e-466d-b23b-ecd7c4634400"
      }, {
        "reference": "Coverage/fe3ab837-3103-4b22-87f3-25c6524e6932"
      }, {
        "reference": "Organization/15a1023b-b0d1-422f-9d8a-9bef04c818b5"
      }, {
        "reference": "Practitioner/2a672417-19a7-4135-883d-cf75a9ce23cd"
      } ]
    }
  } ]
}