{
  "resourceType": "Bundle",
  "id": "60f82c2f98086b570510e29f",
  "type": "transaction",
  "entry": [ {
    "fullUrl": "https://madie.cms.gov/Patient/9a42c820-29ec-464e-b2f5-eb8114985a0c",
    "resource": {
      "resourceType": "Patient",
      "id": "9a42c820-29ec-464e-b2f5-eb8114985a0c",
      "meta": {
        "profile": [ "http://hl7.org/fhir/us/qicore/StructureDefinition/qicore-patient" ]
      },
      "text": {
        "status": "generated",
        "div": "<div xmlns=\"http://www.w3.org/1999/xhtml\"><div class=\"hapiHeaderText\">PharmContraDayAftEncStart_NoEDNoObsBFEnc_DateTime <b>DENEXCEPPASS </b></div><table class=\"hapiPropertyTable\"><tbody><tr><td>Identifier</td><td>20549e17b75f876587bc16f30ff24d8e209663aec0492eb62127bd43e67eb9dc</td></tr><tr><td>Date of birth</td><td><span>26 September 1975</span></td></tr></tbody></table></div>"
      },
      "extension": [ {
        "url": "http://hl7.org/fhir/us/core/StructureDefinition/us-core-race",
        "extension": [ {
          "url": "ombCategory",
          "valueCoding": {
            "system": "urn:oid:2.16.840.1.113883.6.238",
            "code": "2054-5",
            "display": "Black or African American",
            "userSelected": true
          }
        }, {
          "url": "text",
          "valueString": "Black or African American"
        } ]
      }, {
        "url": "http://hl7.org/fhir/us/core/StructureDefinition/us-core-ethnicity",
        "extension": [ {
          "url": "ombCategory",
          "valueCoding": {
            "system": "urn:oid:2.16.840.1.113883.6.238",
            "code": "2186-5",
            "display": "Not Hispanic or Latino",
            "userSelected": true
          }
        }, {
          "url": "text",
          "valueString": "Not Hispanic or Latino"
        } ]
      } ],
      "identifier": [ {
        "type": {
          "coding": [ {
            "system": "http://terminology.hl7.org/CodeSystem/v2-0203",
            "code": "MR"
          } ]
        },
        "system": "https://bonnie-fhir.healthit.gov/",
        "value": "60f82c2f98086b570510e29f"
      } ],
      "active": true,
      "name": [ {
        "use": "usual",
        "family": "DENEXCEPPass",
        "given": [ "PharmContraDayAftEncStart_NoEDNoObsBFEnc_DateTime" ]
      } ],
      "gender": "female",
      "birthDate": "1976-09-26"
    },
    "request": {
      "method": "PUT",
      "url": "Patient/9a42c820-29ec-464e-b2f5-eb8114985a0c"
    }
  }, {
    "fullUrl": "https://madie.cms.gov/Encounter/65b68e29-d6b5-4362-a3a8-5ad13d170677",
    "resource": {
      "resourceType": "Encounter",
      "id": "65b68e29-d6b5-4362-a3a8-5ad13d170677",
      "meta": {
        "profile": [ "http://hl7.org/fhir/us/qicore/StructureDefinition/qicore-encounter" ]
      },
      "status": "finished",
      "class": {
        "system": "http://terminology.hl7.org/CodeSystem/v3-ActCode",
        "code": "IMP",
        "display": "inpatient encounter",
        "userSelected": true
      },
      "type": [ {
        "coding": [ {
          "system": "http://snomed.info/sct",
          "code": "32485007"
        } ]
      } ],
      "subject": {
        "reference": "Patient/9a42c820-29ec-464e-b2f5-eb8114985a0c"
      },
      "period": {
        "start": "2026-10-10T09:00:00.000+00:00",
        "end": "2026-10-12T11:15:00.000+00:00"
      },
      "length": {
        "value": 2,
        "unit": "days"
      },
      "reasonReference": [ {
        "reference": "Condition/b5e9f505-9b56-49d8-9ccd-cb83ecfce99a"
      } ]
    },
    "request": {
      "method": "PUT",
      "url": "Encounter/65b68e29-d6b5-4362-a3a8-5ad13d170677"
    }
  }, {
    "fullUrl": "https://madie.cms.gov/claim/5ca62962b8484628b8de1ec5",
    "resource": {
      "resourceType": "Claim",
      "id": "5ca62962b8484628b8de1ec5",
      "meta": {
        "profile": [ "http://hl7.org/fhir/us/qicore/StructureDefinition/qicore-claim" ]
      },
      "status": "active",
      "type": {
        "coding": [ {
          "system": "http://terminology.hl7.org/CodeSystem/claim-type",
          "code": "institutional"
        } ]
      },
      "use": "claim",
      "patient": {
        "reference": "Patient/d170a0a8-b5ad-4303-b6df-e304dd5f92ad"
      },
      "created": "2026-12-01",
      "provider": {
        "reference": "Practitioner/practitioner-123456"
      },
      "priority": {
        "coding": [ {
          "system": "http://terminology.hl7.org/CodeSystem/processpriority",
          "code": "normal"
        } ]
      },
      "diagnosis": [ {
        "sequence": 1,
        "diagnosisCodeableConcept": {
          "coding": [ {
            "system": "http://hl7.org/fhir/sid/icd-10-cm",
            "code": "I63.00"
          } ]
        },
        "type": [ {
          "coding": [ {
            "system": "http://terminology.hl7.org/CodeSystem/ex-diagnosistype",
            "code": "principal"
          } ]
        } ]
      } ],
      "insurance": [ {
        "sequence": 1,
        "focal": true,
        "coverage": {
          "reference": "Coverage/5fa041661c76ba66d9959367"
        }
      } ],
      "item": [ {
        "sequence": 1,
        "diagnosisSequence": [ 1 ],
        "productOrService": {
          "coding": [ {
            "system": "http://terminology.hl7.org/CodeSystem/ex-USCLS",
            "code": "99555"
          } ]
        },
        "encounter": [ {
          "reference": "Encounter/65b68e29-d6b5-4362-a3a8-5ad13d170677"
        } ]
      } ]
    },
    "request": {
      "method": "PUT",
      "url": "Claim/5ca62962b8484628b8de1ec5"
    }
  }, {
    "fullUrl": "https://madie.cms.gov/MedicationAdministration/ca833de9-85cd-4eb7-b049-1c9a32d492ab",
    "resource": {
      "resourceType": "MedicationAdministration",
      "id": "ca833de9-85cd-4eb7-b049-1c9a32d492ab",
      "meta": {
        "profile": [ "http://hl7.org/fhir/us/qicore/StructureDefinition/qicore-medicationadministration" ]
      },
      "status": "completed",
      "medicationCodeableConcept": {
        "coding": [ {
          "system": "http://www.nlm.nih.gov/research/umls/rxnorm",
          "code": "855812",
          "display": "prasugrel 10 MG Oral Tablet",
          "userSelected": true
        } ]
      },
      "subject": {
        "reference": "Patient/9a42c820-29ec-464e-b2f5-eb8114985a0c"
      },
      "effectiveDateTime": "2026-10-11T11:59:00.000+00:00"
    },
    "request": {
      "method": "PUT",
      "url": "MedicationAdministration/ca833de9-85cd-4eb7-b049-1c9a32d492ab"
    }
  }, {
    "fullUrl": "https://madie.cms.gov/Coverage/e655db7f-2e14-40da-97cf-b57c469dc4e3",
    "resource": {
      "resourceType": "Coverage",
      "id": "e655db7f-2e14-40da-97cf-b57c469dc4e3",
      "status": "active",
      "subscriberId": "523435",
      "beneficiary": {
        "reference": "Patient/9a42c820-29ec-464e-b2f5-eb8114985a0c"
      },
      "relationship": {
        "coding": [ {
          "system": "http://terminology.hl7.org/CodeSystem/subscriber-relationship",
          "code": "self"
        } ]
      },
      "period": {
        "start": "1976-09-26T08:00:00.000+00:00"
      },
      "payor": [ {
        "reference": "Organization/69365b13-f2e2-4080-93ca-af35727b357b"
      } ]
    },
    "request": {
      "method": "PUT",
      "url": "Coverage/e655db7f-2e14-40da-97cf-b57c469dc4e3"
    }
  }, {
    "fullUrl": "https://madie.cms.gov/Condition/b5e9f505-9b56-49d8-9ccd-cb83ecfce99a",
    "resource": {
      "resourceType": "Condition",
      "id": "b5e9f505-9b56-49d8-9ccd-cb83ecfce99a",
      "meta": {
        "profile": [ "http://hl7.org/fhir/us/qicore/StructureDefinition/qicore-condition-encounter-diagnosis" ]
      },
      "clinicalStatus": {
        "coding": [ {
          "system": "http://terminology.hl7.org/CodeSystem/condition-clinical",
          "code": "active"
        } ]
      },
      "verificationStatus": {
        "coding": [ {
          "system": "http://terminology.hl7.org/CodeSystem/condition-ver-status",
          "code": "confirmed"
        } ]
      },
      "category": [ {
        "coding": [ {
          "system": "http://terminology.hl7.org/CodeSystem/condition-category",
          "code": "encounter-diagnosis",
          "display": "Encounter Diagnosis"
        } ]
      } ],
      "code": {
        "coding": [ {
          "system": "http://snomed.info/sct",
          "version": "2020-09",
          "code": "111297002",
          "display": "Nonparalytic stroke (disorder)",
          "userSelected": true
        } ]
      },
      "subject": {
        "reference": "Patient/9a42c820-29ec-464e-b2f5-eb8114985a0c"
      },
      "recordedDate": "2026-08-06T08:00:00.000+00:00"
    },
    "request": {
      "method": "PUT",
      "url": "Condition/b5e9f505-9b56-49d8-9ccd-cb83ecfce99a"
    }
  }, {
    "fullUrl": "https://madie.cms.gov/Organization/69365b13-f2e2-4080-93ca-af35727b357b",
    "resource": {
      "resourceType": "Organization",
      "id": "69365b13-f2e2-4080-93ca-af35727b357b",
      "meta": {
        "profile": [ "http://hl7.org/fhir/us/qicore/StructureDefinition/qicore-organization" ]
      },
      "identifier": [ {
        "use": "temp",
        "system": "urn:oid:2.16.840.1.113883.4.4",
        "value": "21-3259825"
      } ],
      "active": true,
      "type": [ {
        "coding": [ {
          "system": "http://terminology.hl7.org/CodeSystem/organization-type",
          "code": "pay",
          "display": "Payer"
        } ]
      } ],
      "name": "Blue Cross Blue Shield of Texas",
      "telecom": [ {
        "system": "phone",
        "value": "(+1) 972-766-6900"
      } ],
      "address": [ {
        "use": "billing",
        "type": "postal",
        "line": [ "P.O. Box 660044" ],
        "city": "Dallas",
        "state": "TX",
        "postalCode": "75266-0044",
        "country": "USA"
      } ]
    },
    "request": {
      "method": "PUT",
      "url": "Organization/69365b13-f2e2-4080-93ca-af35727b357b"
    }
  }, {
    "fullUrl": "https://madie.cms.gov/MeasureReport/40a395f5-d39c-42e9-9f9a-c1c9eb29eabd",
    "resource": {
      "resourceType": "MeasureReport",
      "id": "40a395f5-d39c-42e9-9f9a-c1c9eb29eabd",
      "meta": {
        "profile": [ "http://hl7.org/fhir/us/cqfmeasures/StructureDefinition/test-case-cqfm" ]
      },
      "contained": [ {
        "resourceType": "Parameters",
        "id": "fe67aecd-2dca-4ca0-9af3-d252eda1bd72-parameters",
        "parameter": [ {
          "name": "subject",
          "valueString": "9a42c820-29ec-464e-b2f5-eb8114985a0c"
        } ]
      } ],
      "extension": [ {
        "url": "http://hl7.org/fhir/StructureDefinition/cqf-inputParameters",
        "valueReference": {
          "reference": "#fe67aecd-2dca-4ca0-9af3-d252eda1bd72-parameters"
        }
      }, {
        "url": "http://hl7.org/fhir/us/cqfmeasures/StructureDefinition/cqfm-testCaseDescription",
        "valueMarkdown": "Patient receives Ticagrelor day after IP start at 1159 pm. No ED. No Obs. Testing Day of operator with HospitalizationWithObservation function.\n"
      } ],
      "modifierExtension": [ {
        "url": "http://hl7.org/fhir/us/cqfmeasures/StructureDefinition/cqfm-isTestCase",
        "valueBoolean": true
      } ],
      "status": "complete",
      "type": "individual",
      "measure": "https://madie.cms.gov/Measure/CMS72FHIRSTKAntithromboticDay2",
      "period": {
        "start": "2026-01-01",
        "end": "2026-12-31"
      },
      "group": [ {
        "id": "Group_1",
        "population": [ {
          "id": "InitialPopulation_1",
          "code": {
            "coding": [ {
              "system": "http://terminology.hl7.org/CodeSystem/measure-population",
              "code": "initial-population",
              "display": "Initial Population"
            } ]
          },
          "count": 1
        }, {
          "id": "Denominator_1",
          "code": {
            "coding": [ {
              "system": "http://terminology.hl7.org/CodeSystem/measure-population",
              "code": "denominator",
              "display": "Denominator"
            } ]
          },
          "count": 1
        }, {
          "id": "DenominatorExclusion_1",
          "code": {
            "coding": [ {
              "system": "http://terminology.hl7.org/CodeSystem/measure-population",
              "code": "denominator-exclusion",
              "display": "Denominator Exclusion"
            } ]
          },
          "count": 0
        }, {
          "id": "Numerator_1",
          "code": {
            "coding": [ {
              "system": "http://terminology.hl7.org/CodeSystem/measure-population",
              "code": "numerator",
              "display": "Numerator"
            } ]
          },
          "count": 0
        }, {
          "id": "DenominatorException_1",
          "code": {
            "coding": [ {
              "system": "http://terminology.hl7.org/CodeSystem/measure-population",
              "code": "denominator-exception",
              "display": "Denominator Exception"
            } ]
          },
          "count": 1
        } ],
        "measureScore": {
          "value": 0.0
        }
      } ],
      "evaluatedResource": [ {
        "reference": "Patient/9a42c820-29ec-464e-b2f5-eb8114985a0c"
      }, {
        "reference": "Encounter/65b68e29-d6b5-4362-a3a8-5ad13d170677"
      }, {
        "reference": "Claim/5ca62962b8484628b8de1ec5"
      }, {
        "reference": "MedicationAdministration/ca833de9-85cd-4eb7-b049-1c9a32d492ab"
      }, {
        "reference": "Coverage/e655db7f-2e14-40da-97cf-b57c469dc4e3"
      }, {
        "reference": "Condition/b5e9f505-9b56-49d8-9ccd-cb83ecfce99a"
      }, {
        "reference": "Organization/69365b13-f2e2-4080-93ca-af35727b357b"
      } ]
    },
    "request": {
      "method": "PUT",
      "url": "MeasureReport/40a395f5-d39c-42e9-9f9a-c1c9eb29eabd"
    }
  } ]
}