{
  "resourceType": "Bundle",
  "id": "63487c300968f801225401c7",
  "type": "transaction",
  "entry": [ {
    "fullUrl": "https://madie.cms.gov/Patient/f073dc3e-d38e-4986-a343-0e3146ba46c0",
    "resource": {
      "resourceType": "Patient",
      "id": "f073dc3e-d38e-4986-a343-0e3146ba46c0",
      "meta": {
        "profile": [ "http://hl7.org/fhir/us/qicore/StructureDefinition/qicore-patient" ]
      },
      "text": {
        "status": "generated",
        "div": "<div xmlns=\"http://www.w3.org/1999/xhtml\"><div class=\"hapiHeaderText\">AssessPreTermResultIsNull <b>DENOMFail</b></div><table class=\"hapiPropertyTable\"><tbody><tr><td>Identifier</td><td>68ae6e24f0fface97c058e998841dc5fd1e621f11f5d5bc2aeef1a3a248ebc14</td></tr><tr><td>Date of birth</td><td><span>14 February 1985</span></td></tr></tbody></table></div>"
      },
      "extension": [ {
        "url": "http://hl7.org/fhir/us/core/StructureDefinition/us-core-race",
        "extension": [ {
          "url": "ombCategory",
          "valueCoding": {
            "system": "urn:oid:2.16.840.1.113883.6.238",
            "code": "1002-5",
            "display": "American Indian or Alaska Native",
            "userSelected": true
          }
        }, {
          "url": "text",
          "valueString": "American Indian or Alaska Native"
        } ]
      }, {
        "url": "http://hl7.org/fhir/us/core/StructureDefinition/us-core-ethnicity",
        "extension": [ {
          "url": "ombCategory",
          "valueCoding": {
            "system": "urn:oid:2.16.840.1.113883.6.238",
            "code": "2135-2",
            "display": "Hispanic or Latino",
            "userSelected": true
          }
        }, {
          "url": "text",
          "valueString": "Hispanic or Latino"
        } ]
      } ],
      "identifier": [ {
        "type": {
          "coding": [ {
            "system": "http://terminology.hl7.org/CodeSystem/v2-0203",
            "code": "MR"
          } ]
        },
        "system": "https://bonnie-fhir.healthit.gov/",
        "value": "63487c300968f801225401c7"
      } ],
      "active": true,
      "name": [ {
        "use": "usual",
        "family": "DENOMFail",
        "given": [ "AssessPreTermResultIsNull" ]
      } ],
      "gender": "female",
      "birthDate": "1998-02-14"
    },
    "request": {
      "method": "PUT",
      "url": "Patient/f073dc3e-d38e-4986-a343-0e3146ba46c0"
    }
  }, {
    "fullUrl": "https://madie.cms.gov/Observation/c52cb3d8-e3d9-48ee-9c4a-72c4f5311c02",
    "resource": {
      "resourceType": "Observation",
      "id": "c52cb3d8-e3d9-48ee-9c4a-72c4f5311c02",
      "meta": {
        "profile": [ "http://hl7.org/fhir/us/qicore/StructureDefinition/qicore-simple-observation" ]
      },
      "status": "final",
      "category": [ {
        "coding": [ {
          "system": "http://terminology.hl7.org/CodeSystem/observation-category",
          "code": "exam",
          "display": "exam",
          "userSelected": true
        } ]
      } ],
      "code": {
        "coding": [ {
          "system": "http://loinc.org",
          "code": "11639-2"
        } ]
      },
      "subject": {
        "reference": "Patient/f073dc3e-d38e-4986-a343-0e3146ba46c0"
      },
      "effectiveDateTime": "2025-09-19T09:00:00.000+00:00",
      "valueInteger": 0
    },
    "request": {
      "method": "PUT",
      "url": "Observation/c52cb3d8-e3d9-48ee-9c4a-72c4f5311c02"
    }
  }, {
    "fullUrl": "https://madie.cms.gov/Observation/2f67d1ad-4ef5-441b-8cbd-06ff1318d3aa",
    "resource": {
      "resourceType": "Observation",
      "id": "2f67d1ad-4ef5-441b-8cbd-06ff1318d3aa",
      "meta": {
        "profile": [ "http://hl7.org/fhir/us/qicore/StructureDefinition/qicore-simple-observation" ]
      },
      "status": "final",
      "category": [ {
        "coding": [ {
          "system": "http://terminology.hl7.org/CodeSystem/observation-category",
          "code": "exam",
          "display": "exam",
          "userSelected": true
        } ]
      } ],
      "code": {
        "coding": [ {
          "system": "http://loinc.org",
          "code": "11637-6"
        } ]
      },
      "subject": {
        "reference": "Patient/f073dc3e-d38e-4986-a343-0e3146ba46c0"
      },
      "effectiveDateTime": "2026-06-08T09:00:00.000+00:00"
    },
    "request": {
      "method": "PUT",
      "url": "Observation/2f67d1ad-4ef5-441b-8cbd-06ff1318d3aa"
    }
  }, {
    "fullUrl": "https://madie.cms.gov/Observation/cc48d1cb-dd41-4f34-af64-cb2a10f1198d",
    "resource": {
      "resourceType": "Observation",
      "id": "cc48d1cb-dd41-4f34-af64-cb2a10f1198d",
      "meta": {
        "profile": [ "http://hl7.org/fhir/us/qicore/StructureDefinition/qicore-simple-observation" ]
      },
      "status": "final",
      "category": [ {
        "coding": [ {
          "system": "http://terminology.hl7.org/CodeSystem/observation-category",
          "code": "exam",
          "display": "exam",
          "userSelected": true
        } ]
      } ],
      "code": {
        "coding": [ {
          "system": "http://loinc.org",
          "code": "11884-4"
        } ]
      },
      "subject": {
        "reference": "Patient/f073dc3e-d38e-4986-a343-0e3146ba46c0"
      },
      "effectiveDateTime": "2026-06-08T20:00:00.000+00:00",
      "valueQuantity": {
        "value": 37,
        "system": "http://unitsofmeasure.org",
        "code": "wk"
      }
    },
    "request": {
      "method": "PUT",
      "url": "Observation/cc48d1cb-dd41-4f34-af64-cb2a10f1198d"
    }
  }, {
    "fullUrl": "https://madie.cms.gov/Observation/9149eccc-ed52-4482-b6d1-1b33edfe84a4",
    "resource": {
      "resourceType": "Observation",
      "id": "9149eccc-ed52-4482-b6d1-1b33edfe84a4",
      "meta": {
        "profile": [ "http://hl7.org/fhir/us/qicore/StructureDefinition/qicore-simple-observation" ]
      },
      "status": "final",
      "category": [ {
        "coding": [ {
          "system": "http://terminology.hl7.org/CodeSystem/observation-category",
          "code": "exam",
          "display": "exam",
          "userSelected": true
        } ]
      } ],
      "code": {
        "coding": [ {
          "system": "http://loinc.org",
          "code": "93857-1"
        } ]
      },
      "subject": {
        "reference": "Patient/f073dc3e-d38e-4986-a343-0e3146ba46c0"
      },
      "effectiveDateTime": "2026-06-08T20:00:00.000+00:00",
      "valueDateTime": "2026-06-08T20:00:00.000+00:00"
    },
    "request": {
      "method": "PUT",
      "url": "Observation/9149eccc-ed52-4482-b6d1-1b33edfe84a4"
    }
  }, {
    "fullUrl": "https://madie.cms.gov/Encounter/c2944a87-09e7-43e9-8054-6a9885f82e20",
    "resource": {
      "resourceType": "Encounter",
      "id": "c2944a87-09e7-43e9-8054-6a9885f82e20",
      "meta": {
        "profile": [ "http://hl7.org/fhir/us/qicore/StructureDefinition/qicore-encounter" ]
      },
      "status": "finished",
      "class": {
        "system": "http://terminology.hl7.org/CodeSystem/v3-ActCode",
        "code": "IMP",
        "display": "inpatient encounter"
      },
      "type": [ {
        "coding": [ {
          "system": "http://snomed.info/sct",
          "code": "8715000"
        } ]
      } ],
      "subject": {
        "reference": "Patient/f073dc3e-d38e-4986-a343-0e3146ba46c0"
      },
      "period": {
        "start": "2026-06-08T08:00:00.000+00:00",
        "end": "2026-06-10T08:15:00.000+00:00"
      },
      "length": {
        "value": 2,
        "unit": "days"
      },
      "reasonReference": [ {
        "reference": "Condition/e4544cf9-a523-4cee-aba2-833e3ad91575"
      } ]
    },
    "request": {
      "method": "PUT",
      "url": "Encounter/c2944a87-09e7-43e9-8054-6a9885f82e20"
    }
  }, {
    "fullUrl": "https://madie.cms.gov/Procedure/8195d55e-ae27-40d5-82f1-6cdd365168e8",
    "resource": {
      "resourceType": "Procedure",
      "id": "8195d55e-ae27-40d5-82f1-6cdd365168e8",
      "meta": {
        "profile": [ "http://hl7.org/fhir/us/qicore/StructureDefinition/qicore-procedure" ]
      },
      "extension": [ {
        "url": "http://hl7.org/fhir/us/qicore/StructureDefinition/qicore-recorded",
        "valueDateTime": "2014-04-05T13:35:00.000+00:00"
      } ],
      "status": "completed",
      "code": {
        "coding": [ {
          "system": "http://www.cms.gov/Medicare/Coding/ICD10",
          "code": "10D00Z0"
        }, {
          "system": "http://snomed.info/sct",
          "code": "4504004"
        } ]
      },
      "subject": {
        "reference": "Patient/f073dc3e-d38e-4986-a343-0e3146ba46c0"
      },
      "performedPeriod": {
        "start": "2026-06-08T20:00:00.000+00:00",
        "end": "2026-06-08T20:15:00.000+00:00"
      }
    },
    "request": {
      "method": "PUT",
      "url": "Procedure/8195d55e-ae27-40d5-82f1-6cdd365168e8"
    }
  }, {
    "fullUrl": "https://madie.cms.gov/Condition/e4544cf9-a523-4cee-aba2-833e3ad91575",
    "resource": {
      "resourceType": "Condition",
      "id": "e4544cf9-a523-4cee-aba2-833e3ad91575",
      "meta": {
        "profile": [ "http://hl7.org/fhir/us/qicore/StructureDefinition/qicore-condition-encounter-diagnosis" ]
      },
      "category": [ {
        "coding": [ {
          "system": "http://terminology.hl7.org/CodeSystem/condition-category",
          "code": "encounter-diagnosis",
          "display": "Encounter Diagnosis"
        } ]
      } ],
      "code": {
        "coding": [ {
          "system": "http://snomed.info/sct",
          "version": "2022-09",
          "code": "169826009",
          "display": "Single live birth from singleton pregnancy (finding)",
          "userSelected": true
        } ]
      },
      "subject": {
        "reference": "Patient/f073dc3e-d38e-4986-a343-0e3146ba46c0"
      },
      "encounter": {
        "reference": "Encounter/c2944a87-09e7-43e9-8054-6a9885f82e20"
      },
      "recordedDate": "2026-10-21T08:00:00.000+00:00"
    },
    "request": {
      "method": "PUT",
      "url": "Condition/e4544cf9-a523-4cee-aba2-833e3ad91575"
    }
  }, {
    "fullUrl": "https://madie.cms.gov/Coverage/d1c3b76b-2ad0-402f-becc-392426f61b3d",
    "resource": {
      "resourceType": "Coverage",
      "id": "d1c3b76b-2ad0-402f-becc-392426f61b3d",
      "meta": {
        "profile": [ "http://hl7.org/fhir/us/qicore/StructureDefinition/qicore-coverage" ]
      },
      "status": "active",
      "beneficiary": {
        "reference": "Patient/f073dc3e-d38e-4986-a343-0e3146ba46c0"
      },
      "payor": [ {
        "reference": "Organization/9313568c-c624-43fe-8154-25d424d39318"
      } ]
    },
    "request": {
      "method": "PUT",
      "url": "Coverage/d1c3b76b-2ad0-402f-becc-392426f61b3d"
    }
  }, {
    "fullUrl": "https://madie.cms.gov/Organization/9313568c-c624-43fe-8154-25d424d39318",
    "resource": {
      "resourceType": "Organization",
      "id": "9313568c-c624-43fe-8154-25d424d39318",
      "meta": {
        "profile": [ "http://hl7.org/fhir/us/qicore/StructureDefinition/qicore-organization" ]
      },
      "identifier": [ {
        "use": "temp",
        "system": "urn:oid:2.16.840.1.113883.4.4",
        "value": "21-3259825"
      } ],
      "active": true,
      "type": [ {
        "coding": [ {
          "system": "http://terminology.hl7.org/CodeSystem/organization-type",
          "code": "pay",
          "display": "Payer"
        } ]
      } ],
      "name": "Blue Cross Blue Shield of Texas",
      "telecom": [ {
        "system": "phone",
        "value": "(+1) 972-766-6900"
      } ],
      "address": [ {
        "use": "billing",
        "type": "postal",
        "line": [ "P.O. Box 660044" ],
        "city": "Dallas",
        "state": "TX",
        "postalCode": "75266-0044",
        "country": "USA"
      } ]
    },
    "request": {
      "method": "PUT",
      "url": "Organization/9313568c-c624-43fe-8154-25d424d39318"
    }
  }, {
    "fullUrl": "https://madie.cms.gov/Practitioner/bb9613ae-076e-4137-96cf-8b6f8a9e2ed6",
    "resource": {
      "resourceType": "Practitioner",
      "id": "bb9613ae-076e-4137-96cf-8b6f8a9e2ed6",
      "meta": {
        "profile": [ "http://hl7.org/fhir/us/qicore/StructureDefinition/qicore-practitioner" ]
      },
      "identifier": [ {
        "system": "http://hl7.org/fhir/sid/us-npi",
        "value": "1234567890"
      } ],
      "name": [ {
        "family": "Evil",
        "prefix": [ "Dr" ]
      } ]
    },
    "request": {
      "method": "PUT",
      "url": "Practitioner/bb9613ae-076e-4137-96cf-8b6f8a9e2ed6"
    }
  }, {
    "fullUrl": "https://madie.cms.gov/MeasureReport/a2156dfc-3828-407c-a52d-68182081208b",
    "resource": {
      "resourceType": "MeasureReport",
      "id": "a2156dfc-3828-407c-a52d-68182081208b",
      "meta": {
        "profile": [ "http://hl7.org/fhir/us/cqfmeasures/StructureDefinition/test-case-cqfm" ]
      },
      "contained": [ {
        "resourceType": "Parameters",
        "id": "37f2a7f2-eef0-4617-a74d-b729f6d6e5f1-parameters",
        "parameter": [ {
          "name": "subject",
          "valueString": "f073dc3e-d38e-4986-a343-0e3146ba46c0"
        } ]
      } ],
      "extension": [ {
        "url": "http://hl7.org/fhir/StructureDefinition/cqf-inputParameters",
        "valueReference": {
          "reference": "#37f2a7f2-eef0-4617-a74d-b729f6d6e5f1-parameters"
        }
      }, {
        "url": "http://hl7.org/fhir/us/cqfmeasures/StructureDefinition/cqfm-testCaseDescription",
        "valueMarkdown": "\"Preterm Births is null, relevant date/time before Asse delivery datetime\nTerm Newborn=0, authored < 42weeks prior to Asse delivery\"\n"
      } ],
      "modifierExtension": [ {
        "url": "http://hl7.org/fhir/us/cqfmeasures/StructureDefinition/cqfm-isTestCase",
        "valueBoolean": true
      } ],
      "status": "complete",
      "type": "individual",
      "measure": "https://madie.cms.gov/Measure/CMS0334FHIRPCCesareanBirth",
      "period": {
        "start": "2026-01-01",
        "end": "2026-12-31"
      },
      "group": [ {
        "id": "Group_1",
        "population": [ {
          "id": "InitialPopulation_1",
          "code": {
            "coding": [ {
              "system": "http://terminology.hl7.org/CodeSystem/measure-population",
              "code": "initial-population",
              "display": "Initial Population"
            } ]
          },
          "count": 1
        }, {
          "id": "Denominator_1",
          "code": {
            "coding": [ {
              "system": "http://terminology.hl7.org/CodeSystem/measure-population",
              "code": "denominator",
              "display": "Denominator"
            } ]
          },
          "count": 0
        }, {
          "id": "DenominatorExclusion_1",
          "code": {
            "coding": [ {
              "system": "http://terminology.hl7.org/CodeSystem/measure-population",
              "code": "denominator-exclusion",
              "display": "Denominator Exclusion"
            } ]
          },
          "count": 0
        }, {
          "id": "Numerator_1",
          "code": {
            "coding": [ {
              "system": "http://terminology.hl7.org/CodeSystem/measure-population",
              "code": "numerator",
              "display": "Numerator"
            } ]
          },
          "count": 0
        } ],
        "measureScore": {
          "value": 0.0
        }
      } ],
      "evaluatedResource": [ {
        "reference": "Patient/f073dc3e-d38e-4986-a343-0e3146ba46c0"
      }, {
        "reference": "Observation/c52cb3d8-e3d9-48ee-9c4a-72c4f5311c02"
      }, {
        "reference": "Observation/2f67d1ad-4ef5-441b-8cbd-06ff1318d3aa"
      }, {
        "reference": "Observation/cc48d1cb-dd41-4f34-af64-cb2a10f1198d"
      }, {
        "reference": "Observation/9149eccc-ed52-4482-b6d1-1b33edfe84a4"
      }, {
        "reference": "Encounter/c2944a87-09e7-43e9-8054-6a9885f82e20"
      }, {
        "reference": "Procedure/8195d55e-ae27-40d5-82f1-6cdd365168e8"
      }, {
        "reference": "Condition/e4544cf9-a523-4cee-aba2-833e3ad91575"
      }, {
        "reference": "Coverage/d1c3b76b-2ad0-402f-becc-392426f61b3d"
      }, {
        "reference": "Organization/9313568c-c624-43fe-8154-25d424d39318"
      }, {
        "reference": "Practitioner/bb9613ae-076e-4137-96cf-8b6f8a9e2ed6"
      } ]
    },
    "request": {
      "method": "PUT",
      "url": "MeasureReport/a2156dfc-3828-407c-a52d-68182081208b"
    }
  } ]
}