{
  "resourceType": "Bundle",
  "id": "DENEXPass-FrailtyDxOverlapsMP",
  "type": "transaction",
  "entry": [ {
    "fullUrl": "https://madie.cms.gov/Patient/01a1241d-fd97-4c72-b288-fd31c4c7ae80",
    "resource": {
      "resourceType": "Patient",
      "id": "01a1241d-fd97-4c72-b288-fd31c4c7ae80",
      "meta": {
        "profile": [ "http://hl7.org/fhir/us/qicore/StructureDefinition/qicore-patient" ]
      },
      "extension": [ {
        "url": "http://hl7.org/fhir/us/core/StructureDefinition/us-core-race",
        "extension": [ {
          "url": "ombCategory",
          "valueCoding": {
            "system": "urn:oid:2.16.840.1.113883.6.238",
            "code": "2028-9",
            "display": "Asian",
            "userSelected": true
          }
        }, {
          "url": "text",
          "valueString": "Asian"
        } ]
      }, {
        "url": "http://hl7.org/fhir/us/core/StructureDefinition/us-core-ethnicity",
        "extension": [ {
          "url": "ombCategory",
          "valueCoding": {
            "system": "urn:oid:2.16.840.1.113883.6.238",
            "code": "2135-2",
            "display": "Hispanic or Latino",
            "userSelected": true
          }
        }, {
          "url": "text",
          "valueString": "Hispanic or Latino"
        } ]
      } ],
      "identifier": [ {
        "type": {
          "coding": [ {
            "system": "http://terminology.hl7.org/CodeSystem/v2-0203",
            "code": "MR"
          } ]
        },
        "system": "http://hospital.smarthealthit.org",
        "value": "999999995"
      } ],
      "name": [ {
        "family": "Bertha",
        "given": [ "Betty" ]
      } ],
      "gender": "female",
      "birthDate": "1954-12-31"
    },
    "request": {
      "method": "PUT",
      "url": "Patient/01a1241d-fd97-4c72-b288-fd31c4c7ae80"
    }
  }, {
    "fullUrl": "https://madie.cms.gov/Encounter/bf75be3b-2d3d-45cd-bd3e-fe4581bd5e4d",
    "resource": {
      "resourceType": "Encounter",
      "id": "bf75be3b-2d3d-45cd-bd3e-fe4581bd5e4d",
      "meta": {
        "profile": [ "http://hl7.org/fhir/us/qicore/StructureDefinition/qicore-encounter" ]
      },
      "status": "finished",
      "class": {
        "system": "http://terminology.hl7.org/CodeSystem/v3-ActCode",
        "code": "AMB",
        "display": "ambulatory"
      },
      "type": [ {
        "coding": [ {
          "system": "http://snomed.info/sct",
          "code": "456201000124103",
          "display": "Medicare annual wellness visit (procedure)"
        } ]
      } ],
      "subject": {
        "reference": "Patient/01a1241d-fd97-4c72-b288-fd31c4c7ae80"
      },
      "period": {
        "start": "2026-01-01T00:00:00.000+00:00",
        "end": "2026-01-01T00:00:00.000+00:00"
      }
    },
    "request": {
      "method": "PUT",
      "url": "Encounter/bf75be3b-2d3d-45cd-bd3e-fe4581bd5e4d"
    }
  }, {
    "fullUrl": "https://madie.cms.gov/Condition/d8f11d89-aabe-499b-966d-43c13db6eb1f",
    "resource": {
      "resourceType": "Condition",
      "id": "d8f11d89-aabe-499b-966d-43c13db6eb1f",
      "meta": {
        "profile": [ "http://hl7.org/fhir/us/qicore/StructureDefinition/qicore-condition-encounter-diagnosis" ]
      },
      "clinicalStatus": {
        "coding": [ {
          "system": "http://terminology.hl7.org/CodeSystem/condition-clinical",
          "code": "active"
        } ]
      },
      "category": [ {
        "coding": [ {
          "system": "http://terminology.hl7.org/CodeSystem/condition-category",
          "code": "encounter-diagnosis",
          "display": "Encounter Diagnosis"
        } ]
      } ],
      "code": {
        "coding": [ {
          "system": "http://snomed.info/sct",
          "code": "102781000119107",
          "display": "Sensory neuropathy due to type 1 diabetes mellitus (disorder)"
        } ]
      },
      "subject": {
        "reference": "Patient/01a1241d-fd97-4c72-b288-fd31c4c7ae80"
      },
      "onsetDateTime": "2026-01-01T00:00:00.000+00:00"
    },
    "request": {
      "method": "PUT",
      "url": "Condition/d8f11d89-aabe-499b-966d-43c13db6eb1f"
    }
  }, {
    "fullUrl": "https://madie.cms.gov/MedicationRequest/438f47ed-1d3b-4355-9561-ea2f59e6d190",
    "resource": {
      "resourceType": "MedicationRequest",
      "id": "438f47ed-1d3b-4355-9561-ea2f59e6d190",
      "meta": {
        "profile": [ "http://hl7.org/fhir/us/qicore/StructureDefinition/qicore-medicationrequest" ]
      },
      "status": "active",
      "intent": "order",
      "doNotPerform": false,
      "medicationCodeableConcept": {
        "coding": [ {
          "system": "http://www.nlm.nih.gov/research/umls/rxnorm",
          "code": "312836",
          "display": "rivastigmine 6 MG Oral Capsule"
        } ]
      },
      "subject": {
        "reference": "Patient/01a1241d-fd97-4c72-b288-fd31c4c7ae80"
      },
      "authoredOn": "2026-12-30T00:00:00.000+00:00",
      "requester": {
        "reference": "Practitioner/example"
      },
      "dispenseRequest": {
        "expectedSupplyDuration": {
          "value": 90,
          "system": "http://unitsofmeasure.org",
          "code": "days"
        }
      }
    },
    "request": {
      "method": "PUT",
      "url": "MedicationRequest/438f47ed-1d3b-4355-9561-ea2f59e6d190"
    }
  }, {
    "fullUrl": "https://madie.cms.gov/Condition/6822e2e4-e83a-4816-813f-953976065afd",
    "resource": {
      "resourceType": "Condition",
      "id": "6822e2e4-e83a-4816-813f-953976065afd",
      "meta": {
        "profile": [ "http://hl7.org/fhir/us/qicore/StructureDefinition/qicore-condition-problems-health-concerns" ]
      },
      "clinicalStatus": {
        "coding": [ {
          "system": "http://terminology.hl7.org/CodeSystem/condition-clinical",
          "code": "active"
        } ]
      },
      "category": [ {
        "coding": [ {
          "system": "http://terminology.hl7.org/CodeSystem/condition-category",
          "code": "problem-list-item",
          "display": "Problem List Item"
        } ]
      } ],
      "code": {
        "coding": [ {
          "system": "http://snomed.info/sct",
          "code": "217083007",
          "display": "Fall on or from stairs or steps (event)"
        } ]
      },
      "subject": {
        "reference": "Patient/01a1241d-fd97-4c72-b288-fd31c4c7ae80"
      },
      "onsetDateTime": "2026-06-30T23:59:59.000+00:00"
    },
    "request": {
      "method": "PUT",
      "url": "Condition/6822e2e4-e83a-4816-813f-953976065afd"
    }
  }, {
    "fullUrl": "https://madie.cms.gov/MeasureReport/f6d5405c-4d38-4df3-985e-564f0da456f7",
    "resource": {
      "resourceType": "MeasureReport",
      "id": "f6d5405c-4d38-4df3-985e-564f0da456f7",
      "meta": {
        "profile": [ "http://hl7.org/fhir/us/cqfmeasures/StructureDefinition/test-case-cqfm" ]
      },
      "contained": [ {
        "resourceType": "Parameters",
        "id": "c9d998e2-e90f-42bc-9133-71c49f478ce7-parameters",
        "parameter": [ {
          "name": "subject",
          "valueString": "01a1241d-fd97-4c72-b288-fd31c4c7ae80"
        } ]
      } ],
      "extension": [ {
        "url": "http://hl7.org/fhir/StructureDefinition/cqf-inputParameters",
        "valueReference": {
          "reference": "#c9d998e2-e90f-42bc-9133-71c49f478ce7-parameters"
        }
      }, {
        "url": "http://hl7.org/fhir/us/cqfmeasures/StructureDefinition/cqfm-testCaseDescription",
        "valueMarkdown": "Frailty diagnosis overlaps MP"
      } ],
      "modifierExtension": [ {
        "url": "http://hl7.org/fhir/us/cqfmeasures/StructureDefinition/cqfm-isTestCase",
        "valueBoolean": true
      } ],
      "status": "complete",
      "type": "individual",
      "measure": "https://madie.cms.gov/Measure/CMS131FHIRDiabetesEyeExam",
      "period": {
        "start": "2026-01-01",
        "end": "2026-12-31"
      },
      "group": [ {
        "id": "Group_1",
        "population": [ {
          "id": "InitialPopulation_1",
          "code": {
            "coding": [ {
              "system": "http://terminology.hl7.org/CodeSystem/measure-population",
              "code": "initial-population",
              "display": "Initial Population"
            } ]
          },
          "count": 1
        }, {
          "id": "Denominator_1",
          "code": {
            "coding": [ {
              "system": "http://terminology.hl7.org/CodeSystem/measure-population",
              "code": "denominator",
              "display": "Denominator"
            } ]
          },
          "count": 1
        }, {
          "id": "DenominatorExclusion_1",
          "code": {
            "coding": [ {
              "system": "http://terminology.hl7.org/CodeSystem/measure-population",
              "code": "denominator-exclusion",
              "display": "Denominator Exclusion"
            } ]
          },
          "count": 1
        }, {
          "id": "Numerator_1",
          "code": {
            "coding": [ {
              "system": "http://terminology.hl7.org/CodeSystem/measure-population",
              "code": "numerator",
              "display": "Numerator"
            } ]
          },
          "count": 0
        } ],
        "measureScore": {
          "value": 1.0
        }
      } ],
      "evaluatedResource": [ {
        "reference": "Patient/01a1241d-fd97-4c72-b288-fd31c4c7ae80"
      }, {
        "reference": "Encounter/bf75be3b-2d3d-45cd-bd3e-fe4581bd5e4d"
      }, {
        "reference": "Condition/d8f11d89-aabe-499b-966d-43c13db6eb1f"
      }, {
        "reference": "MedicationRequest/438f47ed-1d3b-4355-9561-ea2f59e6d190"
      }, {
        "reference": "Condition/6822e2e4-e83a-4816-813f-953976065afd"
      } ]
    },
    "request": {
      "method": "PUT",
      "url": "MeasureReport/f6d5405c-4d38-4df3-985e-564f0da456f7"
    }
  } ]
}