{
  "resourceType": "Bundle",
  "id": "46313213416131",
  "type": "collection",
  "entry": [ {
    "fullUrl": "https://madie.cms.gov/Patient/37e926e5-d9d4-4066-b991-e9b3d58fd8ca",
    "resource": {
      "resourceType": "Patient",
      "id": "37e926e5-d9d4-4066-b991-e9b3d58fd8ca",
      "meta": {
        "profile": [ "http://hl7.org/fhir/us/qicore/StructureDefinition/qicore-patient" ]
      },
      "extension": [ {
        "url": "http://hl7.org/fhir/us/core/StructureDefinition/us-core-race",
        "extension": [ {
          "url": "ombCategory",
          "valueCoding": {
            "system": "urn:oid:2.16.840.1.113883.6.238",
            "code": "2076-8",
            "display": "Native Hawaiian or Other Pacific Islander"
          }
        }, {
          "url": "text",
          "valueString": "Native Hawaiian or Other Pacific Islander"
        } ]
      }, {
        "url": "http://hl7.org/fhir/us/core/StructureDefinition/us-core-ethnicity",
        "extension": [ {
          "url": "ombCategory",
          "valueCoding": {
            "system": "urn:oid:2.16.840.1.113883.6.238",
            "code": "2186-5",
            "display": "Not Hispanic or Latino"
          }
        }, {
          "url": "text",
          "valueString": "Not Hispanic or Latino"
        } ]
      } ],
      "identifier": [ {
        "type": {
          "coding": [ {
            "system": "http://terminology.hl7.org/CodeSystem/v2-0203",
            "code": "MR"
          } ]
        },
        "system": "https://bonnie-fhir.healthit.gov/",
        "value": "46431231346541"
      } ],
      "active": true,
      "name": [ {
        "use": "usual",
        "family": "DENOMEXCEPFail",
        "given": [ "AVBlockDxCardiacSituDx" ]
      } ],
      "gender": "male",
      "birthDate": "1972-12-30"
    }
  }, {
    "fullUrl": "https://madie.cms.gov/Encounter/6fac327a-f982-4736-b367-8b5f1af42561",
    "resource": {
      "resourceType": "Encounter",
      "id": "6fac327a-f982-4736-b367-8b5f1af42561",
      "meta": {
        "profile": [ "http://hl7.org/fhir/us/qicore/StructureDefinition/qicore-encounter" ]
      },
      "status": "finished",
      "class": {
        "system": "http://terminology.hl7.org/CodeSystem/v3-ActCode",
        "code": "AMB",
        "display": "ambulatory"
      },
      "type": [ {
        "coding": [ {
          "system": "http://www.ama-assn.org/go/cpt",
          "version": "2024",
          "code": "99213"
        } ]
      } ],
      "subject": {
        "reference": "Patient/37e926e5-d9d4-4066-b991-e9b3d58fd8ca"
      },
      "period": {
        "start": "2026-04-14T14:40:00Z",
        "end": "2026-04-14T14:50:00Z"
      },
      "length": {
        "value": 0,
        "unit": "days"
      }
    }
  }, {
    "fullUrl": "https://madie.cms.gov/Encounter/7894729b-8398-4f63-9881-0dcf092bb6f6",
    "resource": {
      "resourceType": "Encounter",
      "id": "7894729b-8398-4f63-9881-0dcf092bb6f6",
      "meta": {
        "profile": [ "http://hl7.org/fhir/us/qicore/StructureDefinition/qicore-encounter" ]
      },
      "status": "finished",
      "class": {
        "system": "http://terminology.hl7.org/CodeSystem/v3-ActCode",
        "code": "AMB",
        "display": "ambulatory"
      },
      "type": [ {
        "coding": [ {
          "system": "http://www.ama-assn.org/go/cpt",
          "version": "2024",
          "code": "99212"
        } ]
      } ],
      "subject": {
        "reference": "Patient/37e926e5-d9d4-4066-b991-e9b3d58fd8ca"
      },
      "period": {
        "start": "2026-07-20T11:50:00Z",
        "end": "2026-07-20T11:50:00Z"
      },
      "length": {
        "value": 0,
        "unit": "days"
      }
    }
  }, {
    "fullUrl": "https://madie.cms.gov/Condition/63412d60-a586-4dc0-9d99-1f18b6c56f56",
    "resource": {
      "resourceType": "Condition",
      "id": "63412d60-a586-4dc0-9d99-1f18b6c56f56",
      "meta": {
        "profile": [ "http://hl7.org/fhir/us/qicore/StructureDefinition/qicore-condition-problems-health-concerns" ]
      },
      "clinicalStatus": {
        "coding": [ {
          "system": "http://terminology.hl7.org/CodeSystem/condition-clinical",
          "code": "active",
          "display": "Active"
        } ]
      },
      "verificationStatus": {
        "coding": [ {
          "system": "http://terminology.hl7.org/CodeSystem/condition-ver-status",
          "code": "confirmed",
          "display": "Confirmed"
        } ]
      },
      "category": [ {
        "coding": [ {
          "system": "http://terminology.hl7.org/CodeSystem/condition-category",
          "code": "problem-list-item",
          "display": "Problem List Item"
        } ]
      } ],
      "code": {
        "coding": [ {
          "system": "http://hl7.org/fhir/sid/icd-10-cm",
          "version": "2024",
          "code": "I11.0"
        } ]
      },
      "subject": {
        "reference": "Patient/37e926e5-d9d4-4066-b991-e9b3d58fd8ca"
      },
      "onsetPeriod": {
        "start": "2026-04-11T10:00:00Z"
      }
    }
  }, {
    "fullUrl": "https://madie.cms.gov/Condition/8abea4e4-7e4f-470d-95e5-8e926615e01f",
    "resource": {
      "resourceType": "Condition",
      "id": "8abea4e4-7e4f-470d-95e5-8e926615e01f",
      "meta": {
        "profile": [ "http://hl7.org/fhir/us/qicore/StructureDefinition/qicore-condition-problems-health-concerns" ]
      },
      "clinicalStatus": {
        "coding": [ {
          "system": "http://terminology.hl7.org/CodeSystem/condition-clinical",
          "code": "active",
          "display": "Active"
        } ]
      },
      "verificationStatus": {
        "coding": [ {
          "system": "http://terminology.hl7.org/CodeSystem/condition-ver-status",
          "code": "confirmed",
          "display": "Confirmed"
        } ]
      },
      "category": [ {
        "coding": [ {
          "system": "http://terminology.hl7.org/CodeSystem/condition-category",
          "code": "problem-list-item",
          "display": "Problem List Item"
        } ]
      } ],
      "severity": {
        "coding": [ {
          "system": "http://snomed.info/sct",
          "version": "http://snomed.info/sct/731000124108/version/20240301",
          "code": "24484000",
          "display": "Severe (severity modifier) (qualifier value)"
        } ]
      },
      "code": {
        "coding": [ {
          "system": "http://snomed.info/sct",
          "version": "http://snomed.info/sct/731000124108/version/20250301",
          "code": "134401001",
          "display": "Left ventricular systolic dysfunction (disorder)"
        } ]
      },
      "subject": {
        "reference": "Patient/37e926e5-d9d4-4066-b991-e9b3d58fd8ca"
      },
      "onsetPeriod": {
        "start": "2026-04-14T14:41:00Z"
      }
    }
  }, {
    "fullUrl": "https://madie.cms.gov/Condition/fedd1b10-f305-4909-a2e4-054ae567382a",
    "resource": {
      "resourceType": "Condition",
      "id": "fedd1b10-f305-4909-a2e4-054ae567382a",
      "meta": {
        "profile": [ "http://hl7.org/fhir/us/qicore/StructureDefinition/qicore-condition-problems-health-concerns" ]
      },
      "clinicalStatus": {
        "coding": [ {
          "system": "http://terminology.hl7.org/CodeSystem/condition-clinical",
          "code": "active",
          "display": "Active"
        } ]
      },
      "verificationStatus": {
        "coding": [ {
          "system": "http://terminology.hl7.org/CodeSystem/condition-ver-status",
          "code": "confirmed",
          "display": "Confirmed"
        } ]
      },
      "category": [ {
        "coding": [ {
          "system": "http://terminology.hl7.org/CodeSystem/condition-category",
          "code": "problem-list-item",
          "display": "Problem List Item"
        } ]
      } ],
      "code": {
        "coding": [ {
          "system": "http://snomed.info/sct",
          "version": "http://snomed.info/sct/731000124108/version/20250301",
          "code": "195042002",
          "display": "Second degree atrioventricular block (disorder)"
        } ]
      },
      "subject": {
        "reference": "Patient/37e926e5-d9d4-4066-b991-e9b3d58fd8ca"
      },
      "onsetPeriod": {
        "start": "2026-01-20T14:32:00Z"
      }
    }
  }, {
    "fullUrl": "https://madie.cms.gov/Condition/4f60d71a-0152-4315-8a02-056476b02f49",
    "resource": {
      "resourceType": "Condition",
      "id": "4f60d71a-0152-4315-8a02-056476b02f49",
      "meta": {
        "profile": [ "http://hl7.org/fhir/us/qicore/StructureDefinition/qicore-condition-encounter-diagnosis" ]
      },
      "clinicalStatus": {
        "coding": [ {
          "system": "http://terminology.hl7.org/CodeSystem/condition-clinical",
          "code": "active",
          "display": "Active"
        } ]
      },
      "verificationStatus": {
        "coding": [ {
          "system": "http://terminology.hl7.org/CodeSystem/condition-ver-status",
          "code": "confirmed",
          "display": "Confirmed"
        } ]
      },
      "category": [ {
        "coding": [ {
          "system": "http://terminology.hl7.org/CodeSystem/condition-category",
          "code": "encounter-diagnosis",
          "display": "Encounter Diagnosis"
        } ]
      } ],
      "code": {
        "coding": [ {
          "system": "http://snomed.info/sct",
          "version": "http://snomed.info/sct/731000124108/version/20250301",
          "code": "441509002",
          "display": "Cardiac pacemaker in situ (finding)"
        } ]
      },
      "subject": {
        "reference": "Patient/37e926e5-d9d4-4066-b991-e9b3d58fd8ca"
      },
      "onsetPeriod": {
        "start": "2025-06-20T14:00:00Z"
      }
    }
  }, {
    "fullUrl": "https://madie.cms.gov/MeasureReport/61337141-384e-41f2-8a8a-07d0be259c45",
    "resource": {
      "resourceType": "MeasureReport",
      "id": "61337141-384e-41f2-8a8a-07d0be259c45",
      "meta": {
        "profile": [ "http://hl7.org/fhir/us/cqfmeasures/StructureDefinition/test-case-cqfm" ]
      },
      "contained": [ {
        "resourceType": "Parameters",
        "id": "af7a9105-86ac-4148-9928-f6d7230c1a66-parameters",
        "parameter": [ {
          "name": "subject",
          "valueString": "37e926e5-d9d4-4066-b991-e9b3d58fd8ca"
        } ]
      } ],
      "extension": [ {
        "url": "http://hl7.org/fhir/StructureDefinition/cqf-inputParameters",
        "valueReference": {
          "reference": "#af7a9105-86ac-4148-9928-f6d7230c1a66-parameters"
        }
      }, {
        "url": "http://hl7.org/fhir/us/cqfmeasures/StructureDefinition/cqfm-testCaseDescription",
        "valueMarkdown": "Patient has AVBlock Dx  but is disqualified from Denominator Exception because of additional Cardiac Pacemaker in Situ Diagnosis."
      } ],
      "modifierExtension": [ {
        "url": "http://hl7.org/fhir/us/cqfmeasures/StructureDefinition/cqfm-isTestCase",
        "valueBoolean": true
      } ],
      "status": "complete",
      "type": "individual",
      "measure": "https://madie.cms.gov/Measure/CMS144FHIRHFBetaBlockerForLVSD",
      "period": {
        "start": "2026-01-01",
        "end": "2026-12-31"
      },
      "group": [ {
        "id": "Group_1",
        "population": [ {
          "id": "InitialPopulation_1",
          "code": {
            "coding": [ {
              "system": "http://terminology.hl7.org/CodeSystem/measure-population",
              "code": "initial-population",
              "display": "Initial Population"
            } ]
          },
          "count": 1
        }, {
          "id": "Denominator_1",
          "code": {
            "coding": [ {
              "system": "http://terminology.hl7.org/CodeSystem/measure-population",
              "code": "denominator",
              "display": "Denominator"
            } ]
          },
          "count": 1
        }, {
          "id": "DenominatorExclusion_1",
          "code": {
            "coding": [ {
              "system": "http://terminology.hl7.org/CodeSystem/measure-population",
              "code": "denominator-exclusion",
              "display": "Denominator Exclusion"
            } ]
          },
          "count": 0
        }, {
          "id": "Numerator_1",
          "code": {
            "coding": [ {
              "system": "http://terminology.hl7.org/CodeSystem/measure-population",
              "code": "numerator",
              "display": "Numerator"
            } ]
          },
          "count": 0
        }, {
          "id": "DenominatorException_1",
          "code": {
            "coding": [ {
              "system": "http://terminology.hl7.org/CodeSystem/measure-population",
              "code": "denominator-exception",
              "display": "Denominator Exception"
            } ]
          },
          "count": 0
        } ],
        "measureScore": {
          "value": 1.0
        }
      } ],
      "evaluatedResource": [ {
        "reference": "Patient/37e926e5-d9d4-4066-b991-e9b3d58fd8ca"
      }, {
        "reference": "Encounter/6fac327a-f982-4736-b367-8b5f1af42561"
      }, {
        "reference": "Encounter/7894729b-8398-4f63-9881-0dcf092bb6f6"
      }, {
        "reference": "Condition/63412d60-a586-4dc0-9d99-1f18b6c56f56"
      }, {
        "reference": "Condition/8abea4e4-7e4f-470d-95e5-8e926615e01f"
      }, {
        "reference": "Condition/fedd1b10-f305-4909-a2e4-054ae567382a"
      }, {
        "reference": "Condition/4f60d71a-0152-4315-8a02-056476b02f49"
      } ]
    }
  } ]
}