{
  "resourceType": "Bundle",
  "id": "612e6ed002c62a011f2efb28",
  "type": "transaction",
  "entry": [ {
    "fullUrl": "https://madie.cms.gov/Patient/f035a977-30d0-487c-b542-a596e718420c",
    "resource": {
      "resourceType": "Patient",
      "id": "f035a977-30d0-487c-b542-a596e718420c",
      "meta": {
        "profile": [ "http://hl7.org/fhir/us/qicore/StructureDefinition/qicore-patient" ]
      },
      "text": {
        "status": "generated",
        "div": "<div xmlns=\"http://www.w3.org/1999/xhtml\"><div class=\"hapiHeaderText\">INR4DayAfterAnes <b>NUMERPASS </b></div><table class=\"hapiPropertyTable\"><tbody><tr><td>Identifier</td><td>61ceb527a4f89bd1b9709703ac13c101</td></tr><tr><td>Date of birth</td><td><span>03 March 1974</span></td></tr></tbody></table></div>"
      },
      "extension": [ {
        "url": "http://hl7.org/fhir/us/core/StructureDefinition/us-core-race",
        "extension": [ {
          "url": "ombCategory",
          "valueCoding": {
            "system": "urn:oid:2.16.840.1.113883.6.238",
            "code": "1002-5",
            "display": "American Indian or Alaska Native",
            "userSelected": true
          }
        }, {
          "url": "text",
          "valueString": "American Indian or Alaska Native"
        } ]
      }, {
        "url": "http://hl7.org/fhir/us/core/StructureDefinition/us-core-ethnicity",
        "extension": [ {
          "url": "ombCategory",
          "valueCoding": {
            "system": "urn:oid:2.16.840.1.113883.6.238",
            "code": "2135-2",
            "display": "Hispanic or Latino",
            "userSelected": true
          }
        }, {
          "url": "text",
          "valueString": "Hispanic or Latino"
        } ]
      } ],
      "identifier": [ {
        "type": {
          "coding": [ {
            "system": "http://terminology.hl7.org/CodeSystem/v2-0203",
            "code": "MR"
          } ]
        },
        "system": "https://bonnie-fhir.healthit.gov/",
        "value": "612e6ed002c62a011f2efb28"
      } ],
      "active": true,
      "name": [ {
        "use": "usual",
        "family": "NUMERPass",
        "given": [ "INR4DayAfterAnes" ]
      } ],
      "gender": "female",
      "birthDate": "1975-03-03"
    },
    "request": {
      "method": "PUT",
      "url": "Patient/f035a977-30d0-487c-b542-a596e718420c"
    }
  }, {
    "fullUrl": "https://madie.cms.gov/Encounter/58a68bc8-ad49-4128-8b2f-0ef0ca008c19",
    "resource": {
      "resourceType": "Encounter",
      "id": "58a68bc8-ad49-4128-8b2f-0ef0ca008c19",
      "meta": {
        "profile": [ "http://hl7.org/fhir/us/qicore/StructureDefinition/qicore-encounter" ]
      },
      "status": "finished",
      "class": {
        "system": "http://terminology.hl7.org/CodeSystem/v3-ActCode",
        "code": "IMP",
        "display": "inpatient encounter"
      },
      "type": [ {
        "coding": [ {
          "system": "http://snomed.info/sct",
          "code": "8715000"
        } ]
      } ],
      "subject": {
        "reference": "Patient/f035a977-30d0-487c-b542-a596e718420c"
      },
      "period": {
        "start": "2026-12-04T08:00:00.000+00:00",
        "end": "2026-12-30T08:15:00.000+00:00"
      },
      "length": {
        "value": 26,
        "unit": "days"
      },
      "location": [ {
        "location": {
          "reference": "Location/9e3dda6b-5907-4ee5-9dd7-4b5752c914d5"
        },
        "period": {
          "start": "2026-12-06T08:00:00.000+00:00",
          "end": "2026-12-12T08:15:00.000+00:00"
        }
      } ]
    },
    "request": {
      "method": "PUT",
      "url": "Encounter/58a68bc8-ad49-4128-8b2f-0ef0ca008c19"
    }
  }, {
    "fullUrl": "https://madie.cms.gov/Coverage/b94230fe-ef48-4de0-a201-e8313068d4a5",
    "resource": {
      "resourceType": "Coverage",
      "id": "b94230fe-ef48-4de0-a201-e8313068d4a5",
      "status": "active",
      "beneficiary": {
        "reference": "Patient/f035a977-30d0-487c-b542-a596e718420c"
      },
      "period": {
        "start": "1975-03-03T08:00:00.000+00:00"
      },
      "payor": [ {
        "reference": "Organization/e4fd55ec-358a-4775-a0f8-3d5675b1b17b"
      } ]
    },
    "request": {
      "method": "PUT",
      "url": "Coverage/b94230fe-ef48-4de0-a201-e8313068d4a5"
    }
  }, {
    "fullUrl": "https://madie.cms.gov/Observation/0ac88069-0172-4867-a925-01445539ebbc",
    "resource": {
      "resourceType": "Observation",
      "id": "0ac88069-0172-4867-a925-01445539ebbc",
      "meta": {
        "profile": [ "http://hl7.org/fhir/us/qicore/StructureDefinition/qicore-observation-lab" ]
      },
      "status": "final",
      "category": [ {
        "coding": [ {
          "system": "http://terminology.hl7.org/CodeSystem/observation-category",
          "code": "laboratory",
          "display": "Laboratory"
        } ]
      } ],
      "code": {
        "coding": [ {
          "system": "http://loinc.org",
          "code": "34714-6"
        } ]
      },
      "subject": {
        "reference": "Patient/f035a977-30d0-487c-b542-a596e718420c"
      },
      "effectiveDateTime": "2026-12-08T11:30:00.000+00:00",
      "issued": "2026-12-06T11:30:00.000+00:00",
      "valueQuantity": {
        "value": 4,
        "unit": "{INR}"
      }
    },
    "request": {
      "method": "PUT",
      "url": "Observation/0ac88069-0172-4867-a925-01445539ebbc"
    }
  }, {
    "fullUrl": "https://madie.cms.gov/Procedure/6fb7cb90-0c76-4708-820f-9dd4a1bfaf56",
    "resource": {
      "resourceType": "Procedure",
      "id": "6fb7cb90-0c76-4708-820f-9dd4a1bfaf56",
      "meta": {
        "profile": [ "http://hl7.org/fhir/us/qicore/StructureDefinition/qicore-procedure" ]
      },
      "extension": [ {
        "url": "http://hl7.org/fhir/us/qicore/StructureDefinition/qicore-recorded",
        "valueDateTime": "2013-12-08T13:35:00.000+00:00"
      } ],
      "status": "completed",
      "code": {
        "coding": [ {
          "system": "http://snomed.info/sct",
          "code": "18946005"
        } ]
      },
      "subject": {
        "reference": "Patient/f035a977-30d0-487c-b542-a596e718420c"
      },
      "performedPeriod": {
        "start": "2026-12-07T10:00:00.000+00:00",
        "end": "2026-12-07T10:30:00.000+00:00"
      }
    },
    "request": {
      "method": "PUT",
      "url": "Procedure/6fb7cb90-0c76-4708-820f-9dd4a1bfaf56"
    }
  }, {
    "fullUrl": "https://madie.cms.gov/Location/9e3dda6b-5907-4ee5-9dd7-4b5752c914d5",
    "resource": {
      "resourceType": "Location",
      "id": "9e3dda6b-5907-4ee5-9dd7-4b5752c914d5",
      "meta": {
        "profile": [ "http://hl7.org/fhir/us/qicore/StructureDefinition/qicore-location" ]
      },
      "identifier": [ {
        "use": "usual",
        "system": "http://exampleoflocation.com",
        "value": "B1-S.F2"
      } ],
      "name": "Medical Surgical East, first floor",
      "type": [ {
        "coding": [ {
          "system": "https://www.cdc.gov/nhsn/cdaportal/terminology/codesystem/hsloc.html",
          "code": "1025-6",
          "display": "Trauma Critical Care",
          "userSelected": true
        } ]
      } ]
    },
    "request": {
      "method": "PUT",
      "url": "Location/9e3dda6b-5907-4ee5-9dd7-4b5752c914d5"
    }
  }, {
    "fullUrl": "https://madie.cms.gov/Organization/e4fd55ec-358a-4775-a0f8-3d5675b1b17b",
    "resource": {
      "resourceType": "Organization",
      "id": "e4fd55ec-358a-4775-a0f8-3d5675b1b17b",
      "meta": {
        "profile": [ "http://hl7.org/fhir/us/qicore/StructureDefinition/qicore-organization" ]
      },
      "identifier": [ {
        "use": "temp",
        "system": "urn:oid:2.16.840.1.113883.4.4",
        "value": "21-3259825"
      } ],
      "active": true,
      "type": [ {
        "coding": [ {
          "system": "http://terminology.hl7.org/CodeSystem/organization-type",
          "code": "pay",
          "display": "Payer"
        } ]
      } ],
      "name": "Blue Cross Blue Shield of Texas",
      "telecom": [ {
        "system": "phone",
        "value": "(+1) 972-766-6900"
      } ],
      "address": [ {
        "use": "billing",
        "type": "postal",
        "line": [ "P.O. Box 660044" ],
        "city": "Dallas",
        "state": "TX",
        "postalCode": "75266-0044",
        "country": "USA"
      } ]
    },
    "request": {
      "method": "PUT",
      "url": "Organization/e4fd55ec-358a-4775-a0f8-3d5675b1b17b"
    }
  }, {
    "fullUrl": "https://madie.cms.gov/Practitioner/461235d4-2e13-4001-a667-2ba29adf19d5",
    "resource": {
      "resourceType": "Practitioner",
      "id": "461235d4-2e13-4001-a667-2ba29adf19d5",
      "identifier": [ {
        "system": "http://hl7.org/fhir/sid/us-npi",
        "value": "123456"
      } ],
      "name": [ {
        "family": "Evil",
        "prefix": [ "Dr" ]
      } ]
    },
    "request": {
      "method": "PUT",
      "url": "Practitioner/461235d4-2e13-4001-a667-2ba29adf19d5"
    }
  }, {
    "fullUrl": "https://madie.cms.gov/MeasureReport/2318030c-b923-45ed-988f-5925f46200e9",
    "resource": {
      "resourceType": "MeasureReport",
      "id": "2318030c-b923-45ed-988f-5925f46200e9",
      "meta": {
        "profile": [ "http://hl7.org/fhir/us/cqfmeasures/StructureDefinition/test-case-cqfm" ]
      },
      "contained": [ {
        "resourceType": "Parameters",
        "id": "731b91ea-5745-4a02-9606-b99f4891d8c0-parameters",
        "parameter": [ {
          "name": "subject",
          "valueString": "f035a977-30d0-487c-b542-a596e718420c"
        } ]
      } ],
      "extension": [ {
        "url": "http://hl7.org/fhir/StructureDefinition/cqf-inputParameters",
        "valueReference": {
          "reference": "#731b91ea-5745-4a02-9606-b99f4891d8c0-parameters"
        }
      }, {
        "url": "http://hl7.org/fhir/us/cqfmeasures/StructureDefinition/cqfm-testCaseDescription",
        "valueMarkdown": "INR4DayAfterAnes\n"
      } ],
      "modifierExtension": [ {
        "url": "http://hl7.org/fhir/us/cqfmeasures/StructureDefinition/cqfm-isTestCase",
        "valueBoolean": true
      } ],
      "status": "complete",
      "type": "individual",
      "measure": "https://madie.cms.gov/Measure/CMS190FHIRVTEProphylaxisICU",
      "period": {
        "start": "2026-01-01",
        "end": "2026-12-31"
      },
      "group": [ {
        "id": "Group_1",
        "population": [ {
          "id": "InitialPopulation_1",
          "code": {
            "coding": [ {
              "system": "http://terminology.hl7.org/CodeSystem/measure-population",
              "code": "initial-population",
              "display": "Initial Population"
            } ]
          },
          "count": 1
        }, {
          "id": "Denominator_1",
          "code": {
            "coding": [ {
              "system": "http://terminology.hl7.org/CodeSystem/measure-population",
              "code": "denominator",
              "display": "Denominator"
            } ]
          },
          "count": 1
        }, {
          "id": "DenominatorExclusion_1",
          "code": {
            "coding": [ {
              "system": "http://terminology.hl7.org/CodeSystem/measure-population",
              "code": "denominator-exclusion",
              "display": "Denominator Exclusion"
            } ]
          },
          "count": 0
        }, {
          "id": "Numerator_1",
          "code": {
            "coding": [ {
              "system": "http://terminology.hl7.org/CodeSystem/measure-population",
              "code": "numerator",
              "display": "Numerator"
            } ]
          },
          "count": 1
        }, {
          "id": "DenominatorException_1",
          "code": {
            "coding": [ {
              "system": "http://terminology.hl7.org/CodeSystem/measure-population",
              "code": "denominator-exception",
              "display": "Denominator Exception"
            } ]
          },
          "count": 0
        } ],
        "measureScore": {
          "value": 0.0
        }
      } ],
      "evaluatedResource": [ {
        "reference": "Patient/f035a977-30d0-487c-b542-a596e718420c"
      }, {
        "reference": "Encounter/58a68bc8-ad49-4128-8b2f-0ef0ca008c19"
      }, {
        "reference": "Coverage/b94230fe-ef48-4de0-a201-e8313068d4a5"
      }, {
        "reference": "Observation/0ac88069-0172-4867-a925-01445539ebbc"
      }, {
        "reference": "Procedure/6fb7cb90-0c76-4708-820f-9dd4a1bfaf56"
      }, {
        "reference": "Location/9e3dda6b-5907-4ee5-9dd7-4b5752c914d5"
      }, {
        "reference": "Organization/e4fd55ec-358a-4775-a0f8-3d5675b1b17b"
      }, {
        "reference": "Practitioner/461235d4-2e13-4001-a667-2ba29adf19d5"
      } ]
    },
    "request": {
      "method": "PUT",
      "url": "MeasureReport/2318030c-b923-45ed-988f-5925f46200e9"
    }
  } ]
}