{
  "resourceType": "Bundle",
  "id": "612e6ab402c62a011f2eb007",
  "type": "transaction",
  "entry": [ {
    "fullUrl": "https://madie.cms.gov/Patient/d9317b8a-ccf3-4fdb-bcee-da027b403708",
    "resource": {
      "resourceType": "Patient",
      "id": "d9317b8a-ccf3-4fdb-bcee-da027b403708",
      "meta": {
        "profile": [ "http://hl7.org/fhir/us/qicore/StructureDefinition/qicore-patient" ]
      },
      "text": {
        "status": "generated",
        "div": "<div xmlns=\"http://www.w3.org/1999/xhtml\"><div class=\"hapiHeaderText\">CMO2DayAfterAnesthesia <b>DENEXFAIL </b></div><table class=\"hapiPropertyTable\"><tbody><tr><td>Identifier</td><td>eae8d1af3e172cab969568063cd70f67</td></tr><tr><td>Date of birth</td><td><span>02 January 1974</span></td></tr></tbody></table></div>"
      },
      "extension": [ {
        "url": "http://hl7.org/fhir/us/core/StructureDefinition/us-core-race",
        "extension": [ {
          "url": "ombCategory",
          "valueCoding": {
            "system": "urn:oid:2.16.840.1.113883.6.238",
            "code": "1002-5",
            "display": "American Indian or Alaska Native",
            "userSelected": true
          }
        }, {
          "url": "text",
          "valueString": "American Indian or Alaska Native"
        } ]
      }, {
        "url": "http://hl7.org/fhir/us/core/StructureDefinition/us-core-ethnicity",
        "extension": [ {
          "url": "ombCategory",
          "valueCoding": {
            "system": "urn:oid:2.16.840.1.113883.6.238",
            "code": "2135-2",
            "display": "Hispanic or Latino",
            "userSelected": true
          }
        }, {
          "url": "text",
          "valueString": "Hispanic or Latino"
        } ]
      } ],
      "identifier": [ {
        "type": {
          "coding": [ {
            "system": "http://terminology.hl7.org/CodeSystem/v2-0203",
            "code": "MR"
          } ]
        },
        "system": "https://bonnie-fhir.healthit.gov/",
        "value": "612e6ab402c62a011f2eb007"
      } ],
      "active": true,
      "name": [ {
        "use": "usual",
        "family": "DENEXFail",
        "given": [ "CMO2DayAfterAnesthesia" ]
      } ],
      "gender": "male",
      "birthDate": "1975-01-02"
    },
    "request": {
      "method": "PUT",
      "url": "Patient/d9317b8a-ccf3-4fdb-bcee-da027b403708"
    }
  }, {
    "fullUrl": "https://madie.cms.gov/Encounter/75867196-a4a3-46a7-8336-24ef3bb183b8",
    "resource": {
      "resourceType": "Encounter",
      "id": "75867196-a4a3-46a7-8336-24ef3bb183b8",
      "meta": {
        "profile": [ "http://hl7.org/fhir/us/qicore/StructureDefinition/qicore-encounter" ]
      },
      "status": "finished",
      "class": {
        "system": "http://terminology.hl7.org/CodeSystem/v3-ActCode",
        "code": "IMP",
        "display": "inpatient encounter"
      },
      "type": [ {
        "coding": [ {
          "system": "http://snomed.info/sct",
          "code": "8715000"
        } ]
      } ],
      "subject": {
        "reference": "Patient/d9317b8a-ccf3-4fdb-bcee-da027b403708"
      },
      "period": {
        "start": "2026-11-01T08:00:00.000+00:00",
        "end": "2026-11-26T08:15:00.000+00:00"
      },
      "length": {
        "value": 25.0,
        "unit": "days"
      }
    },
    "request": {
      "method": "PUT",
      "url": "Encounter/75867196-a4a3-46a7-8336-24ef3bb183b8"
    }
  }, {
    "fullUrl": "https://madie.cms.gov/ServiceRequest/cc40c07b-333a-4340-abcc-3052864428b9",
    "resource": {
      "resourceType": "ServiceRequest",
      "id": "cc40c07b-333a-4340-abcc-3052864428b9",
      "meta": {
        "profile": [ "http://hl7.org/fhir/us/qicore/StructureDefinition/qicore-servicerequest" ]
      },
      "status": "active",
      "intent": "order",
      "code": {
        "coding": [ {
          "system": "http://snomed.info/sct",
          "code": "133918004"
        } ]
      },
      "subject": {
        "reference": "Patient/d9317b8a-ccf3-4fdb-bcee-da027b403708"
      },
      "authoredOn": "2026-11-04T11:00:00.000+00:00"
    },
    "request": {
      "method": "PUT",
      "url": "ServiceRequest/cc40c07b-333a-4340-abcc-3052864428b9"
    }
  }, {
    "fullUrl": "https://madie.cms.gov/Coverage/92f936f1-41ed-4a8e-8045-6537dc17cd20",
    "resource": {
      "resourceType": "Coverage",
      "id": "92f936f1-41ed-4a8e-8045-6537dc17cd20",
      "status": "active",
      "beneficiary": {
        "reference": "Patient/d9317b8a-ccf3-4fdb-bcee-da027b403708"
      },
      "period": {
        "start": "1975-01-02T08:00:00.000+00:00"
      },
      "payor": [ {
        "reference": "Organization/2672d7a1-066c-4e5e-95ee-437dd6b96799"
      } ]
    },
    "request": {
      "method": "PUT",
      "url": "Coverage/92f936f1-41ed-4a8e-8045-6537dc17cd20"
    }
  }, {
    "fullUrl": "https://madie.cms.gov/Procedure/c7e21e98-d2ce-4cdd-92b0-f646e3edfb90",
    "resource": {
      "resourceType": "Procedure",
      "id": "c7e21e98-d2ce-4cdd-92b0-f646e3edfb90",
      "meta": {
        "profile": [ "http://hl7.org/fhir/us/qicore/StructureDefinition/qicore-procedure" ]
      },
      "extension": [ {
        "url": "http://hl7.org/fhir/us/qicore/StructureDefinition/qicore-recorded",
        "valueDateTime": "2013-12-04T13:35:00.000+00:00"
      } ],
      "status": "completed",
      "code": {
        "coding": [ {
          "system": "http://www.icd10data.com/icd10pcs",
          "code": "3E030FZ"
        }, {
          "system": "http://snomed.info/sct",
          "code": "18946005"
        } ]
      },
      "subject": {
        "reference": "Patient/d9317b8a-ccf3-4fdb-bcee-da027b403708"
      },
      "performedPeriod": {
        "start": "2026-11-02T09:00:00.000+00:00",
        "end": "2026-11-02T09:15:00.000+00:00"
      }
    },
    "request": {
      "method": "PUT",
      "url": "Procedure/c7e21e98-d2ce-4cdd-92b0-f646e3edfb90"
    }
  }, {
    "fullUrl": "https://madie.cms.gov/Organization/2672d7a1-066c-4e5e-95ee-437dd6b96799",
    "resource": {
      "resourceType": "Organization",
      "id": "2672d7a1-066c-4e5e-95ee-437dd6b96799",
      "meta": {
        "profile": [ "http://hl7.org/fhir/us/qicore/StructureDefinition/qicore-organization" ]
      },
      "identifier": [ {
        "use": "temp",
        "system": "urn:oid:2.16.840.1.113883.4.4",
        "value": "21-3259825"
      } ],
      "active": true,
      "type": [ {
        "coding": [ {
          "system": "http://terminology.hl7.org/CodeSystem/organization-type",
          "code": "pay",
          "display": "Payer"
        } ]
      } ],
      "name": "Blue Cross Blue Shield of Texas",
      "telecom": [ {
        "system": "phone",
        "value": "(+1) 972-766-6900"
      } ],
      "address": [ {
        "use": "billing",
        "type": "postal",
        "line": [ "P.O. Box 660044" ],
        "city": "Dallas",
        "state": "TX",
        "postalCode": "75266-0044",
        "country": "USA"
      } ]
    },
    "request": {
      "method": "PUT",
      "url": "Organization/2672d7a1-066c-4e5e-95ee-437dd6b96799"
    }
  }, {
    "fullUrl": "https://madie.cms.gov/Practitioner/e46a0f3e-6083-4dfe-afed-e2233f021fbc",
    "resource": {
      "resourceType": "Practitioner",
      "id": "e46a0f3e-6083-4dfe-afed-e2233f021fbc",
      "identifier": [ {
        "system": "http://hl7.org/fhir/sid/us-npi",
        "value": "123456"
      } ],
      "name": [ {
        "family": "Evil",
        "prefix": [ "Dr" ]
      } ]
    },
    "request": {
      "method": "PUT",
      "url": "Practitioner/e46a0f3e-6083-4dfe-afed-e2233f021fbc"
    }
  }, {
    "fullUrl": "https://madie.cms.gov/MeasureReport/31f064d3-0004-4f0a-8f9d-5f8734bcaca2",
    "resource": {
      "resourceType": "MeasureReport",
      "id": "31f064d3-0004-4f0a-8f9d-5f8734bcaca2",
      "meta": {
        "profile": [ "http://hl7.org/fhir/us/cqfmeasures/StructureDefinition/test-case-cqfm" ]
      },
      "contained": [ {
        "resourceType": "Parameters",
        "id": "da6bc5ce-1a38-4bab-8466-463315e76287-parameters",
        "parameter": [ {
          "name": "subject",
          "valueString": "d9317b8a-ccf3-4fdb-bcee-da027b403708"
        } ]
      } ],
      "extension": [ {
        "url": "http://hl7.org/fhir/StructureDefinition/cqf-inputParameters",
        "valueReference": {
          "reference": "#da6bc5ce-1a38-4bab-8466-463315e76287-parameters"
        }
      }, {
        "url": "http://hl7.org/fhir/us/cqfmeasures/StructureDefinition/cqfm-testCaseDescription",
        "valueMarkdown": "comfort measures order 2 day after end of  anesthesia\n"
      } ],
      "modifierExtension": [ {
        "url": "http://hl7.org/fhir/us/cqfmeasures/StructureDefinition/cqfm-isTestCase",
        "valueBoolean": true
      } ],
      "status": "complete",
      "type": "individual",
      "measure": "https://madie.cms.gov/Measure/CMS108FHIRVTEProphylaxis",
      "period": {
        "start": "2026-01-01",
        "end": "2026-12-31"
      },
      "group": [ {
        "id": "Group_1",
        "population": [ {
          "id": "InitialPopulation_1",
          "code": {
            "coding": [ {
              "system": "http://terminology.hl7.org/CodeSystem/measure-population",
              "code": "initial-population",
              "display": "Initial Population"
            } ]
          },
          "count": 1
        }, {
          "id": "Denominator_1",
          "code": {
            "coding": [ {
              "system": "http://terminology.hl7.org/CodeSystem/measure-population",
              "code": "denominator",
              "display": "Denominator"
            } ]
          },
          "count": 1
        }, {
          "id": "DenominatorExclusion_1",
          "code": {
            "coding": [ {
              "system": "http://terminology.hl7.org/CodeSystem/measure-population",
              "code": "denominator-exclusion",
              "display": "Denominator Exclusion"
            } ]
          },
          "count": 0
        }, {
          "id": "Numerator_1",
          "code": {
            "coding": [ {
              "system": "http://terminology.hl7.org/CodeSystem/measure-population",
              "code": "numerator",
              "display": "Numerator"
            } ]
          },
          "count": 0
        } ],
        "measureScore": {
          "value": 0.0
        }
      } ],
      "evaluatedResource": [ {
        "reference": "Patient/d9317b8a-ccf3-4fdb-bcee-da027b403708"
      }, {
        "reference": "Encounter/75867196-a4a3-46a7-8336-24ef3bb183b8"
      }, {
        "reference": "ServiceRequest/cc40c07b-333a-4340-abcc-3052864428b9"
      }, {
        "reference": "Coverage/92f936f1-41ed-4a8e-8045-6537dc17cd20"
      }, {
        "reference": "Procedure/c7e21e98-d2ce-4cdd-92b0-f646e3edfb90"
      }, {
        "reference": "Organization/2672d7a1-066c-4e5e-95ee-437dd6b96799"
      }, {
        "reference": "Practitioner/e46a0f3e-6083-4dfe-afed-e2233f021fbc"
      } ]
    },
    "request": {
      "method": "PUT",
      "url": "MeasureReport/31f064d3-0004-4f0a-8f9d-5f8734bcaca2"
    }
  } ]
}