{
  "resourceType": "Bundle",
  "id": "612e6b2e02c62a011f2ecc81",
  "type": "transaction",
  "entry": [ {
    "fullUrl": "https://madie.cms.gov/Patient/525e73f2-77be-49b1-920f-6fc31ef38d22",
    "resource": {
      "resourceType": "Patient",
      "id": "525e73f2-77be-49b1-920f-6fc31ef38d22",
      "meta": {
        "profile": [ "http://hl7.org/fhir/us/qicore/StructureDefinition/qicore-patient" ]
      },
      "text": {
        "status": "generated",
        "div": "<div xmlns=\"http://www.w3.org/1999/xhtml\"><div class=\"hapiHeaderText\">PtRefMOLMWHTaskReject <b>NUMERPASS </b></div><table class=\"hapiPropertyTable\"><tbody><tr><td>Identifier</td><td>bec2580a47ed4bf7691b191e0654b2de</td></tr><tr><td>Date of birth</td><td><span>02 January 1974</span></td></tr></tbody></table></div>"
      },
      "extension": [ {
        "url": "http://hl7.org/fhir/us/core/StructureDefinition/us-core-race",
        "extension": [ {
          "url": "ombCategory",
          "valueCoding": {
            "system": "urn:oid:2.16.840.1.113883.6.238",
            "code": "1002-5",
            "display": "American Indian or Alaska Native",
            "userSelected": true
          }
        }, {
          "url": "text",
          "valueString": "American Indian or Alaska Native"
        } ]
      }, {
        "url": "http://hl7.org/fhir/us/core/StructureDefinition/us-core-ethnicity",
        "extension": [ {
          "url": "ombCategory",
          "valueCoding": {
            "system": "urn:oid:2.16.840.1.113883.6.238",
            "code": "2135-2",
            "display": "Hispanic or Latino",
            "userSelected": true
          }
        }, {
          "url": "text",
          "valueString": "Hispanic or Latino"
        } ]
      } ],
      "identifier": [ {
        "type": {
          "coding": [ {
            "system": "http://terminology.hl7.org/CodeSystem/v2-0203",
            "code": "MR"
          } ]
        },
        "system": "https://bonnie-fhir.healthit.gov/",
        "value": "612e6b2e02c62a011f2ecc81"
      } ],
      "active": true,
      "name": [ {
        "use": "usual",
        "family": "NUMERPass",
        "given": [ "PtRefMOLMWHTaskReject" ]
      } ],
      "gender": "male",
      "birthDate": "1975-01-02"
    },
    "request": {
      "method": "PUT",
      "url": "Patient/525e73f2-77be-49b1-920f-6fc31ef38d22"
    }
  }, {
    "fullUrl": "https://madie.cms.gov/Encounter/4001ea12-7207-42e9-811d-a58a349e947b",
    "resource": {
      "resourceType": "Encounter",
      "id": "4001ea12-7207-42e9-811d-a58a349e947b",
      "meta": {
        "profile": [ "http://hl7.org/fhir/us/qicore/StructureDefinition/qicore-encounter" ]
      },
      "status": "finished",
      "class": {
        "system": "http://terminology.hl7.org/CodeSystem/v3-ActCode",
        "code": "IMP",
        "display": "inpatient encounter"
      },
      "type": [ {
        "coding": [ {
          "system": "http://snomed.info/sct",
          "code": "8715000"
        } ]
      } ],
      "subject": {
        "reference": "Patient/525e73f2-77be-49b1-920f-6fc31ef38d22"
      },
      "period": {
        "start": "2026-11-01T08:00:00.000+00:00",
        "end": "2026-11-26T08:15:00.000+00:00"
      },
      "length": {
        "value": 25,
        "unit": "days"
      }
    },
    "request": {
      "method": "PUT",
      "url": "Encounter/4001ea12-7207-42e9-811d-a58a349e947b"
    }
  }, {
    "fullUrl": "https://madie.cms.gov/Coverage/422c97d2-6fc5-412e-bb2e-cfbcdf4d5969",
    "resource": {
      "resourceType": "Coverage",
      "id": "422c97d2-6fc5-412e-bb2e-cfbcdf4d5969",
      "status": "active",
      "beneficiary": {
        "reference": "Patient/525e73f2-77be-49b1-920f-6fc31ef38d22"
      },
      "period": {
        "start": "1975-01-02T08:00:00.000+00:00"
      },
      "payor": [ {
        "reference": "Organization/96bcc8a3-5d61-49bd-9a87-820c6c4da5a5"
      } ]
    },
    "request": {
      "method": "PUT",
      "url": "Coverage/422c97d2-6fc5-412e-bb2e-cfbcdf4d5969"
    }
  }, {
    "fullUrl": "https://madie.cms.gov/MedicationRequest/32e516df-cf74-4616-bea6-0efb073e4f53",
    "resource": {
      "resourceType": "MedicationRequest",
      "id": "32e516df-cf74-4616-bea6-0efb073e4f53",
      "meta": {
        "profile": [ "http://hl7.org/fhir/us/qicore/StructureDefinition/qicore-medicationrequest" ]
      },
      "status": "active",
      "intent": "order",
      "category": [ {
        "coding": [ {
          "system": "http://terminology.hl7.org/CodeSystem/medicationrequest-category",
          "code": "inpatient"
        } ]
      } ],
      "doNotPerform": false,
      "medicationCodeableConcept": {
        "coding": [ {
          "system": "http://www.nlm.nih.gov/research/umls/rxnorm",
          "code": "978744"
        } ]
      },
      "subject": {
        "reference": "Patient/525e73f2-77be-49b1-920f-6fc31ef38d22"
      },
      "authoredOn": "2026-11-01T08:00:00.000+00:00",
      "requester": {
        "reference": "Practitioner/123456"
      },
      "dosageInstruction": [ {
        "timing": {
          "repeat": {
            "boundsPeriod": {
              "start": "2026-11-03T09:00:00.000+00:00"
            }
          }
        }
      } ]
    },
    "request": {
      "method": "PUT",
      "url": "MedicationRequest/32e516df-cf74-4616-bea6-0efb073e4f53"
    }
  }, {
    "fullUrl": "https://madie.cms.gov/Task/67c514f1-edfc-4e64-9aae-2c58011dfeb4",
    "resource": {
      "resourceType": "Task",
      "id": "67c514f1-edfc-4e64-9aae-2c58011dfeb4",
      "meta": {
        "profile": [ "http://hl7.org/fhir/us/qicore/StructureDefinition/qicore-taskrejected" ]
      },
      "status": "rejected",
      "statusReason": {
        "coding": [ {
          "system": "http://snomed.info/sct",
          "code": "443390004",
          "display": "Refusal of treatment by patient (situation)",
          "userSelected": true
        } ]
      },
      "code": {
        "coding": [ {
          "system": "http://hl7.org/fhir/CodeSystem/task-code",
          "code": "fulfill"
        } ]
      },
      "focus": {
        "reference": "MedicationRequest/32e516df-cf74-4616-bea6-0efb073e4f53"
      },
      "executionPeriod": {
        "start": "2026-11-01T09:00:00.000+00:00",
        "end": "2026-11-03T09:00:00.000+00:00"
      }
    },
    "request": {
      "method": "PUT",
      "url": "Task/67c514f1-edfc-4e64-9aae-2c58011dfeb4"
    }
  }, {
    "fullUrl": "https://madie.cms.gov/Organization/96bcc8a3-5d61-49bd-9a87-820c6c4da5a5",
    "resource": {
      "resourceType": "Organization",
      "id": "96bcc8a3-5d61-49bd-9a87-820c6c4da5a5",
      "meta": {
        "profile": [ "http://hl7.org/fhir/us/qicore/StructureDefinition/qicore-organization" ]
      },
      "identifier": [ {
        "use": "temp",
        "system": "urn:oid:2.16.840.1.113883.4.4",
        "value": "21-3259825"
      } ],
      "active": true,
      "type": [ {
        "coding": [ {
          "system": "http://terminology.hl7.org/CodeSystem/organization-type",
          "code": "pay",
          "display": "Payer"
        } ]
      } ],
      "name": "Blue Cross Blue Shield of Texas",
      "telecom": [ {
        "system": "phone",
        "value": "(+1) 972-766-6900"
      } ],
      "address": [ {
        "use": "billing",
        "type": "postal",
        "line": [ "P.O. Box 660044" ],
        "city": "Dallas",
        "state": "TX",
        "postalCode": "75266-0044",
        "country": "USA"
      } ]
    },
    "request": {
      "method": "PUT",
      "url": "Organization/96bcc8a3-5d61-49bd-9a87-820c6c4da5a5"
    }
  }, {
    "fullUrl": "https://madie.cms.gov/Practitioner/8ce3bacf-117b-463d-8411-f7d1d002ef27",
    "resource": {
      "resourceType": "Practitioner",
      "id": "8ce3bacf-117b-463d-8411-f7d1d002ef27",
      "identifier": [ {
        "system": "http://hl7.org/fhir/sid/us-npi",
        "value": "123456"
      } ],
      "name": [ {
        "family": "Evil",
        "prefix": [ "Dr" ]
      } ]
    },
    "request": {
      "method": "PUT",
      "url": "Practitioner/8ce3bacf-117b-463d-8411-f7d1d002ef27"
    }
  }, {
    "fullUrl": "https://madie.cms.gov/MeasureReport/9cb7f213-6011-4f8b-be16-010172559897",
    "resource": {
      "resourceType": "MeasureReport",
      "id": "9cb7f213-6011-4f8b-be16-010172559897",
      "meta": {
        "profile": [ "http://hl7.org/fhir/us/cqfmeasures/StructureDefinition/test-case-cqfm" ]
      },
      "contained": [ {
        "resourceType": "Parameters",
        "id": "ddc471f7-5667-4f8a-8c44-2aa9b672272a-parameters",
        "parameter": [ {
          "name": "subject",
          "valueString": "525e73f2-77be-49b1-920f-6fc31ef38d22"
        } ]
      } ],
      "extension": [ {
        "url": "http://hl7.org/fhir/StructureDefinition/cqf-inputParameters",
        "valueReference": {
          "reference": "#ddc471f7-5667-4f8a-8c44-2aa9b672272a-parameters"
        }
      }, {
        "url": "http://hl7.org/fhir/us/cqfmeasures/StructureDefinition/cqfm-testCaseDescription",
        "valueMarkdown": "Low Molecular Weight Heparin refused with taskReject profile\n"
      } ],
      "modifierExtension": [ {
        "url": "http://hl7.org/fhir/us/cqfmeasures/StructureDefinition/cqfm-isTestCase",
        "valueBoolean": true
      } ],
      "status": "complete",
      "type": "individual",
      "measure": "https://madie.cms.gov/Measure/CMS108FHIRVTEProphylaxis",
      "period": {
        "start": "2026-01-01",
        "end": "2026-12-31"
      },
      "group": [ {
        "id": "Group_1",
        "population": [ {
          "id": "InitialPopulation_1",
          "code": {
            "coding": [ {
              "system": "http://terminology.hl7.org/CodeSystem/measure-population",
              "code": "initial-population",
              "display": "Initial Population"
            } ]
          },
          "count": 1
        }, {
          "id": "Denominator_1",
          "code": {
            "coding": [ {
              "system": "http://terminology.hl7.org/CodeSystem/measure-population",
              "code": "denominator",
              "display": "Denominator"
            } ]
          },
          "count": 1
        }, {
          "id": "DenominatorExclusion_1",
          "code": {
            "coding": [ {
              "system": "http://terminology.hl7.org/CodeSystem/measure-population",
              "code": "denominator-exclusion",
              "display": "Denominator Exclusion"
            } ]
          },
          "count": 0
        }, {
          "id": "Numerator_1",
          "code": {
            "coding": [ {
              "system": "http://terminology.hl7.org/CodeSystem/measure-population",
              "code": "numerator",
              "display": "Numerator"
            } ]
          },
          "count": 1
        } ],
        "measureScore": {
          "value": 0.0
        }
      } ],
      "evaluatedResource": [ {
        "reference": "Patient/525e73f2-77be-49b1-920f-6fc31ef38d22"
      }, {
        "reference": "Encounter/4001ea12-7207-42e9-811d-a58a349e947b"
      }, {
        "reference": "Coverage/422c97d2-6fc5-412e-bb2e-cfbcdf4d5969"
      }, {
        "reference": "MedicationRequest/32e516df-cf74-4616-bea6-0efb073e4f53"
      }, {
        "reference": "Task/67c514f1-edfc-4e64-9aae-2c58011dfeb4"
      }, {
        "reference": "Organization/96bcc8a3-5d61-49bd-9a87-820c6c4da5a5"
      }, {
        "reference": "Practitioner/8ce3bacf-117b-463d-8411-f7d1d002ef27"
      } ]
    },
    "request": {
      "method": "PUT",
      "url": "MeasureReport/9cb7f213-6011-4f8b-be16-010172559897"
    }
  } ]
}