{
  "resourceType": "Bundle",
  "id": "6359776b6aee9629c8298235",
  "type": "transaction",
  "entry": [ {
    "fullUrl": "https://madie.cms.gov/Patient/34de40ad-a4f3-471b-be6d-825e2b4df485",
    "resource": {
      "resourceType": "Patient",
      "id": "34de40ad-a4f3-471b-be6d-825e2b4df485",
      "meta": {
        "profile": [ "http://hl7.org/fhir/us/qicore/StructureDefinition/qicore-patient" ]
      },
      "text": {
        "status": "generated",
        "div": "<div xmlns=\"http://www.w3.org/1999/xhtml\"><div class=\"hapiHeaderText\">2HCT1stisNull2ndIsGood<b>RISKFail</b></div><table class=\"hapiPropertyTable\"><tbody><tr><td>Date of birth</td><td><span>01 February 2004</span></td></tr></tbody></table></div>"
      },
      "extension": [ {
        "url": "http://hl7.org/fhir/us/core/StructureDefinition/us-core-race",
        "extension": [ {
          "url": "ombCategory",
          "valueCoding": {
            "system": "urn:oid:2.16.840.1.113883.6.238",
            "code": "1002-5",
            "display": "American Indian or Alaska Native",
            "userSelected": true
          }
        }, {
          "url": "text",
          "valueString": "American Indian or Alaska Native"
        } ]
      }, {
        "url": "http://hl7.org/fhir/us/core/StructureDefinition/us-core-ethnicity",
        "extension": [ {
          "url": "ombCategory",
          "valueCoding": {
            "system": "urn:oid:2.16.840.1.113883.6.238",
            "code": "2135-2",
            "display": "Hispanic or Latino",
            "userSelected": true
          }
        }, {
          "url": "text",
          "valueString": "Hispanic or Latino"
        } ]
      } ],
      "identifier": [ {
        "type": {
          "coding": [ {
            "system": "http://terminology.hl7.org/CodeSystem/v2-0203",
            "code": "MR"
          } ]
        },
        "system": "https://bonnie-fhir.healthit.gov/",
        "value": "6359776b6aee9629c8298235"
      } ],
      "active": true,
      "name": [ {
        "use": "usual",
        "family": "RISKFail",
        "given": [ "2HCT1stisNull2ndIsGood" ]
      } ],
      "gender": "female",
      "birthDate": "2005-02-01"
    },
    "request": {
      "method": "PUT",
      "url": "Patient/34de40ad-a4f3-471b-be6d-825e2b4df485"
    }
  }, {
    "fullUrl": "https://madie.cms.gov/Observation/6b2edd4c-9b13-4ea0-abfe-dc0cbc84cbc4",
    "resource": {
      "resourceType": "Observation",
      "id": "6b2edd4c-9b13-4ea0-abfe-dc0cbc84cbc4",
      "meta": {
        "profile": [ "http://hl7.org/fhir/us/qicore/StructureDefinition/qicore-simple-observation" ]
      },
      "status": "final",
      "category": [ {
        "coding": [ {
          "system": "http://terminology.hl7.org/CodeSystem/observation-category",
          "code": "exam",
          "display": "exam",
          "userSelected": true
        } ]
      } ],
      "code": {
        "coding": [ {
          "system": "http://loinc.org",
          "code": "93857-1"
        } ]
      },
      "subject": {
        "reference": "Patient/34de40ad-a4f3-471b-be6d-825e2b4df485"
      },
      "effectiveDateTime": "2026-02-01T08:15:00.000+00:00",
      "performer": [ {
        "reference": "Organization/example1",
        "display": "Hendricks Country Hospital"
      } ],
      "valueDateTime": "2026-02-01T08:15:00.000+00:00"
    },
    "request": {
      "method": "PUT",
      "url": "Observation/6b2edd4c-9b13-4ea0-abfe-dc0cbc84cbc4"
    }
  }, {
    "fullUrl": "https://madie.cms.gov/Condition/0d6dd1b5-ce67-4cf6-bb5a-f10a6fc1781d",
    "resource": {
      "resourceType": "Condition",
      "id": "0d6dd1b5-ce67-4cf6-bb5a-f10a6fc1781d",
      "meta": {
        "profile": [ "http://hl7.org/fhir/us/qicore/StructureDefinition/qicore-condition-encounter-diagnosis" ]
      },
      "category": [ {
        "coding": [ {
          "system": "http://terminology.hl7.org/CodeSystem/condition-category",
          "code": "encounter-diagnosis",
          "display": "Encounter Diagnosis"
        } ]
      } ],
      "code": {
        "coding": [ {
          "system": "http://hl7.org/fhir/sid/icd-10-cm",
          "version": "2023",
          "code": "Z3A.21",
          "display": "21 weeks gestation",
          "userSelected": true
        } ]
      },
      "subject": {
        "reference": "Patient/34de40ad-a4f3-471b-be6d-825e2b4df485"
      },
      "recordedDate": "2026-10-26T08:00:00.000+00:00"
    },
    "request": {
      "method": "PUT",
      "url": "Condition/0d6dd1b5-ce67-4cf6-bb5a-f10a6fc1781d"
    }
  }, {
    "fullUrl": "https://madie.cms.gov/Encounter/e5e8b141-49ec-4797-a39b-60688d31ddc7",
    "resource": {
      "resourceType": "Encounter",
      "id": "e5e8b141-49ec-4797-a39b-60688d31ddc7",
      "meta": {
        "profile": [ "http://hl7.org/fhir/us/qicore/StructureDefinition/qicore-encounter" ]
      },
      "status": "finished",
      "class": {
        "system": "http://terminology.hl7.org/CodeSystem/v3-ActCode",
        "code": "IMP",
        "display": "inpatient encounter"
      },
      "type": [ {
        "coding": [ {
          "system": "http://snomed.info/sct",
          "code": "183452005"
        } ]
      } ],
      "subject": {
        "reference": "Patient/34de40ad-a4f3-471b-be6d-825e2b4df485"
      },
      "period": {
        "start": "2026-02-01T08:00:00.000+00:00",
        "end": "2026-02-05T08:15:00.000+00:00"
      },
      "reasonReference": [ {
        "reference": "Condition/0d6dd1b5-ce67-4cf6-bb5a-f10a6fc1781d"
      } ]
    },
    "request": {
      "method": "PUT",
      "url": "Encounter/e5e8b141-49ec-4797-a39b-60688d31ddc7"
    }
  }, {
    "fullUrl": "https://madie.cms.gov/Encounter/7c9aaea6-73d8-4b83-bb7c-b8979da565e3",
    "resource": {
      "resourceType": "Encounter",
      "id": "7c9aaea6-73d8-4b83-bb7c-b8979da565e3",
      "meta": {
        "profile": [ "http://hl7.org/fhir/us/qicore/StructureDefinition/qicore-encounter" ]
      },
      "status": "finished",
      "class": {
        "system": "http://terminology.hl7.org/CodeSystem/v3-ActCode",
        "code": "EMER",
        "display": "emergency"
      },
      "type": [ {
        "coding": [ {
          "system": "http://snomed.info/sct",
          "code": "4525004"
        } ]
      } ],
      "subject": {
        "reference": "Patient/34de40ad-a4f3-471b-be6d-825e2b4df485"
      },
      "period": {
        "start": "2026-02-01T07:00:00.000+00:00",
        "end": "2026-02-01T07:59:00.000+00:00"
      }
    },
    "request": {
      "method": "PUT",
      "url": "Encounter/7c9aaea6-73d8-4b83-bb7c-b8979da565e3"
    }
  }, {
    "fullUrl": "https://madie.cms.gov/Procedure/ce077d15-e6a8-43f9-9e54-c56ab1d2b892",
    "resource": {
      "resourceType": "Procedure",
      "id": "ce077d15-e6a8-43f9-9e54-c56ab1d2b892",
      "meta": {
        "profile": [ "http://hl7.org/fhir/us/qicore/StructureDefinition/qicore-procedure" ]
      },
      "extension": [ {
        "url": "http://hl7.org/fhir/us/qicore/StructureDefinition/qicore-recorded",
        "valueDateTime": "2026-02-04T13:35:00.000+00:00"
      } ],
      "status": "completed",
      "code": {
        "coding": [ {
          "system": "http://snomed.info/sct",
          "code": "10745001"
        } ]
      },
      "subject": {
        "reference": "Patient/34de40ad-a4f3-471b-be6d-825e2b4df485"
      },
      "performedPeriod": {
        "start": "2026-02-01T08:00:00.000+00:00",
        "end": "2026-02-05T08:15:00.000+00:00"
      }
    },
    "request": {
      "method": "PUT",
      "url": "Procedure/ce077d15-e6a8-43f9-9e54-c56ab1d2b892"
    }
  }, {
    "fullUrl": "https://madie.cms.gov/Observation/ff9466b5-617c-44b8-ba58-9dc2776cc310",
    "resource": {
      "resourceType": "Observation",
      "id": "ff9466b5-617c-44b8-ba58-9dc2776cc310",
      "meta": {
        "profile": [ "http://hl7.org/fhir/us/qicore/StructureDefinition/qicore-observation-lab" ]
      },
      "status": "final",
      "category": [ {
        "coding": [ {
          "system": "http://terminology.hl7.org/CodeSystem/observation-category",
          "code": "laboratory",
          "display": "laboratory",
          "userSelected": true
        } ]
      } ],
      "code": {
        "coding": [ {
          "system": "http://loinc.org",
          "version": "2.73",
          "code": "20570-8",
          "display": "Hematocrit [Volume Fraction] in Blood",
          "userSelected": true
        } ]
      },
      "subject": {
        "reference": "Patient/34de40ad-a4f3-471b-be6d-825e2b4df485"
      },
      "effectiveDateTime": "2026-02-01T08:01:00.000+00:00",
      "issued": "2026-02-01T08:01:00.000+00:00",
      "valueQuantity": {
        "unit": "%"
      }
    },
    "request": {
      "method": "PUT",
      "url": "Observation/ff9466b5-617c-44b8-ba58-9dc2776cc310"
    }
  }, {
    "fullUrl": "https://madie.cms.gov/Observation/ff9466b5-617c-44b8-ba58-9dc2776cc310-b",
    "resource": {
      "resourceType": "Observation",
      "id": "ff9466b5-617c-44b8-ba58-9dc2776cc310-b",
      "meta": {
        "profile": [ "http://hl7.org/fhir/us/core/StructureDefinition/us-core-observation-lab" ]
      },
      "status": "final",
      "category": [ {
        "coding": [ {
          "system": "http://terminology.hl7.org/CodeSystem/observation-category",
          "code": "laboratory",
          "display": "laboratory",
          "userSelected": true
        } ]
      } ],
      "code": {
        "coding": [ {
          "system": "http://loinc.org",
          "version": "2.73",
          "code": "20570-8",
          "display": "Hematocrit [Volume Fraction] in Blood",
          "userSelected": true
        } ]
      },
      "subject": {
        "reference": "Patient/34de40ad-a4f3-471b-be6d-825e2b4df485"
      },
      "effectiveDateTime": "2026-02-01T08:02:00.000+00:00",
      "issued": "2026-02-01T08:02:00.000+00:00",
      "valueQuantity": {
        "value": 20,
        "unit": "%"
      }
    },
    "request": {
      "method": "PUT",
      "url": "Observation/ff9466b5-617c-44b8-ba58-9dc2776cc310-b"
    }
  }, {
    "fullUrl": "https://madie.cms.gov/MeasureReport/4a90b9ce-e385-474d-a2e5-63b786a1498f",
    "resource": {
      "resourceType": "MeasureReport",
      "id": "4a90b9ce-e385-474d-a2e5-63b786a1498f",
      "meta": {
        "profile": [ "http://hl7.org/fhir/us/cqfmeasures/StructureDefinition/test-case-cqfm" ]
      },
      "contained": [ {
        "resourceType": "Parameters",
        "id": "6ca6768e-a270-4949-af85-ee64809ee9da-parameters",
        "parameter": [ {
          "name": "subject",
          "valueString": "34de40ad-a4f3-471b-be6d-825e2b4df485"
        } ]
      } ],
      "extension": [ {
        "url": "http://hl7.org/fhir/StructureDefinition/cqf-inputParameters",
        "valueReference": {
          "reference": "#6ca6768e-a270-4949-af85-ee64809ee9da-parameters"
        }
      }, {
        "url": "http://hl7.org/fhir/us/cqfmeasures/StructureDefinition/cqfm-testCaseDescription",
        "valueMarkdown": "2 hematocrits.  1st value is null, 2nd is good."
      } ],
      "modifierExtension": [ {
        "url": "http://hl7.org/fhir/us/cqfmeasures/StructureDefinition/cqfm-isTestCase",
        "valueBoolean": true
      } ],
      "status": "complete",
      "type": "individual",
      "measure": "https://madie.cms.gov/Measure/CMS1028FHIRPCSevereOBComps",
      "period": {
        "start": "2026-01-01",
        "end": "2026-12-31"
      },
      "group": [ {
        "id": "Group_1",
        "population": [ {
          "id": "InitialPopulation_1",
          "code": {
            "coding": [ {
              "system": "http://terminology.hl7.org/CodeSystem/measure-population",
              "code": "initial-population",
              "display": "Initial Population"
            } ]
          },
          "count": 1
        }, {
          "id": "Denominator_1",
          "code": {
            "coding": [ {
              "system": "http://terminology.hl7.org/CodeSystem/measure-population",
              "code": "denominator",
              "display": "Denominator"
            } ]
          },
          "count": 1
        }, {
          "id": "Numerator_1",
          "code": {
            "coding": [ {
              "system": "http://terminology.hl7.org/CodeSystem/measure-population",
              "code": "numerator",
              "display": "Numerator"
            } ]
          },
          "count": 0
        }, {
          "id": "NumeratorExclusion_1",
          "code": {
            "coding": [ {
              "system": "http://terminology.hl7.org/CodeSystem/measure-population",
              "code": "numerator-exclusion",
              "display": "Numerator Exclusion"
            } ]
          },
          "count": 0
        } ],
        "measureScore": {
          "value": 0.0
        }
      }, {
        "id": "Group_2",
        "population": [ {
          "id": "InitialPopulation_2",
          "code": {
            "coding": [ {
              "system": "http://terminology.hl7.org/CodeSystem/measure-population",
              "code": "initial-population",
              "display": "Initial Population"
            } ]
          },
          "count": 1
        }, {
          "id": "Denominator_2",
          "code": {
            "coding": [ {
              "system": "http://terminology.hl7.org/CodeSystem/measure-population",
              "code": "denominator",
              "display": "Denominator"
            } ]
          },
          "count": 1
        }, {
          "id": "Numerator_2",
          "code": {
            "coding": [ {
              "system": "http://terminology.hl7.org/CodeSystem/measure-population",
              "code": "numerator",
              "display": "Numerator"
            } ]
          },
          "count": 0
        }, {
          "id": "NumeratorExclusion_2",
          "code": {
            "coding": [ {
              "system": "http://terminology.hl7.org/CodeSystem/measure-population",
              "code": "numerator-exclusion",
              "display": "Numerator Exclusion"
            } ]
          },
          "count": 0
        } ],
        "measureScore": {
          "value": 0.0
        }
      } ],
      "evaluatedResource": [ {
        "reference": "Patient/34de40ad-a4f3-471b-be6d-825e2b4df485"
      }, {
        "reference": "Observation/6b2edd4c-9b13-4ea0-abfe-dc0cbc84cbc4"
      }, {
        "reference": "Condition/0d6dd1b5-ce67-4cf6-bb5a-f10a6fc1781d"
      }, {
        "reference": "Encounter/e5e8b141-49ec-4797-a39b-60688d31ddc7"
      }, {
        "reference": "Encounter/7c9aaea6-73d8-4b83-bb7c-b8979da565e3"
      }, {
        "reference": "Procedure/ce077d15-e6a8-43f9-9e54-c56ab1d2b892"
      }, {
        "reference": "Observation/ff9466b5-617c-44b8-ba58-9dc2776cc310"
      }, {
        "reference": "Observation/ff9466b5-617c-44b8-ba58-9dc2776cc310-b"
      } ]
    },
    "request": {
      "method": "PUT",
      "url": "MeasureReport/4a90b9ce-e385-474d-a2e5-63b786a1498f"
    }
  } ]
}