{
  "resourceType": "Bundle",
  "id": "1977yae12ah8t63756a58e5",
  "type": "transaction",
  "entry": [ {
    "fullUrl": "https://madie.cms.gov/Patient/029865cf-b060-4024-be84-bb902726c25e",
    "resource": {
      "resourceType": "Patient",
      "id": "029865cf-b060-4024-be84-bb902726c25e",
      "meta": {
        "profile": [ "http://hl7.org/fhir/us/qicore/StructureDefinition/qicore-patient" ]
      },
      "extension": [ {
        "url": "http://hl7.org/fhir/us/core/StructureDefinition/us-core-ethnicity",
        "extension": [ {
          "url": "ombCategory",
          "valueCoding": {
            "system": "urn:oid:2.16.840.1.113883.6.238",
            "code": "2135-2",
            "display": "Hispanic or Latino",
            "userSelected": true
          }
        }, {
          "url": "text",
          "valueString": "Hispanic or Latino"
        } ]
      } ],
      "identifier": [ {
        "system": "http://hospital.smarthealthit.org",
        "value": "999999999"
      } ],
      "name": [ {
        "family": "NUMERFail",
        "given": [ "3Opioids1B4Enc1AtDC1AfterDC" ]
      } ],
      "gender": "female",
      "birthDate": "1981-04-03"
    },
    "request": {
      "method": "PUT",
      "url": "Patient/029865cf-b060-4024-be84-bb902726c25e"
    }
  }, {
    "fullUrl": "https://madie.cms.gov/Encounter/293d5031-a127-44f8-8e20-7d701b90ca35",
    "resource": {
      "resourceType": "Encounter",
      "id": "293d5031-a127-44f8-8e20-7d701b90ca35",
      "meta": {
        "profile": [ "http://hl7.org/fhir/us/qicore/StructureDefinition/qicore-encounter" ]
      },
      "status": "finished",
      "class": {
        "system": "http://terminology.hl7.org/CodeSystem/v3-ActCode",
        "code": "IMP",
        "display": "inpatient encounter"
      },
      "type": [ {
        "coding": [ {
          "system": "http://snomed.info/sct",
          "code": "32485007",
          "display": "Hospital admission (procedure)",
          "userSelected": true
        } ]
      } ],
      "subject": {
        "reference": "Patient/029865cf-b060-4024-be84-bb902726c25e"
      },
      "period": {
        "start": "2026-07-10T17:30:00.000+00:00",
        "end": "2026-07-12T18:00:00.000+00:00"
      }
    },
    "request": {
      "method": "PUT",
      "url": "Encounter/293d5031-a127-44f8-8e20-7d701b90ca35"
    }
  }, {
    "fullUrl": "https://madie.cms.gov/MedicationRequest/2f39b853-a71d-460c-94b8-f2056b84b2af",
    "resource": {
      "resourceType": "MedicationRequest",
      "id": "2f39b853-a71d-460c-94b8-f2056b84b2af",
      "meta": {
        "profile": [ "http://hl7.org/fhir/us/qicore/StructureDefinition/qicore-medicationrequest" ]
      },
      "status": "completed",
      "intent": "order",
      "category": [ {
        "coding": [ {
          "system": "http://terminology.hl7.org/CodeSystem/medicationrequest-category",
          "code": "community",
          "display": "Community",
          "userSelected": true
        } ]
      } ],
      "doNotPerform": false,
      "medicationCodeableConcept": {
        "coding": [ {
          "system": "http://www.nlm.nih.gov/research/umls/rxnorm",
          "code": "833709",
          "display": "24 HR tramadol hydrochloride 100 MG Extended Release Oral Tablet",
          "userSelected": true
        } ]
      },
      "subject": {
        "reference": "Patient/029865cf-b060-4024-be84-bb902726c25e"
      },
      "authoredOn": "2026-07-13T12:00:00.000+00:00",
      "requester": {
        "reference": "Practitioner/2675d1b0-1e3d-4d9b-a303-f669d745f6cd"
      }
    },
    "request": {
      "method": "PUT",
      "url": "MedicationRequest/2f39b853-a71d-460c-94b8-f2056b84b2af"
    }
  }, {
    "fullUrl": "https://madie.cms.gov/MedicationRequest/4e222ae5-9078-4c83-b96c-8212244cd4eb",
    "resource": {
      "resourceType": "MedicationRequest",
      "id": "4e222ae5-9078-4c83-b96c-8212244cd4eb",
      "meta": {
        "profile": [ "http://hl7.org/fhir/us/qicore/StructureDefinition/qicore-medicationrequest" ]
      },
      "status": "active",
      "intent": "reflex-order",
      "category": [ {
        "coding": [ {
          "system": "http://terminology.hl7.org/CodeSystem/medicationrequest-category",
          "code": "discharge",
          "display": "Discharge",
          "userSelected": true
        } ]
      } ],
      "doNotPerform": false,
      "medicationCodeableConcept": {
        "coding": [ {
          "system": "http://www.nlm.nih.gov/research/umls/rxnorm",
          "code": "1014599",
          "display": "acetaminophen 300 MG / oxycodone hydrochloride 10 MG Oral Tablet",
          "userSelected": true
        } ]
      },
      "subject": {
        "reference": "Patient/029865cf-b060-4024-be84-bb902726c25e"
      },
      "authoredOn": "2026-07-12T17:30:00.000+00:00",
      "requester": {
        "reference": "Practitioner/2675d1b0-1e3d-4d9b-a303-f669d745f6cd"
      }
    },
    "request": {
      "method": "PUT",
      "url": "MedicationRequest/4e222ae5-9078-4c83-b96c-8212244cd4eb"
    }
  }, {
    "fullUrl": "https://madie.cms.gov/MedicationRequest/056880ab-9f83-4e5a-a207-bcfa7d7357f2",
    "resource": {
      "resourceType": "MedicationRequest",
      "id": "056880ab-9f83-4e5a-a207-bcfa7d7357f2",
      "meta": {
        "profile": [ "http://hl7.org/fhir/us/qicore/StructureDefinition/qicore-medicationrequest" ]
      },
      "status": "active",
      "intent": "reflex-order",
      "category": [ {
        "coding": [ {
          "system": "http://terminology.hl7.org/CodeSystem/medicationrequest-category",
          "code": "discharge",
          "display": "Discharge",
          "userSelected": true
        } ]
      } ],
      "doNotPerform": false,
      "medicationCodeableConcept": {
        "coding": [ {
          "system": "http://www.nlm.nih.gov/research/umls/rxnorm",
          "code": "1014599",
          "display": "acetaminophen 300 MG / oxycodone hydrochloride 10 MG Oral Tablet",
          "userSelected": true
        } ]
      },
      "subject": {
        "reference": "Patient/029865cf-b060-4024-be84-bb902726c25e"
      },
      "authoredOn": "2025-12-23T10:00:00.000+00:00",
      "requester": {
        "reference": "Practitioner/2675d1b0-1e3d-4d9b-a303-f669d745f6cd"
      }
    },
    "request": {
      "method": "PUT",
      "url": "MedicationRequest/056880ab-9f83-4e5a-a207-bcfa7d7357f2"
    }
  }, {
    "fullUrl": "https://madie.cms.gov/Practitioner/2675d1b0-1e3d-4d9b-a303-f669d745f6cd",
    "resource": {
      "resourceType": "Practitioner",
      "id": "2675d1b0-1e3d-4d9b-a303-f669d745f6cd",
      "meta": {
        "profile": [ "http://hl7.org/fhir/us/qicore/StructureDefinition/qicore-practitioner" ]
      },
      "identifier": [ {
        "system": "http://hl7.org/fhir/sid/us-npi",
        "value": "9999999896"
      } ],
      "active": true,
      "name": [ {
        "family": "Ramires",
        "given": [ "Alma" ],
        "prefix": [ "Dr" ]
      } ],
      "address": [ {
        "use": "home",
        "line": [ "534 Erewhon St" ],
        "city": "Netherville",
        "state": "IN",
        "postalCode": "46131"
      } ],
      "qualification": [ {
        "identifier": [ {
          "system": "http://goodhealth.org/prIdentifier",
          "value": "12345"
        } ],
        "code": {
          "coding": [ {
            "system": "http://terminology.hl7.org/CodeSystem/v2-0360|2.7",
            "code": "BS",
            "display": "Bachelor of Science"
          } ],
          "text": "Bachelor of Science"
        },
        "period": {
          "start": "1995"
        },
        "issuer": {
          "display": "Example University"
        }
      } ]
    },
    "request": {
      "method": "PUT",
      "url": "Practitioner/2675d1b0-1e3d-4d9b-a303-f669d745f6cd"
    }
  }, {
    "fullUrl": "https://madie.cms.gov/Coverage/bb43f350-5542-4255-afae-d0470aa118c5",
    "resource": {
      "resourceType": "Coverage",
      "id": "bb43f350-5542-4255-afae-d0470aa118c5",
      "meta": {
        "profile": [ "http://hl7.org/fhir/us/qicore/StructureDefinition/qicore-coverage" ]
      },
      "status": "active",
      "subscriberId": "523435",
      "beneficiary": {
        "reference": "Patient/029865cf-b060-4024-be84-bb902726c25e"
      },
      "relationship": {
        "coding": [ {
          "system": "http://terminology.hl7.org/CodeSystem/subscriber-relationship",
          "code": "self"
        } ]
      },
      "payor": [ {
        "reference": "Organization/db7783c3-b32f-4b67-be79-874bce2871fd"
      } ]
    },
    "request": {
      "method": "PUT",
      "url": "Coverage/bb43f350-5542-4255-afae-d0470aa118c5"
    }
  }, {
    "fullUrl": "https://madie.cms.gov/Organization/db7783c3-b32f-4b67-be79-874bce2871fd",
    "resource": {
      "resourceType": "Organization",
      "id": "db7783c3-b32f-4b67-be79-874bce2871fd",
      "meta": {
        "profile": [ "http://hl7.org/fhir/us/qicore/StructureDefinition/qicore-organization" ]
      },
      "identifier": [ {
        "use": "temp",
        "system": "urn:oid:2.16.840.1.113883.4.4",
        "value": "21-3259825"
      } ],
      "active": true,
      "type": [ {
        "coding": [ {
          "system": "http://terminology.hl7.org/CodeSystem/organization-type",
          "code": "pay",
          "display": "Payer"
        } ]
      } ],
      "name": "Blue Cross Blue Shield of Texas",
      "telecom": [ {
        "system": "phone",
        "value": "(+1) 972-766-6900"
      } ],
      "address": [ {
        "use": "billing",
        "type": "postal",
        "line": [ "P.O. Box 660044" ],
        "city": "Dallas",
        "state": "TX",
        "postalCode": "75266-0044",
        "country": "USA"
      } ]
    },
    "request": {
      "method": "PUT",
      "url": "Organization/db7783c3-b32f-4b67-be79-874bce2871fd"
    }
  }, {
    "fullUrl": "https://madie.cms.gov/MeasureReport/42d09cd8-a057-4911-bc2c-0ac6a5925494",
    "resource": {
      "resourceType": "MeasureReport",
      "id": "42d09cd8-a057-4911-bc2c-0ac6a5925494",
      "meta": {
        "profile": [ "http://hl7.org/fhir/us/cqfmeasures/StructureDefinition/test-case-cqfm" ]
      },
      "contained": [ {
        "resourceType": "Parameters",
        "id": "10a7417a-1d3f-4be7-9906-448bc3ef78e5-parameters",
        "parameter": [ {
          "name": "subject",
          "valueString": "029865cf-b060-4024-be84-bb902726c25e"
        } ]
      } ],
      "extension": [ {
        "url": "http://hl7.org/fhir/StructureDefinition/cqf-inputParameters",
        "valueReference": {
          "reference": "#10a7417a-1d3f-4be7-9906-448bc3ef78e5-parameters"
        }
      }, {
        "url": "http://hl7.org/fhir/us/cqfmeasures/StructureDefinition/cqfm-testCaseDescription",
        "valueMarkdown": "Correct age, Encounter-1 on 7/10 1730 - 7/12 1800 during MP, MedReq-1 opioid at discharge 7/12, MedReq-2 opioid added after discharge 7/13, MedReq-3 opioid 12/23 of prev year"
      } ],
      "modifierExtension": [ {
        "url": "http://hl7.org/fhir/us/cqfmeasures/StructureDefinition/cqfm-isTestCase",
        "valueBoolean": true
      } ],
      "status": "complete",
      "type": "individual",
      "measure": "https://madie.cms.gov/Measure/CMS506FHIRSafeUseofOpioids",
      "period": {
        "start": "2026-01-01",
        "end": "2026-12-31"
      },
      "group": [ {
        "id": "Group_1",
        "population": [ {
          "id": "InitialPopulation_1",
          "code": {
            "coding": [ {
              "system": "http://terminology.hl7.org/CodeSystem/measure-population",
              "code": "initial-population",
              "display": "Initial Population"
            } ]
          },
          "count": 1
        }, {
          "id": "Denominator_1",
          "code": {
            "coding": [ {
              "system": "http://terminology.hl7.org/CodeSystem/measure-population",
              "code": "denominator",
              "display": "Denominator"
            } ]
          },
          "count": 1
        }, {
          "id": "DenominatorExclusion_1",
          "code": {
            "coding": [ {
              "system": "http://terminology.hl7.org/CodeSystem/measure-population",
              "code": "denominator-exclusion",
              "display": "Denominator Exclusion"
            } ]
          },
          "count": 0
        }, {
          "id": "Numerator_1",
          "code": {
            "coding": [ {
              "system": "http://terminology.hl7.org/CodeSystem/measure-population",
              "code": "numerator",
              "display": "Numerator"
            } ]
          },
          "count": 0
        } ],
        "measureScore": {
          "value": 0.0
        }
      } ],
      "evaluatedResource": [ {
        "reference": "Patient/029865cf-b060-4024-be84-bb902726c25e"
      }, {
        "reference": "Encounter/293d5031-a127-44f8-8e20-7d701b90ca35"
      }, {
        "reference": "MedicationRequest/2f39b853-a71d-460c-94b8-f2056b84b2af"
      }, {
        "reference": "MedicationRequest/4e222ae5-9078-4c83-b96c-8212244cd4eb"
      }, {
        "reference": "MedicationRequest/056880ab-9f83-4e5a-a207-bcfa7d7357f2"
      }, {
        "reference": "Practitioner/2675d1b0-1e3d-4d9b-a303-f669d745f6cd"
      }, {
        "reference": "Coverage/bb43f350-5542-4255-afae-d0470aa118c5"
      }, {
        "reference": "Organization/db7783c3-b32f-4b67-be79-874bce2871fd"
      } ]
    },
    "request": {
      "method": "PUT",
      "url": "MeasureReport/42d09cd8-a057-4911-bc2c-0ac6a5925494"
    }
  } ]
}