{
  "resourceType": "Bundle",
  "id": "Patient-8-DENEXFail-ComorbidDiag2YearsB4EDate",
  "type": "transaction",
  "entry": [ {
    "fullUrl": "https://madie.cms.gov/Patient/103c428d-a79d-41b6-8c5d-d629f028d045",
    "resource": {
      "resourceType": "Patient",
      "id": "103c428d-a79d-41b6-8c5d-d629f028d045",
      "meta": {
        "profile": [ "http://hl7.org/fhir/us/qicore/StructureDefinition/qicore-patient" ]
      },
      "extension": [ {
        "url": "http://hl7.org/fhir/us/core/StructureDefinition/us-core-race",
        "extension": [ {
          "url": "ombCategory",
          "valueCoding": {
            "system": "urn:oid:2.16.840.1.113883.6.238",
            "code": "2028-9",
            "display": "Asian"
          }
        }, {
          "url": "text",
          "valueString": "Asian"
        } ]
      }, {
        "url": "http://hl7.org/fhir/us/core/StructureDefinition/us-core-ethnicity",
        "extension": [ {
          "url": "ombCategory",
          "valueCoding": {
            "system": "urn:oid:2.16.840.1.113883.6.238",
            "code": "2135-2",
            "display": "Hispanic or Latino"
          }
        }, {
          "url": "text",
          "valueString": "Hispanic or Latino"
        } ]
      } ],
      "identifier": [ {
        "system": "http://hospital.smarthealthit.org",
        "value": "999999995"
      } ],
      "name": [ {
        "family": "Bertha",
        "given": [ "Betty" ]
      } ],
      "gender": "female",
      "birthDate": "1961-01-01"
    },
    "request": {
      "method": "PUT",
      "url": "Patient/103c428d-a79d-41b6-8c5d-d629f028d045"
    }
  }, {
    "fullUrl": "https://madie.cms.gov/Encounter/58856506-0fc5-46a4-845f-fdb174af6483",
    "resource": {
      "resourceType": "Encounter",
      "id": "58856506-0fc5-46a4-845f-fdb174af6483",
      "meta": {
        "profile": [ "http://hl7.org/fhir/us/qicore/StructureDefinition/qicore-encounter" ]
      },
      "status": "finished",
      "class": {
        "system": "http://terminology.hl7.org/CodeSystem/v3-ActCode",
        "code": "AMB",
        "display": "ambulatory"
      },
      "type": [ {
        "coding": [ {
          "system": "http://snomed.info/sct",
          "code": "185317003",
          "display": "Telephone encounter (procedure)"
        } ]
      } ],
      "subject": {
        "reference": "Patient/103c428d-a79d-41b6-8c5d-d629f028d045"
      },
      "period": {
        "start": "2026-01-02T00:00:00.000+00:00",
        "end": "2026-01-02T01:15:00.000+00:00"
      }
    },
    "request": {
      "method": "PUT",
      "url": "Encounter/58856506-0fc5-46a4-845f-fdb174af6483"
    }
  }, {
    "fullUrl": "https://madie.cms.gov/MedicationRequest/83572d5d-9a2d-422e-9229-95b5a8772a46",
    "resource": {
      "resourceType": "MedicationRequest",
      "id": "83572d5d-9a2d-422e-9229-95b5a8772a46",
      "meta": {
        "profile": [ "http://hl7.org/fhir/us/qicore/StructureDefinition/qicore-medicationrequest" ]
      },
      "status": "active",
      "intent": "order",
      "category": [ {
        "coding": [ {
          "system": "http://terminology.hl7.org/CodeSystem/medicationrequest-category",
          "code": "discharge",
          "display": "Discharge"
        } ]
      } ],
      "medicationCodeableConcept": {
        "coding": [ {
          "system": "http://www.nlm.nih.gov/research/umls/rxnorm",
          "code": "1043022",
          "display": "cefixime 100 MG Chewable Tablet",
          "userSelected": true
        } ]
      },
      "subject": {
        "reference": "Patient/103c428d-a79d-41b6-8c5d-d629f028d045"
      },
      "authoredOn": "2026-01-04T00:00:00.000+00:00",
      "requester": {
        "reference": "Practitioner/example"
      }
    },
    "request": {
      "method": "PUT",
      "url": "MedicationRequest/83572d5d-9a2d-422e-9229-95b5a8772a46"
    }
  }, {
    "fullUrl": "https://madie.cms.gov/Condition/8a89d880-fc81-487b-824b-916d8a7a0c61",
    "resource": {
      "resourceType": "Condition",
      "id": "8a89d880-fc81-487b-824b-916d8a7a0c61",
      "meta": {
        "profile": [ "http://hl7.org/fhir/us/qicore/StructureDefinition/qicore-condition" ]
      },
      "clinicalStatus": {
        "coding": [ {
          "system": "http://terminology.hl7.org/CodeSystem/condition-clinical",
          "code": "active"
        } ]
      },
      "category": [ {
        "coding": [ {
          "system": "http://terminology.hl7.org/CodeSystem/condition-category",
          "code": "problem-list-item",
          "display": "Problem List Item"
        } ]
      } ],
      "code": {
        "coding": [ {
          "system": "http://snomed.info/sct",
          "code": "10041001",
          "display": "Tracheal stenosis following tracheostomy (disorder)"
        } ]
      },
      "subject": {
        "reference": "Patient/103c428d-a79d-41b6-8c5d-d629f028d045"
      },
      "onsetDateTime": "2024-01-02T00:00:00.000+00:00"
    },
    "request": {
      "method": "PUT",
      "url": "Condition/8a89d880-fc81-487b-824b-916d8a7a0c61"
    }
  }, {
    "fullUrl": "https://madie.cms.gov/Condition/bd81b8a7-296d-4a11-a71b-40b73e630564",
    "resource": {
      "resourceType": "Condition",
      "id": "bd81b8a7-296d-4a11-a71b-40b73e630564",
      "meta": {
        "profile": [ "http://hl7.org/fhir/us/qicore/StructureDefinition/qicore-condition-encounter-diagnosis" ]
      },
      "clinicalStatus": {
        "coding": [ {
          "system": "http://terminology.hl7.org/CodeSystem/condition-clinical",
          "code": "active"
        } ]
      },
      "category": [ {
        "coding": [ {
          "system": "http://terminology.hl7.org/CodeSystem/condition-category",
          "code": "encounter-diagnosis",
          "display": "Encounter Diagnosis"
        } ]
      } ],
      "code": {
        "coding": [ {
          "system": "http://snomed.info/sct",
          "code": "1532007",
          "display": "Viral pharyngitis (disorder)"
        } ]
      },
      "subject": {
        "reference": "Patient/103c428d-a79d-41b6-8c5d-d629f028d045"
      },
      "onsetDateTime": "2026-01-02T00:00:00.000+00:00"
    },
    "request": {
      "method": "PUT",
      "url": "Condition/bd81b8a7-296d-4a11-a71b-40b73e630564"
    }
  }, {
    "fullUrl": "https://madie.cms.gov/MeasureReport/b3c62be2-f2ff-4b54-a953-7a742fb8cc1c",
    "resource": {
      "resourceType": "MeasureReport",
      "id": "b3c62be2-f2ff-4b54-a953-7a742fb8cc1c",
      "meta": {
        "profile": [ "http://hl7.org/fhir/us/cqfmeasures/StructureDefinition/test-case-cqfm" ]
      },
      "contained": [ {
        "resourceType": "Parameters",
        "id": "5602982d-6518-489a-81aa-158b885caac6-parameters",
        "parameter": [ {
          "name": "subject",
          "valueString": "103c428d-a79d-41b6-8c5d-d629f028d045"
        } ]
      } ],
      "extension": [ {
        "url": "http://hl7.org/fhir/StructureDefinition/cqf-inputParameters",
        "valueReference": {
          "reference": "#5602982d-6518-489a-81aa-158b885caac6-parameters"
        }
      }, {
        "url": "http://hl7.org/fhir/us/cqfmeasures/StructureDefinition/cqfm-testCaseDescription",
        "valueMarkdown": "Comorbid diagnosis occurs 2 years before episode date."
      } ],
      "modifierExtension": [ {
        "url": "http://hl7.org/fhir/us/cqfmeasures/StructureDefinition/cqfm-isTestCase",
        "valueBoolean": true
      } ],
      "status": "complete",
      "type": "individual",
      "measure": "https://madie.cms.gov/Measure/CMS146FHIRApproTestPharyngitis",
      "period": {
        "start": "2026-01-01",
        "end": "2026-12-31"
      },
      "group": [ {
        "id": "Group_1",
        "population": [ {
          "id": "InitialPopulation_1",
          "code": {
            "coding": [ {
              "system": "http://terminology.hl7.org/CodeSystem/measure-population",
              "code": "initial-population",
              "display": "Initial Population"
            } ]
          },
          "count": 1
        }, {
          "id": "Denominator_1",
          "code": {
            "coding": [ {
              "system": "http://terminology.hl7.org/CodeSystem/measure-population",
              "code": "denominator",
              "display": "Denominator"
            } ]
          },
          "count": 1
        }, {
          "id": "DenominatorExclusion_1",
          "code": {
            "coding": [ {
              "system": "http://terminology.hl7.org/CodeSystem/measure-population",
              "code": "denominator-exclusion",
              "display": "Denominator Exclusion"
            } ]
          },
          "count": 0
        }, {
          "id": "Numerator_1",
          "code": {
            "coding": [ {
              "system": "http://terminology.hl7.org/CodeSystem/measure-population",
              "code": "numerator",
              "display": "Numerator"
            } ]
          },
          "count": 0
        } ],
        "measureScore": {
          "value": 0.0
        },
        "stratifier": [ {
          "id": "Stratification_1_1",
          "code": [ {
            "text": "Strata-1"
          } ],
          "stratum": [ {
            "value": {
              "text": "Strata-1"
            },
            "population": [ {
              "id": "InitialPopulation_1",
              "code": {
                "coding": [ {
                  "system": "http://terminology.hl7.org/CodeSystem/measure-population",
                  "code": "initial-population",
                  "display": "Initial Population"
                } ]
              },
              "count": 1
            } ]
          } ]
        }, {
          "id": "Stratification_1_2",
          "code": [ {
            "text": "Strata-2"
          } ],
          "stratum": [ {
            "value": {
              "text": "Strata-2"
            },
            "population": [ {
              "id": "InitialPopulation_1",
              "code": {
                "coding": [ {
                  "system": "http://terminology.hl7.org/CodeSystem/measure-population",
                  "code": "initial-population",
                  "display": "Initial Population"
                } ]
              },
              "count": 1
            } ]
          } ]
        }, {
          "id": "Stratification_1_3",
          "code": [ {
            "text": "Strata-3"
          } ],
          "stratum": [ {
            "value": {
              "text": "Strata-3"
            },
            "population": [ {
              "id": "InitialPopulation_1",
              "code": {
                "coding": [ {
                  "system": "http://terminology.hl7.org/CodeSystem/measure-population",
                  "code": "initial-population",
                  "display": "Initial Population"
                } ]
              },
              "count": 1
            } ]
          } ]
        } ]
      } ],
      "evaluatedResource": [ {
        "reference": "Patient/103c428d-a79d-41b6-8c5d-d629f028d045"
      }, {
        "reference": "Encounter/58856506-0fc5-46a4-845f-fdb174af6483"
      }, {
        "reference": "MedicationRequest/83572d5d-9a2d-422e-9229-95b5a8772a46"
      }, {
        "reference": "Condition/8a89d880-fc81-487b-824b-916d8a7a0c61"
      }, {
        "reference": "Condition/bd81b8a7-296d-4a11-a71b-40b73e630564"
      } ]
    },
    "request": {
      "method": "PUT",
      "url": "MeasureReport/b3c62be2-f2ff-4b54-a953-7a742fb8cc1c"
    }
  } ]
}