{
  "resourceType": "Bundle",
  "id": "633c9d040968f8012250fca8",
  "type": "transaction",
  "entry": [ {
    "fullUrl": "https://madie.cms.gov/Patient/cc42fc09-d5ed-4ac5-980e-f16279cf0499",
    "resource": {
      "resourceType": "Patient",
      "id": "cc42fc09-d5ed-4ac5-980e-f16279cf0499",
      "meta": {
        "profile": [ "http://hl7.org/fhir/us/qicore/StructureDefinition/qicore-patient" ]
      },
      "text": {
        "status": "generated",
        "div": "<div xmlns=\"http://www.w3.org/1999/xhtml\"><div class=\"hapiHeaderText\">CMOdurED_ED&gt;1hrObs&lt;1hrBFEnc <b>DENEXFAIL </b></div><table class=\"hapiPropertyTable\"><tbody><tr><td>Identifier</td><td>f462825629b56fcd20839ac515dc0513d89bc3fe2bc1172dcd3636bdb9c318c7</td></tr><tr><td>Date of birth</td><td><span>18 September 1985</span></td></tr></tbody></table></div>"
      },
      "extension": [ {
        "url": "http://hl7.org/fhir/us/core/StructureDefinition/us-core-race",
        "extension": [ {
          "url": "ombCategory",
          "valueCoding": {
            "system": "urn:oid:2.16.840.1.113883.6.238",
            "code": "1002-5",
            "display": "American Indian or Alaska Native",
            "userSelected": true
          }
        }, {
          "url": "text",
          "valueString": "American Indian or Alaska Native"
        } ]
      }, {
        "url": "http://hl7.org/fhir/us/core/StructureDefinition/us-core-ethnicity",
        "extension": [ {
          "url": "ombCategory",
          "valueCoding": {
            "system": "urn:oid:2.16.840.1.113883.6.238",
            "code": "2135-2",
            "display": "Hispanic or Latino",
            "userSelected": true
          }
        }, {
          "url": "text",
          "valueString": "Hispanic or Latino"
        } ]
      } ],
      "identifier": [ {
        "type": {
          "coding": [ {
            "system": "http://terminology.hl7.org/CodeSystem/v2-0203",
            "code": "MR"
          } ]
        },
        "system": "https://bonnie-fhir.healthit.gov/",
        "value": "633c9d040968f8012250fca8"
      } ],
      "active": true,
      "name": [ {
        "use": "usual",
        "family": "DENEXFail",
        "given": [ "CMOdurED_ED>1hrObs<1hrBFEnc" ]
      } ],
      "gender": "female",
      "birthDate": "1986-09-18"
    },
    "request": {
      "method": "PUT",
      "url": "Patient/cc42fc09-d5ed-4ac5-980e-f16279cf0499"
    }
  }, {
    "fullUrl": "https://madie.cms.gov/Condition/04977d8a-7732-4a01-a19a-bb16f5e11401",
    "resource": {
      "resourceType": "Condition",
      "id": "04977d8a-7732-4a01-a19a-bb16f5e11401",
      "meta": {
        "profile": [ "http://hl7.org/fhir/us/qicore/StructureDefinition/qicore-condition-problems-health-concerns" ]
      },
      "clinicalStatus": {
        "coding": [ {
          "system": "http://terminology.hl7.org/CodeSystem/condition-clinical",
          "code": "inactive"
        } ]
      },
      "verificationStatus": {
        "coding": [ {
          "system": "http://terminology.hl7.org/CodeSystem/condition-ver-status",
          "code": "confirmed"
        } ]
      },
      "category": [ {
        "coding": [ {
          "system": "http://terminology.hl7.org/CodeSystem/condition-category",
          "code": "encounter-diagnosis",
          "display": "Encounter Diagnosis"
        } ]
      } ],
      "code": {
        "coding": [ {
          "system": "http://hl7.org/fhir/sid/icd-9-cm",
          "code": "427.31"
        }, {
          "system": "http://hl7.org/fhir/sid/icd-10-cm",
          "code": "I48.0"
        }, {
          "system": "http://snomed.info/sct",
          "code": "5370000"
        } ]
      },
      "subject": {
        "reference": "Patient/cc42fc09-d5ed-4ac5-980e-f16279cf0499"
      },
      "onsetDateTime": "2026-10-01T09:00:00.000+00:00",
      "abatementDateTime": "2026-10-12T00:15:00.000+00:00"
    },
    "request": {
      "method": "PUT",
      "url": "Condition/04977d8a-7732-4a01-a19a-bb16f5e11401"
    }
  }, {
    "fullUrl": "https://madie.cms.gov/Encounter/f9a5e2e6-ae0d-4f10-ab27-a0dceb16422c",
    "resource": {
      "resourceType": "Encounter",
      "id": "f9a5e2e6-ae0d-4f10-ab27-a0dceb16422c",
      "meta": {
        "profile": [ "http://hl7.org/fhir/us/qicore/StructureDefinition/qicore-encounter" ]
      },
      "status": "finished",
      "class": {
        "system": "http://terminology.hl7.org/CodeSystem/v3-ActCode",
        "code": "EMER",
        "display": "emergency"
      },
      "type": [ {
        "coding": [ {
          "system": "http://snomed.info/sct",
          "code": "4525004"
        } ]
      } ],
      "subject": {
        "reference": "Patient/cc42fc09-d5ed-4ac5-980e-f16279cf0499"
      },
      "period": {
        "start": "2026-09-30T07:59:00.000+00:00",
        "end": "2026-09-30T08:00:00.000+00:00"
      },
      "length": {
        "value": 0,
        "unit": "days"
      }
    },
    "request": {
      "method": "PUT",
      "url": "Encounter/f9a5e2e6-ae0d-4f10-ab27-a0dceb16422c"
    }
  }, {
    "fullUrl": "https://madie.cms.gov/Encounter/99464f7c-f736-43a1-b28b-81d777a31c04",
    "resource": {
      "resourceType": "Encounter",
      "id": "99464f7c-f736-43a1-b28b-81d777a31c04",
      "meta": {
        "profile": [ "http://hl7.org/fhir/us/qicore/StructureDefinition/qicore-encounter" ]
      },
      "status": "finished",
      "class": {
        "system": "http://terminology.hl7.org/CodeSystem/v3-ActCode",
        "code": "OBSENC",
        "display": "observation encounter"
      },
      "type": [ {
        "coding": [ {
          "system": "http://snomed.info/sct",
          "code": "448851000124103"
        } ]
      } ],
      "subject": {
        "reference": "Patient/cc42fc09-d5ed-4ac5-980e-f16279cf0499"
      },
      "period": {
        "start": "2026-09-30T09:01:00.000+00:00",
        "end": "2026-09-30T09:05:00.000+00:00"
      },
      "length": {
        "value": 0,
        "unit": "days"
      }
    },
    "request": {
      "method": "PUT",
      "url": "Encounter/99464f7c-f736-43a1-b28b-81d777a31c04"
    }
  }, {
    "fullUrl": "https://madie.cms.gov/Encounter/355a2a48-45ac-42b1-b480-5ead7a5b4ca3",
    "resource": {
      "resourceType": "Encounter",
      "id": "355a2a48-45ac-42b1-b480-5ead7a5b4ca3",
      "meta": {
        "profile": [ "http://hl7.org/fhir/us/qicore/StructureDefinition/qicore-encounter" ]
      },
      "status": "finished",
      "class": {
        "system": "http://terminology.hl7.org/CodeSystem/v3-ActCode",
        "code": "IMP",
        "display": "inpatient encounter"
      },
      "type": [ {
        "coding": [ {
          "system": "http://snomed.info/sct",
          "code": "32485007"
        } ]
      } ],
      "subject": {
        "reference": "Patient/cc42fc09-d5ed-4ac5-980e-f16279cf0499"
      },
      "period": {
        "start": "2026-09-30T10:05:00.000+00:00",
        "end": "2026-10-12T00:15:00.000+00:00"
      },
      "length": {
        "value": 12,
        "unit": "days"
      },
      "reasonReference": [ {
        "reference": "Condition/04977d8a-7732-4a01-a19a-bb16f5e11401"
      } ]
    },
    "request": {
      "method": "PUT",
      "url": "Encounter/355a2a48-45ac-42b1-b480-5ead7a5b4ca3"
    }
  }, {
    "fullUrl": "https://madie.cms.gov/ServiceRequest/69dda674-787d-4fa9-a007-7417c6b4663a",
    "resource": {
      "resourceType": "ServiceRequest",
      "id": "69dda674-787d-4fa9-a007-7417c6b4663a",
      "meta": {
        "profile": [ "http://hl7.org/fhir/us/qicore/StructureDefinition/qicore-servicerequest" ]
      },
      "status": "active",
      "intent": "order",
      "code": {
        "coding": [ {
          "system": "http://snomed.info/sct",
          "code": "133918004"
        } ]
      },
      "subject": {
        "reference": "Patient/cc42fc09-d5ed-4ac5-980e-f16279cf0499"
      },
      "authoredOn": "2026-09-30T08:00:00.000+00:00"
    },
    "request": {
      "method": "PUT",
      "url": "ServiceRequest/69dda674-787d-4fa9-a007-7417c6b4663a"
    }
  }, {
    "fullUrl": "https://madie.cms.gov/Coverage/fff40046-6b2f-4a87-8da5-ccf8c17d28d9",
    "resource": {
      "resourceType": "Coverage",
      "id": "fff40046-6b2f-4a87-8da5-ccf8c17d28d9",
      "meta": {
        "profile": [ "http://hl7.org/fhir/us/qicore/StructureDefinition/qicore-coverage" ]
      },
      "status": "active",
      "subscriberId": "523435",
      "beneficiary": {
        "reference": "Patient/162a5913-9989-42f2-8d6a-ae460e245e4c"
      },
      "relationship": {
        "coding": [ {
          "system": "http://terminology.hl7.org/CodeSystem/subscriber-relationship",
          "code": "self"
        } ]
      },
      "payor": [ {
        "reference": "Organization/b474e9d9-90d8-4d0b-9ba6-15464ccb92ba"
      } ]
    },
    "request": {
      "method": "PUT",
      "url": "Coverage/fff40046-6b2f-4a87-8da5-ccf8c17d28d9"
    }
  }, {
    "fullUrl": "https://madie.cms.gov/Condition/cb8d7cd3-4b29-4673-ab9b-10a84cd7a403",
    "resource": {
      "resourceType": "Condition",
      "id": "cb8d7cd3-4b29-4673-ab9b-10a84cd7a403",
      "meta": {
        "profile": [ "http://hl7.org/fhir/us/qicore/StructureDefinition/qicore-condition-problems-health-concerns" ]
      },
      "clinicalStatus": {
        "coding": [ {
          "system": "http://terminology.hl7.org/CodeSystem/condition-clinical",
          "code": "active"
        } ]
      },
      "verificationStatus": {
        "coding": [ {
          "system": "http://terminology.hl7.org/CodeSystem/condition-ver-status",
          "code": "confirmed"
        } ]
      },
      "category": [ {
        "coding": [ {
          "system": "http://terminology.hl7.org/CodeSystem/condition-category",
          "code": "encounter-diagnosis",
          "display": "Encounter Diagnosis"
        } ]
      } ],
      "code": {
        "coding": [ {
          "system": "http://snomed.info/sct",
          "version": "2021-09",
          "code": "111297002",
          "display": "Nonparalytic stroke (disorder)",
          "userSelected": true
        } ]
      },
      "subject": {
        "reference": "Patient/cc42fc09-d5ed-4ac5-980e-f16279cf0499"
      },
      "recordedDate": "2026-10-13T08:00:00.000+00:00"
    },
    "request": {
      "method": "PUT",
      "url": "Condition/cb8d7cd3-4b29-4673-ab9b-10a84cd7a403"
    }
  }, {
    "fullUrl": "https://madie.cms.gov/claim/5ca62962b8484628b8de1ec5",
    "resource": {
      "resourceType": "Claim",
      "id": "5ca62962b8484628b8de1ec5",
      "meta": {
        "profile": [ "http://hl7.org/fhir/us/qicore/StructureDefinition/qicore-claim" ]
      },
      "status": "active",
      "type": {
        "coding": [ {
          "system": "http://terminology.hl7.org/CodeSystem/claim-type",
          "code": "institutional"
        } ]
      },
      "use": "claim",
      "patient": {
        "reference": "Patient/d170a0a8-b5ad-4303-b6df-e304dd5f92ad"
      },
      "created": "2026-12-01",
      "provider": {
        "reference": "Practitioner/156adb62-4d00-487b-b92d-818283e75890"
      },
      "priority": {
        "coding": [ {
          "system": "http://terminology.hl7.org/CodeSystem/processpriority",
          "code": "normal"
        } ]
      },
      "diagnosis": [ {
        "sequence": 1,
        "diagnosisCodeableConcept": {
          "coding": [ {
            "system": "http://hl7.org/fhir/sid/icd-10-cm",
            "code": "I63.00"
          } ]
        },
        "type": [ {
          "coding": [ {
            "system": "http://terminology.hl7.org/CodeSystem/ex-diagnosistype",
            "code": "principal"
          } ]
        } ]
      } ],
      "insurance": [ {
        "sequence": 1,
        "focal": true,
        "coverage": {
          "reference": "Coverage/5fa041661c76ba66d9959367"
        }
      } ],
      "item": [ {
        "sequence": 1,
        "diagnosisSequence": [ 1 ],
        "productOrService": {
          "coding": [ {
            "system": "http://terminology.hl7.org/CodeSystem/ex-USCLS",
            "code": "99555"
          } ]
        },
        "encounter": [ {
          "reference": "Encounter/355a2a48-45ac-42b1-b480-5ead7a5b4ca3"
        } ]
      } ]
    },
    "request": {
      "method": "PUT",
      "url": "Claim/5ca62962b8484628b8de1ec5"
    }
  }, {
    "fullUrl": "https://madie.cms.gov/Organization/b474e9d9-90d8-4d0b-9ba6-15464ccb92ba",
    "resource": {
      "resourceType": "Organization",
      "id": "b474e9d9-90d8-4d0b-9ba6-15464ccb92ba",
      "meta": {
        "profile": [ "http://hl7.org/fhir/us/qicore/StructureDefinition/qicore-organization" ]
      },
      "identifier": [ {
        "use": "temp",
        "system": "urn:oid:2.16.840.1.113883.4.4",
        "value": "21-3259825"
      } ],
      "active": true,
      "type": [ {
        "coding": [ {
          "system": "http://terminology.hl7.org/CodeSystem/organization-type",
          "code": "pay",
          "display": "Payer"
        } ]
      } ],
      "name": "Blue Cross Blue Shield of Texas",
      "telecom": [ {
        "system": "phone",
        "value": "(+1) 972-766-6900"
      } ],
      "address": [ {
        "use": "billing",
        "type": "postal",
        "line": [ "P.O. Box 660044" ],
        "city": "Dallas",
        "state": "TX",
        "postalCode": "75266-0044",
        "country": "USA"
      } ]
    },
    "request": {
      "method": "PUT",
      "url": "Organization/b474e9d9-90d8-4d0b-9ba6-15464ccb92ba"
    }
  }, {
    "fullUrl": "https://madie.cms.gov/Practitioner/156adb62-4d00-487b-b92d-818283e75890",
    "resource": {
      "resourceType": "Practitioner",
      "id": "156adb62-4d00-487b-b92d-818283e75890",
      "meta": {
        "profile": [ "http://hl7.org/fhir/us/qicore/StructureDefinition/qicore-practitioner" ]
      },
      "identifier": [ {
        "system": "http://hl7.org/fhir/sid/us-npi",
        "value": "9999999896"
      } ],
      "name": [ {
        "family": "Evil",
        "prefix": [ "Dr" ]
      } ]
    },
    "request": {
      "method": "PUT",
      "url": "Practitioner/156adb62-4d00-487b-b92d-818283e75890"
    }
  }, {
    "fullUrl": "https://madie.cms.gov/MeasureReport/a7db3563-8869-4928-811a-7df33a6045b5",
    "resource": {
      "resourceType": "MeasureReport",
      "id": "a7db3563-8869-4928-811a-7df33a6045b5",
      "meta": {
        "profile": [ "http://hl7.org/fhir/us/cqfmeasures/StructureDefinition/test-case-cqfm" ]
      },
      "contained": [ {
        "resourceType": "Parameters",
        "id": "2193f9ae-9e15-4fd8-99f7-a483bf812da7-parameters",
        "parameter": [ {
          "name": "subject",
          "valueString": "cc42fc09-d5ed-4ac5-980e-f16279cf0499"
        } ]
      } ],
      "extension": [ {
        "url": "http://hl7.org/fhir/StructureDefinition/cqf-inputParameters",
        "valueReference": {
          "reference": "#2193f9ae-9e15-4fd8-99f7-a483bf812da7-parameters"
        }
      }, {
        "url": "http://hl7.org/fhir/us/cqfmeasures/StructureDefinition/cqfm-testCaseDescription",
        "valueMarkdown": "Patient receives CMO during ED. ED ends 60 min before Obs start and Obs ends 60 min before  inpatient start.  Testing HospitalizationWithObservation function\n"
      } ],
      "modifierExtension": [ {
        "url": "http://hl7.org/fhir/us/cqfmeasures/StructureDefinition/cqfm-isTestCase",
        "valueBoolean": true
      } ],
      "status": "complete",
      "type": "individual",
      "measure": "https://madie.cms.gov/Measure/CMS71FHIRSTKAnticoagAFFlutter",
      "period": {
        "start": "2026-01-01",
        "end": "2026-12-31"
      },
      "group": [ {
        "id": "Group_1",
        "population": [ {
          "id": "InitialPopulation_1",
          "code": {
            "coding": [ {
              "system": "http://terminology.hl7.org/CodeSystem/measure-population",
              "code": "initial-population",
              "display": "Initial Population"
            } ]
          },
          "count": 1
        }, {
          "id": "Denominator_1",
          "code": {
            "coding": [ {
              "system": "http://terminology.hl7.org/CodeSystem/measure-population",
              "code": "denominator",
              "display": "Denominator"
            } ]
          },
          "count": 1
        }, {
          "id": "DenominatorExclusion_1",
          "code": {
            "coding": [ {
              "system": "http://terminology.hl7.org/CodeSystem/measure-population",
              "code": "denominator-exclusion",
              "display": "Denominator Exclusion"
            } ]
          },
          "count": 0
        }, {
          "id": "Numerator_1",
          "code": {
            "coding": [ {
              "system": "http://terminology.hl7.org/CodeSystem/measure-population",
              "code": "numerator",
              "display": "Numerator"
            } ]
          },
          "count": 0
        }, {
          "id": "DenominatorException_1",
          "code": {
            "coding": [ {
              "system": "http://terminology.hl7.org/CodeSystem/measure-population",
              "code": "denominator-exception",
              "display": "Denominator Exception"
            } ]
          },
          "count": 0
        } ],
        "measureScore": {
          "value": 0.0
        }
      } ],
      "evaluatedResource": [ {
        "reference": "Patient/cc42fc09-d5ed-4ac5-980e-f16279cf0499"
      }, {
        "reference": "Condition/04977d8a-7732-4a01-a19a-bb16f5e11401"
      }, {
        "reference": "Encounter/f9a5e2e6-ae0d-4f10-ab27-a0dceb16422c"
      }, {
        "reference": "Encounter/99464f7c-f736-43a1-b28b-81d777a31c04"
      }, {
        "reference": "Encounter/355a2a48-45ac-42b1-b480-5ead7a5b4ca3"
      }, {
        "reference": "ServiceRequest/69dda674-787d-4fa9-a007-7417c6b4663a"
      }, {
        "reference": "Coverage/fff40046-6b2f-4a87-8da5-ccf8c17d28d9"
      }, {
        "reference": "Condition/cb8d7cd3-4b29-4673-ab9b-10a84cd7a403"
      }, {
        "reference": "Claim/5ca62962b8484628b8de1ec5"
      }, {
        "reference": "Organization/b474e9d9-90d8-4d0b-9ba6-15464ccb92ba"
      }, {
        "reference": "Practitioner/156adb62-4d00-487b-b92d-818283e75890"
      } ]
    },
    "request": {
      "method": "PUT",
      "url": "MeasureReport/a7db3563-8869-4928-811a-7df33a6045b5"
    }
  } ]
}