{
  "resourceType": "Bundle",
  "id": "6495b2e5e06f07b7e170780f",
  "type": "collection",
  "entry": [ {
    "fullUrl": "https://madie.cms.gov/Patient/6972e617-a003-45d1-8de5-9d4b695324fd",
    "resource": {
      "resourceType": "Patient",
      "id": "6972e617-a003-45d1-8de5-9d4b695324fd",
      "meta": {
        "profile": [ "http://hl7.org/fhir/us/qicore/StructureDefinition/qicore-patient" ]
      },
      "extension": [ {
        "url": "http://hl7.org/fhir/us/core/StructureDefinition/us-core-race",
        "extension": [ {
          "url": "ombCategory",
          "valueCoding": {
            "system": "urn:oid:2.16.840.1.113883.6.238",
            "code": "2054-5",
            "display": "Black or African American",
            "userSelected": true
          }
        }, {
          "url": "text",
          "valueString": "Black or African American"
        } ]
      }, {
        "url": "http://hl7.org/fhir/us/core/StructureDefinition/us-core-ethnicity",
        "extension": [ {
          "url": "ombCategory",
          "valueCoding": {
            "system": "urn:oid:2.16.840.1.113883.6.238",
            "code": "2135-2",
            "display": "Hispanic or Latino",
            "userSelected": true
          }
        }, {
          "url": "text",
          "valueString": "Hispanic or Latino"
        } ]
      } ],
      "identifier": [ {
        "type": {
          "coding": [ {
            "system": "http://terminology.hl7.org/CodeSystem/v2-0203",
            "code": "MR"
          } ]
        },
        "system": "https://bonnie-fhir.healthit.gov/",
        "value": "6495b2e5e06f07b7e170780f"
      } ],
      "name": [ {
        "family": "IPPass",
        "given": [ "EncOnJan1ofMP" ]
      } ],
      "gender": "male",
      "birthDate": "1987-05-25"
    }
  }, {
    "fullUrl": "https://madie.cms.gov/Condition/e3be36a9-5d48-44c6-aed9-df926afafc82",
    "resource": {
      "resourceType": "Condition",
      "id": "e3be36a9-5d48-44c6-aed9-df926afafc82",
      "meta": {
        "profile": [ "http://hl7.org/fhir/us/qicore/StructureDefinition/qicore-condition-problems-health-concerns" ]
      },
      "clinicalStatus": {
        "coding": [ {
          "system": "http://terminology.hl7.org/CodeSystem/condition-clinical",
          "code": "active",
          "display": "active",
          "userSelected": true
        } ]
      },
      "category": [ {
        "coding": [ {
          "system": "http://terminology.hl7.org/CodeSystem/condition-category",
          "code": "problem-list-item",
          "display": "Problem List Item"
        } ]
      } ],
      "code": {
        "coding": [ {
          "system": "http://hl7.org/fhir/sid/icd-9-cm",
          "version": "2013",
          "code": "042",
          "display": "Human immunodeficiency virus [HIV] disease",
          "userSelected": true
        }, {
          "system": "http://snomed.info/sct",
          "version": "http://snomed.info/sct/731000124108/version/20250301",
          "code": "165816005",
          "userSelected": true
        } ]
      },
      "subject": {
        "reference": "Patient/6972e617-a003-45d1-8de5-9d4b695324fd"
      },
      "onsetDateTime": "2020-12-02T12:00:00.000+00:00",
      "recordedDate": "2020-12-02T12:00:00.000+00:00"
    }
  }, {
    "fullUrl": "https://madie.cms.gov/Encounter/d1caac16-ed41-41cc-9f5b-6fd6aa0554c4",
    "resource": {
      "resourceType": "Encounter",
      "id": "d1caac16-ed41-41cc-9f5b-6fd6aa0554c4",
      "meta": {
        "profile": [ "http://hl7.org/fhir/us/qicore/StructureDefinition/qicore-encounter" ]
      },
      "status": "finished",
      "class": {
        "system": "http://terminology.hl7.org/CodeSystem/v3-ActCode",
        "code": "AMB",
        "display": "ambulatory"
      },
      "type": [ {
        "coding": [ {
          "system": "http://www.ama-assn.org/go/cpt",
          "version": "2023",
          "code": "99395",
          "display": "Periodic comprehensive preventive medicine reevaluation and management of an individual including an age and gender appropriate history, examination, counseling/anticipatory guidance/risk factor reduction interventions, and the ordering of laboratory/diagnostic procedures, established patient; 18-39 years",
          "userSelected": true
        } ]
      } ],
      "subject": {
        "reference": "Patient/6972e617-a003-45d1-8de5-9d4b695324fd"
      },
      "period": {
        "start": "2026-01-01T11:00:00.000+00:00",
        "end": "2026-01-01T11:22:00.000+00:00"
      }
    }
  }, {
    "fullUrl": "https://madie.cms.gov/Coverage/73a2e864-bb21-403d-a269-6ee638990ce9",
    "resource": {
      "resourceType": "Coverage",
      "id": "73a2e864-bb21-403d-a269-6ee638990ce9",
      "meta": {
        "profile": [ "http://hl7.org/fhir/us/qicore/StructureDefinition/qicore-coverage" ]
      },
      "status": "active",
      "subscriberId": "123456",
      "beneficiary": {
        "reference": "Patient/6972e617-a003-45d1-8de5-9d4b695324fd"
      },
      "relationship": {
        "coding": [ {
          "system": "http://terminology.hl7.org/CodeSystem/subscriber-relationship",
          "code": "self",
          "display": "Self"
        } ]
      },
      "payor": [ {
        "reference": "Organization/4f8c981b-c441-4b0d-8f94-ea93fec83985"
      } ]
    }
  }, {
    "fullUrl": "https://madie.cms.gov/Organization/4f8c981b-c441-4b0d-8f94-ea93fec83985",
    "resource": {
      "resourceType": "Organization",
      "id": "4f8c981b-c441-4b0d-8f94-ea93fec83985",
      "meta": {
        "profile": [ "http://hl7.org/fhir/us/qicore/StructureDefinition/qicore-organization" ]
      },
      "identifier": [ {
        "use": "temp",
        "system": "urn:oid:2.16.840.1.113883.4.4",
        "value": "21-3259825"
      } ],
      "active": true,
      "type": [ {
        "coding": [ {
          "system": "http://terminology.hl7.org/CodeSystem/organization-type",
          "code": "pay",
          "display": "Payer"
        } ]
      } ],
      "name": "Blue Cross Blue Shield of Texas",
      "telecom": [ {
        "system": "phone",
        "value": "(+1) 972-766-6900"
      } ],
      "address": [ {
        "use": "billing",
        "type": "postal",
        "line": [ "P.O. Box 660044" ],
        "city": "Dallas",
        "state": "TX",
        "postalCode": "75266-0044",
        "country": "USA"
      } ]
    }
  }, {
    "fullUrl": "https://madie.cms.gov/Practitioner/2b13c3e7-a391-4b1b-b3f5-5aee12e95893",
    "resource": {
      "resourceType": "Practitioner",
      "id": "2b13c3e7-a391-4b1b-b3f5-5aee12e95893",
      "meta": {
        "profile": [ "http://hl7.org/fhir/us/qicore/StructureDefinition/qicore-practitioner" ]
      },
      "identifier": [ {
        "system": "http://hl7.org/fhir/sid/us-npi",
        "value": "1689411712"
      } ],
      "name": [ {
        "family": "Evil",
        "prefix": [ "Dr" ]
      } ]
    }
  }, {
    "fullUrl": "https://madie.cms.gov/MeasureReport/b825c997-6ad3-4bbf-9271-32a260606a9a",
    "resource": {
      "resourceType": "MeasureReport",
      "id": "b825c997-6ad3-4bbf-9271-32a260606a9a",
      "meta": {
        "profile": [ "http://hl7.org/fhir/us/cqfmeasures/StructureDefinition/test-case-cqfm" ]
      },
      "contained": [ {
        "resourceType": "Parameters",
        "id": "6f52bcdb-ddc7-4a43-867d-675ed359e8f6-parameters",
        "parameter": [ {
          "name": "subject",
          "valueString": "6972e617-a003-45d1-8de5-9d4b695324fd"
        } ]
      } ],
      "extension": [ {
        "url": "http://hl7.org/fhir/StructureDefinition/cqf-inputParameters",
        "valueReference": {
          "reference": "#6f52bcdb-ddc7-4a43-867d-675ed359e8f6-parameters"
        }
      }, {
        "url": "http://hl7.org/fhir/us/cqfmeasures/StructureDefinition/cqfm-testCaseDescription",
        "valueMarkdown": "Patient with a diagnosis of HIV years before start of the MP and a qualifying encounter on Jan 1 of the measurement period "
      } ],
      "modifierExtension": [ {
        "url": "http://hl7.org/fhir/us/cqfmeasures/StructureDefinition/cqfm-isTestCase",
        "valueBoolean": true
      } ],
      "status": "complete",
      "type": "individual",
      "measure": "https://madie.cms.gov/Measure/CMS314FHIRHIVViralSuppression",
      "period": {
        "start": "2026-01-01",
        "end": "2026-12-31"
      },
      "group": [ {
        "id": "Group_1",
        "population": [ {
          "id": "InitialPopulation_1",
          "code": {
            "coding": [ {
              "system": "http://terminology.hl7.org/CodeSystem/measure-population",
              "code": "initial-population",
              "display": "Initial Population"
            } ]
          },
          "count": 1
        }, {
          "id": "Denominator_1",
          "code": {
            "coding": [ {
              "system": "http://terminology.hl7.org/CodeSystem/measure-population",
              "code": "denominator",
              "display": "Denominator"
            } ]
          },
          "count": 1
        }, {
          "id": "Numerator_1",
          "code": {
            "coding": [ {
              "system": "http://terminology.hl7.org/CodeSystem/measure-population",
              "code": "numerator",
              "display": "Numerator"
            } ]
          },
          "count": 0
        } ],
        "measureScore": {
          "value": 1.0
        }
      } ],
      "evaluatedResource": [ {
        "reference": "Patient/6972e617-a003-45d1-8de5-9d4b695324fd"
      }, {
        "reference": "Condition/e3be36a9-5d48-44c6-aed9-df926afafc82"
      }, {
        "reference": "Encounter/d1caac16-ed41-41cc-9f5b-6fd6aa0554c4"
      }, {
        "reference": "Coverage/73a2e864-bb21-403d-a269-6ee638990ce9"
      }, {
        "reference": "Organization/4f8c981b-c441-4b0d-8f94-ea93fec83985"
      }, {
        "reference": "Practitioner/2b13c3e7-a391-4b1b-b3f5-5aee12e95893"
      } ]
    }
  } ]
}