{
  "resourceType": "Bundle",
  "id": "63487c2e0968f80122540178",
  "type": "transaction",
  "entry": [ {
    "fullUrl": "https://madie.cms.gov/Patient/da72472e-2668-4787-92ed-fb9b2fc489f6",
    "resource": {
      "resourceType": "Patient",
      "id": "da72472e-2668-4787-92ed-fb9b2fc489f6",
      "meta": {
        "profile": [ "http://hl7.org/fhir/us/qicore/StructureDefinition/qicore-patient" ]
      },
      "text": {
        "status": "generated",
        "div": "<div xmlns=\"http://www.w3.org/1999/xhtml\"><div class=\"hapiHeaderText\">EncDxreasonCodeVasaPrevia<b>DENEXPASS</b></div><table class=\"hapiPropertyTable\"><tbody><tr><td>Identifier</td><td>e60ac0c86374d56542751bc908b8f4587a0e4d04c5ad61e351ba0274daf18ca0</td></tr><tr><td>Date of birth</td><td><span>14 February 1985</span></td></tr></tbody></table></div>"
      },
      "extension": [ {
        "url": "http://hl7.org/fhir/us/core/StructureDefinition/us-core-race",
        "extension": [ {
          "url": "ombCategory",
          "valueCoding": {
            "system": "urn:oid:2.16.840.1.113883.6.238",
            "code": "1002-5",
            "display": "American Indian or Alaska Native",
            "userSelected": true
          }
        }, {
          "url": "text",
          "valueString": "American Indian or Alaska Native"
        } ]
      }, {
        "url": "http://hl7.org/fhir/us/core/StructureDefinition/us-core-ethnicity",
        "extension": [ {
          "url": "ombCategory",
          "valueCoding": {
            "system": "urn:oid:2.16.840.1.113883.6.238",
            "code": "2135-2",
            "display": "Hispanic or Latino",
            "userSelected": true
          }
        }, {
          "url": "text",
          "valueString": "Hispanic or Latino"
        } ]
      } ],
      "identifier": [ {
        "type": {
          "coding": [ {
            "system": "http://terminology.hl7.org/CodeSystem/v2-0203",
            "code": "MR"
          } ]
        },
        "system": "https://bonnie-fhir.healthit.gov/",
        "value": "63487c2e0968f80122540178"
      } ],
      "active": true,
      "name": [ {
        "use": "usual",
        "family": "DENEXPass",
        "given": [ "EncDxreasonCodeVasaPrevia" ]
      } ],
      "gender": "female",
      "birthDate": "1998-02-14"
    },
    "request": {
      "method": "PUT",
      "url": "Patient/da72472e-2668-4787-92ed-fb9b2fc489f6"
    }
  }, {
    "fullUrl": "https://madie.cms.gov/Observation/7c17cf61-9df7-41ee-9921-31ac3c2a60d0",
    "resource": {
      "resourceType": "Observation",
      "id": "7c17cf61-9df7-41ee-9921-31ac3c2a60d0",
      "meta": {
        "profile": [ "http://hl7.org/fhir/us/qicore/StructureDefinition/qicore-simple-observation" ]
      },
      "status": "final",
      "category": [ {
        "coding": [ {
          "system": "http://terminology.hl7.org/CodeSystem/observation-category",
          "code": "exam",
          "display": "exam",
          "userSelected": true
        } ]
      } ],
      "code": {
        "coding": [ {
          "system": "http://loinc.org",
          "code": "11996-6"
        } ]
      },
      "subject": {
        "reference": "Patient/da72472e-2668-4787-92ed-fb9b2fc489f6"
      },
      "effectiveDateTime": "2026-06-08T08:00:00.000+00:00",
      "performer": [ {
        "reference": "Organization/example1",
        "display": "Hendricks Country Hospital"
      } ],
      "valueInteger": 1
    },
    "request": {
      "method": "PUT",
      "url": "Observation/7c17cf61-9df7-41ee-9921-31ac3c2a60d0"
    }
  }, {
    "fullUrl": "https://madie.cms.gov/Observation/4df06454-8695-4dcc-84f7-b9a179d8aa1c",
    "resource": {
      "resourceType": "Observation",
      "id": "4df06454-8695-4dcc-84f7-b9a179d8aa1c",
      "meta": {
        "profile": [ "http://hl7.org/fhir/us/qicore/StructureDefinition/qicore-simple-observation" ]
      },
      "status": "final",
      "category": [ {
        "coding": [ {
          "system": "http://terminology.hl7.org/CodeSystem/observation-category",
          "code": "exam",
          "display": "exam",
          "userSelected": true
        } ]
      } ],
      "code": {
        "coding": [ {
          "system": "http://loinc.org",
          "code": "11884-4"
        } ]
      },
      "subject": {
        "reference": "Patient/da72472e-2668-4787-92ed-fb9b2fc489f6"
      },
      "effectiveDateTime": "2026-06-08T08:00:00.000+00:00",
      "performer": [ {
        "reference": "Organization/example1",
        "display": "Hendricks Country Hospital"
      } ],
      "valueQuantity": {
        "value": 43,
        "system": "http://unitsofmeasure.org",
        "code": "wk"
      }
    },
    "request": {
      "method": "PUT",
      "url": "Observation/4df06454-8695-4dcc-84f7-b9a179d8aa1c"
    }
  }, {
    "fullUrl": "https://madie.cms.gov/Observation/77ffe786-0563-4ca7-a8f1-442b4a53c997",
    "resource": {
      "resourceType": "Observation",
      "id": "77ffe786-0563-4ca7-a8f1-442b4a53c997",
      "meta": {
        "profile": [ "http://hl7.org/fhir/us/qicore/StructureDefinition/qicore-simple-observation" ]
      },
      "status": "final",
      "category": [ {
        "coding": [ {
          "system": "http://terminology.hl7.org/CodeSystem/observation-category",
          "code": "exam",
          "display": "exam",
          "userSelected": true
        } ]
      } ],
      "code": {
        "coding": [ {
          "system": "http://loinc.org",
          "code": "93857-1"
        } ]
      },
      "subject": {
        "reference": "Patient/da72472e-2668-4787-92ed-fb9b2fc489f6"
      },
      "effectiveDateTime": "2026-06-08T20:00:00.000+00:00",
      "performer": [ {
        "reference": "Organization/example1",
        "display": "Hendricks Country Hospital"
      } ],
      "valueDateTime": "2026-06-08T20:00:00.000+00:00"
    },
    "request": {
      "method": "PUT",
      "url": "Observation/77ffe786-0563-4ca7-a8f1-442b4a53c997"
    }
  }, {
    "fullUrl": "https://madie.cms.gov/Encounter/f649b719-103a-408e-b503-a5f59849dcc7",
    "resource": {
      "resourceType": "Encounter",
      "id": "f649b719-103a-408e-b503-a5f59849dcc7",
      "meta": {
        "profile": [ "http://hl7.org/fhir/us/qicore/StructureDefinition/qicore-encounter" ]
      },
      "status": "finished",
      "class": {
        "system": "http://terminology.hl7.org/CodeSystem/v3-ActCode",
        "code": "IMP",
        "display": "inpatient encounter"
      },
      "type": [ {
        "coding": [ {
          "system": "http://snomed.info/sct",
          "code": "8715000"
        } ]
      } ],
      "subject": {
        "reference": "Patient/da72472e-2668-4787-92ed-fb9b2fc489f6"
      },
      "period": {
        "start": "2026-06-08T08:00:00.000+00:00",
        "end": "2026-06-10T08:15:00.000+00:00"
      },
      "reasonCode": [ {
        "coding": [ {
          "system": "http://snomed.info/sct",
          "code": "79668009",
          "display": "Vasa previa (disorder)"
        } ]
      } ],
      "reasonReference": [ {
        "reference": "Condition/93d3c6c7-1e85-44c9-802a-3f946ef7d0d9"
      } ]
    },
    "request": {
      "method": "PUT",
      "url": "Encounter/f649b719-103a-408e-b503-a5f59849dcc7"
    }
  }, {
    "fullUrl": "https://madie.cms.gov/Procedure/6c21ac83-21f8-4540-b04b-7765cad87a17",
    "resource": {
      "resourceType": "Procedure",
      "id": "6c21ac83-21f8-4540-b04b-7765cad87a17",
      "meta": {
        "profile": [ "http://hl7.org/fhir/us/qicore/StructureDefinition/qicore-procedure" ]
      },
      "extension": [ {
        "url": "http://hl7.org/fhir/us/qicore/StructureDefinition/qicore-recorded",
        "valueDateTime": "2014-04-05T13:35:00.000+00:00"
      } ],
      "status": "completed",
      "code": {
        "coding": [ {
          "system": "http://snomed.info/sct",
          "code": "4504004"
        } ]
      },
      "subject": {
        "reference": "Patient/da72472e-2668-4787-92ed-fb9b2fc489f6"
      },
      "performedPeriod": {
        "start": "2026-06-08T20:00:00.000+00:00",
        "end": "2026-06-09T20:00:00.000+00:00"
      }
    },
    "request": {
      "method": "PUT",
      "url": "Procedure/6c21ac83-21f8-4540-b04b-7765cad87a17"
    }
  }, {
    "fullUrl": "https://madie.cms.gov/Condition/93d3c6c7-1e85-44c9-802a-3f946ef7d0d9",
    "resource": {
      "resourceType": "Condition",
      "id": "93d3c6c7-1e85-44c9-802a-3f946ef7d0d9",
      "meta": {
        "profile": [ "http://hl7.org/fhir/us/qicore/StructureDefinition/qicore-condition-encounter-diagnosis" ]
      },
      "category": [ {
        "coding": [ {
          "system": "http://terminology.hl7.org/CodeSystem/condition-category",
          "code": "encounter-diagnosis",
          "display": "Encounter Diagnosis"
        } ]
      } ],
      "code": {
        "coding": [ {
          "system": "http://snomed.info/sct",
          "version": "2022-09",
          "code": "169826009",
          "display": "Single live birth (finding)",
          "userSelected": true
        } ]
      },
      "subject": {
        "reference": "Patient/da72472e-2668-4787-92ed-fb9b2fc489f6"
      },
      "encounter": {
        "reference": "Encounter/f649b719-103a-408e-b503-a5f59849dcc7"
      },
      "recordedDate": "2026-10-17T08:00:00.000+00:00"
    },
    "request": {
      "method": "PUT",
      "url": "Condition/93d3c6c7-1e85-44c9-802a-3f946ef7d0d9"
    }
  }, {
    "fullUrl": "https://madie.cms.gov/Coverage/527ddcc9-88a8-42f5-8bad-02cffefd4b4f",
    "resource": {
      "resourceType": "Coverage",
      "id": "527ddcc9-88a8-42f5-8bad-02cffefd4b4f",
      "meta": {
        "profile": [ "http://hl7.org/fhir/us/qicore/StructureDefinition/qicore-coverage" ]
      },
      "status": "active",
      "subscriberId": "523435",
      "beneficiary": {
        "reference": "Patient/da72472e-2668-4787-92ed-fb9b2fc489f6"
      },
      "relationship": {
        "coding": [ {
          "system": "http://terminology.hl7.org/CodeSystem/subscriber-relationship",
          "code": "self"
        } ]
      },
      "payor": [ {
        "reference": "Organization/99c1659c-b47d-4ee9-8824-28d8d81b7720"
      } ]
    },
    "request": {
      "method": "PUT",
      "url": "Coverage/527ddcc9-88a8-42f5-8bad-02cffefd4b4f"
    }
  }, {
    "fullUrl": "https://madie.cms.gov/Organization/99c1659c-b47d-4ee9-8824-28d8d81b7720",
    "resource": {
      "resourceType": "Organization",
      "id": "99c1659c-b47d-4ee9-8824-28d8d81b7720",
      "meta": {
        "profile": [ "http://hl7.org/fhir/us/qicore/StructureDefinition/qicore-organization" ]
      },
      "identifier": [ {
        "use": "temp",
        "system": "urn:oid:2.16.840.1.113883.4.4",
        "value": "21-3259825"
      } ],
      "active": true,
      "type": [ {
        "coding": [ {
          "system": "http://terminology.hl7.org/CodeSystem/organization-type",
          "code": "pay",
          "display": "Payer"
        } ]
      } ],
      "name": "Blue Cross Blue Shield of Texas",
      "telecom": [ {
        "system": "phone",
        "value": "(+1) 972-766-6900"
      } ],
      "address": [ {
        "use": "billing",
        "type": "postal",
        "line": [ "P.O. Box 660044" ],
        "city": "Dallas",
        "state": "TX",
        "postalCode": "75266-0044",
        "country": "USA"
      } ]
    },
    "request": {
      "method": "PUT",
      "url": "Organization/99c1659c-b47d-4ee9-8824-28d8d81b7720"
    }
  }, {
    "fullUrl": "https://madie.cms.gov/Practitioner/0f32a224-7a46-43ce-8768-a8a42b80ea4a",
    "resource": {
      "resourceType": "Practitioner",
      "id": "0f32a224-7a46-43ce-8768-a8a42b80ea4a",
      "meta": {
        "profile": [ "http://hl7.org/fhir/us/qicore/StructureDefinition/qicore-practitioner" ]
      },
      "identifier": [ {
        "system": "http://hl7.org/fhir/sid/us-npi",
        "value": "1234567890"
      } ],
      "name": [ {
        "family": "Evil",
        "prefix": [ "Dr" ]
      } ]
    },
    "request": {
      "method": "PUT",
      "url": "Practitioner/0f32a224-7a46-43ce-8768-a8a42b80ea4a"
    }
  }, {
    "fullUrl": "https://madie.cms.gov/MeasureReport/4536025b-7134-41d3-9b97-b6fb45a09908",
    "resource": {
      "resourceType": "MeasureReport",
      "id": "4536025b-7134-41d3-9b97-b6fb45a09908",
      "meta": {
        "profile": [ "http://hl7.org/fhir/us/cqfmeasures/StructureDefinition/test-case-cqfm" ]
      },
      "contained": [ {
        "resourceType": "Parameters",
        "id": "f78398c1-6c4c-49e2-b171-dc804099721f-parameters",
        "parameter": [ {
          "name": "subject",
          "valueString": "da72472e-2668-4787-92ed-fb9b2fc489f6"
        } ]
      } ],
      "extension": [ {
        "url": "http://hl7.org/fhir/StructureDefinition/cqf-inputParameters",
        "valueReference": {
          "reference": "#f78398c1-6c4c-49e2-b171-dc804099721f-parameters"
        }
      }, {
        "url": "http://hl7.org/fhir/us/cqfmeasures/StructureDefinition/cqfm-testCaseDescription",
        "valueMarkdown": "EGA 43 weeks; Enc Dx reasonCode vasa previa, gravida 1\n"
      } ],
      "modifierExtension": [ {
        "url": "http://hl7.org/fhir/us/cqfmeasures/StructureDefinition/cqfm-isTestCase",
        "valueBoolean": true
      } ],
      "status": "complete",
      "type": "individual",
      "measure": "https://madie.cms.gov/Measure/CMS0334FHIRPCCesareanBirth",
      "period": {
        "start": "2026-01-01",
        "end": "2026-12-31"
      },
      "group": [ {
        "id": "Group_1",
        "population": [ {
          "id": "InitialPopulation_1",
          "code": {
            "coding": [ {
              "system": "http://terminology.hl7.org/CodeSystem/measure-population",
              "code": "initial-population",
              "display": "Initial Population"
            } ]
          },
          "count": 1
        }, {
          "id": "Denominator_1",
          "code": {
            "coding": [ {
              "system": "http://terminology.hl7.org/CodeSystem/measure-population",
              "code": "denominator",
              "display": "Denominator"
            } ]
          },
          "count": 1
        }, {
          "id": "DenominatorExclusion_1",
          "code": {
            "coding": [ {
              "system": "http://terminology.hl7.org/CodeSystem/measure-population",
              "code": "denominator-exclusion",
              "display": "Denominator Exclusion"
            } ]
          },
          "count": 1
        }, {
          "id": "Numerator_1",
          "code": {
            "coding": [ {
              "system": "http://terminology.hl7.org/CodeSystem/measure-population",
              "code": "numerator",
              "display": "Numerator"
            } ]
          },
          "count": 0
        } ],
        "measureScore": {
          "value": 0.0
        }
      } ],
      "evaluatedResource": [ {
        "reference": "Patient/da72472e-2668-4787-92ed-fb9b2fc489f6"
      }, {
        "reference": "Observation/7c17cf61-9df7-41ee-9921-31ac3c2a60d0"
      }, {
        "reference": "Observation/4df06454-8695-4dcc-84f7-b9a179d8aa1c"
      }, {
        "reference": "Observation/77ffe786-0563-4ca7-a8f1-442b4a53c997"
      }, {
        "reference": "Encounter/f649b719-103a-408e-b503-a5f59849dcc7"
      }, {
        "reference": "Procedure/6c21ac83-21f8-4540-b04b-7765cad87a17"
      }, {
        "reference": "Condition/93d3c6c7-1e85-44c9-802a-3f946ef7d0d9"
      }, {
        "reference": "Coverage/527ddcc9-88a8-42f5-8bad-02cffefd4b4f"
      }, {
        "reference": "Organization/99c1659c-b47d-4ee9-8824-28d8d81b7720"
      }, {
        "reference": "Practitioner/0f32a224-7a46-43ce-8768-a8a42b80ea4a"
      } ]
    },
    "request": {
      "method": "PUT",
      "url": "MeasureReport/4536025b-7134-41d3-9b97-b6fb45a09908"
    }
  } ]
}