{
  "resourceType": "Bundle",
  "id": "633b3f9e0968f80122503ccd",
  "type": "transaction",
  "entry": [ {
    "fullUrl": "https://madie.cms.gov/Patient/46c495dc-7e07-4831-8de3-3f6aa6c478ae",
    "resource": {
      "resourceType": "Patient",
      "id": "46c495dc-7e07-4831-8de3-3f6aa6c478ae",
      "meta": {
        "profile": [ "http://hl7.org/fhir/us/qicore/StructureDefinition/qicore-patient" ]
      },
      "text": {
        "status": "generated",
        "div": "<div xmlns=\"http://www.w3.org/1999/xhtml\"><div class=\"hapiHeaderText\">AssPrfDelRsltDtTimeB4IPStart<b>DENOMFAIL</b></div><table class=\"hapiPropertyTable\"><tbody><tr><td>Date of birth</td><td><span>01 February 2004</span></td></tr></tbody></table></div>"
      },
      "extension": [ {
        "url": "http://hl7.org/fhir/us/core/StructureDefinition/us-core-race",
        "extension": [ {
          "url": "ombCategory",
          "valueCoding": {
            "system": "urn:oid:2.16.840.1.113883.6.238",
            "code": "1002-5",
            "display": "American Indian or Alaska Native",
            "userSelected": true
          }
        }, {
          "url": "text",
          "valueString": "American Indian or Alaska Native"
        } ]
      }, {
        "url": "http://hl7.org/fhir/us/core/StructureDefinition/us-core-ethnicity",
        "extension": [ {
          "url": "ombCategory",
          "valueCoding": {
            "system": "urn:oid:2.16.840.1.113883.6.238",
            "code": "2135-2",
            "display": "Hispanic or Latino",
            "userSelected": true
          }
        }, {
          "url": "text",
          "valueString": "Hispanic or Latino"
        } ]
      } ],
      "identifier": [ {
        "type": {
          "coding": [ {
            "system": "http://terminology.hl7.org/CodeSystem/v2-0203",
            "code": "MR"
          } ]
        },
        "system": "https://bonnie-fhir.healthit.gov/",
        "value": "633b3f9e0968f80122503ccd"
      } ],
      "active": true,
      "name": [ {
        "use": "usual",
        "family": "DENOMFail",
        "given": [ "AssPrfDelRsltDtTimeB4IPStart" ]
      } ],
      "gender": "female",
      "birthDate": "2005-02-01"
    },
    "request": {
      "method": "PUT",
      "url": "Patient/46c495dc-7e07-4831-8de3-3f6aa6c478ae"
    }
  }, {
    "fullUrl": "https://madie.cms.gov/Observation/3ede6b56-6d54-45a0-9419-226e325cf431",
    "resource": {
      "resourceType": "Observation",
      "id": "3ede6b56-6d54-45a0-9419-226e325cf431",
      "meta": {
        "profile": [ "http://hl7.org/fhir/us/qicore/StructureDefinition/qicore-simple-observation" ]
      },
      "status": "final",
      "category": [ {
        "coding": [ {
          "system": "http://terminology.hl7.org/CodeSystem/observation-category",
          "code": "exam",
          "display": "exam",
          "userSelected": true
        } ]
      } ],
      "code": {
        "coding": [ {
          "system": "http://loinc.org",
          "code": "93857-1"
        } ]
      },
      "subject": {
        "reference": "Patient/46c495dc-7e07-4831-8de3-3f6aa6c478ae"
      },
      "effectiveDateTime": "2026-02-01T08:00:00.000+00:00",
      "performer": [ {
        "reference": "Organization/example1",
        "display": "Hendricks Country Hospital"
      } ],
      "valueDateTime": "2026-02-01T07:59:00.000+00:00"
    },
    "request": {
      "method": "PUT",
      "url": "Observation/3ede6b56-6d54-45a0-9419-226e325cf431"
    }
  }, {
    "fullUrl": "https://madie.cms.gov/Observation/c87d5061-c9a3-4137-967c-036ad7307842",
    "resource": {
      "resourceType": "Observation",
      "id": "c87d5061-c9a3-4137-967c-036ad7307842",
      "meta": {
        "profile": [ "http://hl7.org/fhir/us/qicore/StructureDefinition/qicore-simple-observation" ]
      },
      "status": "final",
      "category": [ {
        "coding": [ {
          "system": "http://terminology.hl7.org/CodeSystem/observation-category",
          "code": "exam",
          "display": "exam",
          "userSelected": true
        } ]
      } ],
      "code": {
        "coding": [ {
          "system": "http://loinc.org",
          "code": "11778-8"
        } ]
      },
      "subject": {
        "reference": "Patient/46c495dc-7e07-4831-8de3-3f6aa6c478ae"
      },
      "effectiveDateTime": "2026-02-01T08:00:00.000+00:00",
      "performer": [ {
        "reference": "Organization/example1",
        "display": "Hendricks Country Hospital"
      } ],
      "valueDateTime": "2026-02-01T08:00:00.000+00:00"
    },
    "request": {
      "method": "PUT",
      "url": "Observation/c87d5061-c9a3-4137-967c-036ad7307842"
    }
  }, {
    "fullUrl": "https://madie.cms.gov/Encounter/2343b2bd-950f-49f4-8363-216eeaa36ea8",
    "resource": {
      "resourceType": "Encounter",
      "id": "2343b2bd-950f-49f4-8363-216eeaa36ea8",
      "meta": {
        "profile": [ "http://hl7.org/fhir/us/qicore/StructureDefinition/qicore-encounter" ]
      },
      "status": "finished",
      "class": {
        "system": "http://terminology.hl7.org/CodeSystem/v3-ActCode",
        "code": "IMP",
        "display": "inpatient encounter"
      },
      "type": [ {
        "coding": [ {
          "system": "http://snomed.info/sct",
          "code": "183452005"
        } ]
      } ],
      "subject": {
        "reference": "Patient/46c495dc-7e07-4831-8de3-3f6aa6c478ae"
      },
      "period": {
        "start": "2026-02-01T08:00:00.000+00:00",
        "end": "2026-02-05T08:15:00.000+00:00"
      },
      "reasonCode": [ {
        "coding": [ {
          "system": "http://snomed.info/sct",
          "code": "169826009",
          "display": "Single live birth from singleton pregnancy (finding)"
        } ]
      } ]
    },
    "request": {
      "method": "PUT",
      "url": "Encounter/2343b2bd-950f-49f4-8363-216eeaa36ea8"
    }
  }, {
    "fullUrl": "https://madie.cms.gov/Coverage/f21068ad-3423-4bc4-b4cb-59d1a07fec88",
    "resource": {
      "resourceType": "Coverage",
      "id": "f21068ad-3423-4bc4-b4cb-59d1a07fec88",
      "status": "active",
      "subscriberId": "523435",
      "beneficiary": {
        "reference": "Patient/46c495dc-7e07-4831-8de3-3f6aa6c478ae"
      },
      "relationship": {
        "coding": [ {
          "system": "http://terminology.hl7.org/CodeSystem/subscriber-relationship",
          "code": "self"
        } ]
      },
      "period": {
        "start": "2005-02-01T08:00:00.000+00:00"
      },
      "payor": [ {
        "reference": "Organization/a05b7199-6caf-423e-b8e8-8580529cc2fd"
      } ]
    },
    "request": {
      "method": "PUT",
      "url": "Coverage/f21068ad-3423-4bc4-b4cb-59d1a07fec88"
    }
  }, {
    "fullUrl": "https://madie.cms.gov/Procedure/2679fccc-607f-48b6-ab6b-7ba504aa4f18",
    "resource": {
      "resourceType": "Procedure",
      "id": "2679fccc-607f-48b6-ab6b-7ba504aa4f18",
      "meta": {
        "profile": [ "http://hl7.org/fhir/us/qicore/StructureDefinition/qicore-procedure" ]
      },
      "extension": [ {
        "url": "http://hl7.org/fhir/us/qicore/StructureDefinition/qicore-recorded",
        "valueDateTime": "2014-04-05T13:35:00.000+00:00"
      } ],
      "status": "completed",
      "code": {
        "coding": [ {
          "system": "http://snomed.info/sct",
          "code": "10745001"
        } ]
      },
      "subject": {
        "reference": "Patient/46c495dc-7e07-4831-8de3-3f6aa6c478ae"
      },
      "performedPeriod": {
        "start": "2026-02-01T08:00:00.000+00:00",
        "end": "2026-02-05T08:15:00.000+00:00"
      }
    },
    "request": {
      "method": "PUT",
      "url": "Procedure/2679fccc-607f-48b6-ab6b-7ba504aa4f18"
    }
  }, {
    "fullUrl": "https://madie.cms.gov/Organization/a05b7199-6caf-423e-b8e8-8580529cc2fd",
    "resource": {
      "resourceType": "Organization",
      "id": "a05b7199-6caf-423e-b8e8-8580529cc2fd",
      "meta": {
        "profile": [ "http://hl7.org/fhir/us/qicore/StructureDefinition/qicore-organization" ]
      },
      "identifier": [ {
        "use": "temp",
        "system": "urn:oid:2.16.840.1.113883.4.4",
        "value": "21-3259825"
      } ],
      "active": true,
      "type": [ {
        "coding": [ {
          "system": "http://terminology.hl7.org/CodeSystem/organization-type",
          "code": "pay",
          "display": "Payer"
        } ]
      } ],
      "name": "Blue Cross Blue Shield of Texas",
      "telecom": [ {
        "system": "phone",
        "value": "(+1) 972-766-6900"
      } ],
      "address": [ {
        "use": "billing",
        "type": "postal",
        "line": [ "P.O. Box 660044" ],
        "city": "Dallas",
        "state": "TX",
        "postalCode": "75266-0044",
        "country": "USA"
      } ]
    },
    "request": {
      "method": "PUT",
      "url": "Organization/a05b7199-6caf-423e-b8e8-8580529cc2fd"
    }
  }, {
    "fullUrl": "https://madie.cms.gov/Practitioner/a48c9ebe-1acd-4d5a-a5d3-9b0f02994b57",
    "resource": {
      "resourceType": "Practitioner",
      "id": "a48c9ebe-1acd-4d5a-a5d3-9b0f02994b57",
      "meta": {
        "profile": [ "http://hl7.org/fhir/us/qicore/StructureDefinition/qicore-practitioner" ]
      },
      "identifier": [ {
        "system": "http://hl7.org/fhir/sid/us-npi",
        "value": "1234567890"
      } ],
      "name": [ {
        "family": "Evil",
        "prefix": [ "Dr" ]
      } ]
    },
    "request": {
      "method": "PUT",
      "url": "Practitioner/a48c9ebe-1acd-4d5a-a5d3-9b0f02994b57"
    }
  }, {
    "fullUrl": "https://madie.cms.gov/MeasureReport/d1d91f6a-ed4f-4e19-8798-23b9de5c1e91",
    "resource": {
      "resourceType": "MeasureReport",
      "id": "d1d91f6a-ed4f-4e19-8798-23b9de5c1e91",
      "meta": {
        "profile": [ "http://hl7.org/fhir/us/cqfmeasures/StructureDefinition/test-case-cqfm" ]
      },
      "contained": [ {
        "resourceType": "Parameters",
        "id": "e0a21575-1062-4fad-a7a3-f4b71c0854a8-parameters",
        "parameter": [ {
          "name": "subject",
          "valueString": "46c495dc-7e07-4831-8de3-3f6aa6c478ae"
        } ]
      } ],
      "extension": [ {
        "url": "http://hl7.org/fhir/StructureDefinition/cqf-inputParameters",
        "valueReference": {
          "reference": "#e0a21575-1062-4fad-a7a3-f4b71c0854a8-parameters"
        }
      }, {
        "url": "http://hl7.org/fhir/us/cqfmeasures/StructureDefinition/cqfm-testCaseDescription",
        "valueMarkdown": "Result date/Time of delivery (based on assessment performed) is 1 minute before the encounter starts\n\n"
      } ],
      "modifierExtension": [ {
        "url": "http://hl7.org/fhir/us/cqfmeasures/StructureDefinition/cqfm-isTestCase",
        "valueBoolean": true
      } ],
      "status": "complete",
      "type": "individual",
      "measure": "https://madie.cms.gov/Measure/CMS1028FHIRPCSevereOBComps",
      "period": {
        "start": "2026-01-01",
        "end": "2026-12-31"
      },
      "group": [ {
        "id": "Group_1",
        "population": [ {
          "id": "InitialPopulation_1",
          "code": {
            "coding": [ {
              "system": "http://terminology.hl7.org/CodeSystem/measure-population",
              "code": "initial-population",
              "display": "Initial Population"
            } ]
          },
          "count": 1
        }, {
          "id": "Denominator_1",
          "code": {
            "coding": [ {
              "system": "http://terminology.hl7.org/CodeSystem/measure-population",
              "code": "denominator",
              "display": "Denominator"
            } ]
          },
          "count": 0
        }, {
          "id": "Numerator_1",
          "code": {
            "coding": [ {
              "system": "http://terminology.hl7.org/CodeSystem/measure-population",
              "code": "numerator",
              "display": "Numerator"
            } ]
          },
          "count": 0
        }, {
          "id": "NumeratorExclusion_1",
          "code": {
            "coding": [ {
              "system": "http://terminology.hl7.org/CodeSystem/measure-population",
              "code": "numerator-exclusion",
              "display": "Numerator Exclusion"
            } ]
          },
          "count": 0
        } ],
        "measureScore": {
          "value": 0.0
        }
      }, {
        "id": "Group_2",
        "population": [ {
          "id": "InitialPopulation_2",
          "code": {
            "coding": [ {
              "system": "http://terminology.hl7.org/CodeSystem/measure-population",
              "code": "initial-population",
              "display": "Initial Population"
            } ]
          },
          "count": 1
        }, {
          "id": "Denominator_2",
          "code": {
            "coding": [ {
              "system": "http://terminology.hl7.org/CodeSystem/measure-population",
              "code": "denominator",
              "display": "Denominator"
            } ]
          },
          "count": 0
        }, {
          "id": "Numerator_2",
          "code": {
            "coding": [ {
              "system": "http://terminology.hl7.org/CodeSystem/measure-population",
              "code": "numerator",
              "display": "Numerator"
            } ]
          },
          "count": 0
        }, {
          "id": "NumeratorExclusion_2",
          "code": {
            "coding": [ {
              "system": "http://terminology.hl7.org/CodeSystem/measure-population",
              "code": "numerator-exclusion",
              "display": "Numerator Exclusion"
            } ]
          },
          "count": 0
        } ],
        "measureScore": {
          "value": 0.0
        }
      } ],
      "evaluatedResource": [ {
        "reference": "Patient/46c495dc-7e07-4831-8de3-3f6aa6c478ae"
      }, {
        "reference": "Observation/3ede6b56-6d54-45a0-9419-226e325cf431"
      }, {
        "reference": "Observation/c87d5061-c9a3-4137-967c-036ad7307842"
      }, {
        "reference": "Encounter/2343b2bd-950f-49f4-8363-216eeaa36ea8"
      }, {
        "reference": "Coverage/f21068ad-3423-4bc4-b4cb-59d1a07fec88"
      }, {
        "reference": "Procedure/2679fccc-607f-48b6-ab6b-7ba504aa4f18"
      }, {
        "reference": "Organization/a05b7199-6caf-423e-b8e8-8580529cc2fd"
      }, {
        "reference": "Practitioner/a48c9ebe-1acd-4d5a-a5d3-9b0f02994b57"
      } ]
    },
    "request": {
      "method": "PUT",
      "url": "MeasureReport/d1d91f6a-ed4f-4e19-8798-23b9de5c1e91"
    }
  } ]
}