{
  "resourceType": "Bundle",
  "id": "IP2Pass-SameMed210Days1DayOverlap",
  "type": "transaction",
  "entry": [ {
    "fullUrl": "https://madie.cms.gov/Patient/a46db6aa-5016-4111-bc4e-a31156c87ec6",
    "resource": {
      "resourceType": "Patient",
      "id": "a46db6aa-5016-4111-bc4e-a31156c87ec6",
      "meta": {
        "profile": [ "http://hl7.org/fhir/us/qicore/StructureDefinition/qicore-patient" ]
      },
      "extension": [ {
        "url": "http://hl7.org/fhir/us/core/StructureDefinition/us-core-race",
        "extension": [ {
          "url": "ombCategory",
          "valueCoding": {
            "system": "urn:oid:2.16.840.1.113883.6.238",
            "code": "2028-9",
            "display": "Asian"
          }
        }, {
          "url": "text",
          "valueString": "Asian"
        } ]
      }, {
        "url": "http://hl7.org/fhir/us/core/StructureDefinition/us-core-ethnicity",
        "extension": [ {
          "url": "ombCategory",
          "valueCoding": {
            "system": "urn:oid:2.16.840.1.113883.6.238",
            "code": "2135-2",
            "display": "Hispanic or Latino"
          }
        }, {
          "url": "text",
          "valueString": "Hispanic or Latino"
        } ]
      } ],
      "identifier": [ {
        "system": "http://hospital.smarthealthit.org",
        "value": "999999995"
      } ],
      "name": [ {
        "family": "Bertha",
        "given": [ "Betty" ]
      } ],
      "gender": "female",
      "birthDate": "2017-12-31"
    },
    "request": {
      "method": "PUT",
      "url": "Patient/a46db6aa-5016-4111-bc4e-a31156c87ec6"
    }
  }, {
    "fullUrl": "https://madie.cms.gov/Encounter/51818a60-3d50-42ea-a162-4b90d7df31ec",
    "resource": {
      "resourceType": "Encounter",
      "id": "51818a60-3d50-42ea-a162-4b90d7df31ec",
      "meta": {
        "profile": [ "http://hl7.org/fhir/us/qicore/StructureDefinition/qicore-encounter" ]
      },
      "status": "finished",
      "class": {
        "system": "http://terminology.hl7.org/CodeSystem/v3-ActCode",
        "code": "AMB",
        "display": "ambulatory"
      },
      "type": [ {
        "coding": [ {
          "system": "http://snomed.info/sct",
          "code": "185464004",
          "display": "Out of hours visit - not night visit (procedure)"
        } ]
      } ],
      "subject": {
        "reference": "Patient/a46db6aa-5016-4111-bc4e-a31156c87ec6"
      },
      "period": {
        "start": "2026-01-01T00:00:00.000+00:00",
        "end": "2026-01-01T01:00:00.000+00:00"
      }
    },
    "request": {
      "method": "PUT",
      "url": "Encounter/51818a60-3d50-42ea-a162-4b90d7df31ec"
    }
  }, {
    "fullUrl": "https://madie.cms.gov/MedicationRequest/ca4f1850-7382-4968-b0c3-484e04b1c942",
    "resource": {
      "resourceType": "MedicationRequest",
      "id": "ca4f1850-7382-4968-b0c3-484e04b1c942",
      "meta": {
        "profile": [ "http://hl7.org/fhir/us/qicore/StructureDefinition/qicore-medicationrequest" ]
      },
      "status": "completed",
      "intent": "order",
      "medicationCodeableConcept": {
        "coding": [ {
          "system": "http://www.nlm.nih.gov/research/umls/rxnorm",
          "code": "349593",
          "display": "atomoxetine 25 MG Oral Capsule"
        } ]
      },
      "subject": {
        "reference": "Patient/a46db6aa-5016-4111-bc4e-a31156c87ec6"
      },
      "authoredOn": "2026-01-02T00:00:00.000+00:00",
      "requester": {
        "reference": "Practitioner/example"
      },
      "dispenseRequest": {
        "expectedSupplyDuration": {
          "value": 1,
          "system": "http://unitsofmeasure.org",
          "code": "d"
        }
      }
    },
    "request": {
      "method": "PUT",
      "url": "MedicationRequest/ca4f1850-7382-4968-b0c3-484e04b1c942"
    }
  }, {
    "fullUrl": "https://madie.cms.gov/MedicationRequest/0f53401b-9123-4bb9-900d-c9fe916e8157",
    "resource": {
      "resourceType": "MedicationRequest",
      "id": "0f53401b-9123-4bb9-900d-c9fe916e8157",
      "meta": {
        "profile": [ "http://hl7.org/fhir/us/qicore/StructureDefinition/qicore-medicationrequest" ]
      },
      "status": "completed",
      "intent": "order",
      "medicationCodeableConcept": {
        "coding": [ {
          "system": "http://www.nlm.nih.gov/research/umls/rxnorm",
          "code": "349593",
          "display": "atomoxetine 25 MG Oral Capsule"
        } ]
      },
      "subject": {
        "reference": "Patient/a46db6aa-5016-4111-bc4e-a31156c87ec6"
      },
      "authoredOn": "2026-01-02T00:00:00.000+00:00",
      "requester": {
        "reference": "Practitioner/example"
      },
      "dispenseRequest": {
        "expectedSupplyDuration": {
          "value": 209,
          "system": "http://unitsofmeasure.org",
          "code": "d"
        }
      }
    },
    "request": {
      "method": "PUT",
      "url": "MedicationRequest/0f53401b-9123-4bb9-900d-c9fe916e8157"
    }
  }, {
    "fullUrl": "https://madie.cms.gov/Encounter/478e7640-5e34-4431-9a3a-e7de867e06f2",
    "resource": {
      "resourceType": "Encounter",
      "id": "478e7640-5e34-4431-9a3a-e7de867e06f2",
      "meta": {
        "profile": [ "http://hl7.org/fhir/us/qicore/StructureDefinition/qicore-encounter" ]
      },
      "status": "finished",
      "class": {
        "system": "http://terminology.hl7.org/CodeSystem/v3-ActCode",
        "code": "AMB",
        "display": "ambulatory"
      },
      "type": [ {
        "coding": [ {
          "system": "http://www.ama-assn.org/go/cpt",
          "code": "90791",
          "display": "Psychiatric diagnostic evaluation"
        } ]
      } ],
      "subject": {
        "reference": "Patient/a46db6aa-5016-4111-bc4e-a31156c87ec6"
      },
      "period": {
        "start": "2026-01-31T00:00:00.000+00:00",
        "end": "2026-01-31T01:00:00.000+00:00"
      }
    },
    "request": {
      "method": "PUT",
      "url": "Encounter/478e7640-5e34-4431-9a3a-e7de867e06f2"
    }
  }, {
    "fullUrl": "https://madie.cms.gov/MeasureReport/dfa8baab-54e0-4173-987b-3ade0dad9a78",
    "resource": {
      "resourceType": "MeasureReport",
      "id": "dfa8baab-54e0-4173-987b-3ade0dad9a78",
      "meta": {
        "profile": [ "http://hl7.org/fhir/us/cqfmeasures/StructureDefinition/test-case-cqfm" ]
      },
      "contained": [ {
        "resourceType": "Parameters",
        "id": "a23f6fd0-8b07-490d-a6c4-c89975bdf9a2-parameters",
        "parameter": [ {
          "name": "subject",
          "valueString": "a46db6aa-5016-4111-bc4e-a31156c87ec6"
        } ]
      } ],
      "extension": [ {
        "url": "http://hl7.org/fhir/StructureDefinition/cqf-inputParameters",
        "valueReference": {
          "reference": "#a23f6fd0-8b07-490d-a6c4-c89975bdf9a2-parameters"
        }
      }, {
        "url": "http://hl7.org/fhir/us/cqfmeasures/StructureDefinition/cqfm-testCaseDescription",
        "valueMarkdown": "Same atomextine med two orders one is 1 day supply and the other is 209 days supply with one day overlap"
      } ],
      "modifierExtension": [ {
        "url": "http://hl7.org/fhir/us/cqfmeasures/StructureDefinition/cqfm-isTestCase",
        "valueBoolean": true
      } ],
      "status": "complete",
      "type": "individual",
      "measure": "https://madie.cms.gov/Measure/CMS136FHIRChildADHDMedFollowUp",
      "period": {
        "start": "2026-01-01",
        "end": "2026-12-31"
      },
      "group": [ {
        "id": "Group_1",
        "population": [ {
          "id": "InitialPopulation_1",
          "code": {
            "coding": [ {
              "system": "http://terminology.hl7.org/CodeSystem/measure-population",
              "code": "initial-population",
              "display": "Initial Population"
            } ]
          },
          "count": 1
        }, {
          "id": "Denominator_1",
          "code": {
            "coding": [ {
              "system": "http://terminology.hl7.org/CodeSystem/measure-population",
              "code": "denominator",
              "display": "Denominator"
            } ]
          },
          "count": 1
        }, {
          "id": "DenominatorExclusion_1",
          "code": {
            "coding": [ {
              "system": "http://terminology.hl7.org/CodeSystem/measure-population",
              "code": "denominator-exclusion",
              "display": "Denominator Exclusion"
            } ]
          },
          "count": 0
        }, {
          "id": "Numerator_1",
          "code": {
            "coding": [ {
              "system": "http://terminology.hl7.org/CodeSystem/measure-population",
              "code": "numerator",
              "display": "Numerator"
            } ]
          },
          "count": 1
        } ],
        "measureScore": {
          "value": 1.0
        }
      }, {
        "id": "Group_2",
        "population": [ {
          "id": "InitialPopulation_2",
          "code": {
            "coding": [ {
              "system": "http://terminology.hl7.org/CodeSystem/measure-population",
              "code": "initial-population",
              "display": "Initial Population"
            } ]
          },
          "count": 1
        }, {
          "id": "Denominator_2",
          "code": {
            "coding": [ {
              "system": "http://terminology.hl7.org/CodeSystem/measure-population",
              "code": "denominator",
              "display": "Denominator"
            } ]
          },
          "count": 1
        }, {
          "id": "DenominatorExclusion_2",
          "code": {
            "coding": [ {
              "system": "http://terminology.hl7.org/CodeSystem/measure-population",
              "code": "denominator-exclusion",
              "display": "Denominator Exclusion"
            } ]
          },
          "count": 0
        }, {
          "id": "Numerator_2",
          "code": {
            "coding": [ {
              "system": "http://terminology.hl7.org/CodeSystem/measure-population",
              "code": "numerator",
              "display": "Numerator"
            } ]
          },
          "count": 0
        } ],
        "measureScore": {
          "value": 1.0
        }
      } ],
      "evaluatedResource": [ {
        "reference": "Patient/a46db6aa-5016-4111-bc4e-a31156c87ec6"
      }, {
        "reference": "Encounter/51818a60-3d50-42ea-a162-4b90d7df31ec"
      }, {
        "reference": "MedicationRequest/ca4f1850-7382-4968-b0c3-484e04b1c942"
      }, {
        "reference": "MedicationRequest/0f53401b-9123-4bb9-900d-c9fe916e8157"
      }, {
        "reference": "Encounter/478e7640-5e34-4431-9a3a-e7de867e06f2"
      } ]
    },
    "request": {
      "method": "PUT",
      "url": "MeasureReport/dfa8baab-54e0-4173-987b-3ade0dad9a78"
    }
  } ]
}