{
  "resourceType": "Bundle",
  "id": "NUMERPass-InjuryDiagHasNoIndicator",
  "type": "transaction",
  "entry": [ {
    "fullUrl": "https://madie.cms.gov/Encounter/4d87b404-7c1e-4631-b511-56e2140144fb",
    "resource": {
      "resourceType": "Encounter",
      "id": "4d87b404-7c1e-4631-b511-56e2140144fb",
      "meta": {
        "profile": [ "http://hl7.org/fhir/us/qicore/StructureDefinition/qicore-encounter" ]
      },
      "status": "finished",
      "class": {
        "system": "http://terminology.hl7.org/CodeSystem/v3-ActCode",
        "code": "IMP",
        "display": "inpatient encounter"
      },
      "type": [ {
        "coding": [ {
          "system": "http://snomed.info/sct",
          "code": "183452005"
        } ]
      } ],
      "subject": {
        "reference": "Patient/e6d91b78-a66f-4fcc-a9a7-edb3d862803e"
      },
      "period": {
        "start": "2026-11-09T11:00:00.000+00:00",
        "end": "2026-11-12T08:15:00.000+00:00"
      },
      "reasonReference": [ {
        "reference": "Condition/9a59fe22-7a1a-43a0-a17e-988291c2b8d9"
      }, {
        "reference": "Condition/bb206785-21cd-4c09-b89b-592c4555d15f"
      } ]
    },
    "request": {
      "method": "PUT",
      "url": "Encounter/4d87b404-7c1e-4631-b511-56e2140144fb"
    }
  }, {
    "fullUrl": "https://madie.cms.gov/Encounter/6db8568f-28eb-449b-89a3-3be6f75b994e",
    "resource": {
      "resourceType": "Encounter",
      "id": "6db8568f-28eb-449b-89a3-3be6f75b994e",
      "meta": {
        "profile": [ "http://hl7.org/fhir/us/qicore/StructureDefinition/qicore-encounter" ]
      },
      "status": "finished",
      "class": {
        "system": "http://terminology.hl7.org/CodeSystem/v3-ActCode",
        "code": "IMP",
        "display": "inpatient encounter"
      },
      "type": [ {
        "coding": [ {
          "system": "http://snomed.info/sct",
          "code": "4525004"
        } ]
      } ],
      "subject": {
        "reference": "Patient/e6d91b78-a66f-4fcc-a9a7-edb3d862803e"
      },
      "period": {
        "start": "2026-11-09T08:00:00.000+00:00",
        "end": "2026-11-09T10:15:00.000+00:00"
      }
    },
    "request": {
      "method": "PUT",
      "url": "Encounter/6db8568f-28eb-449b-89a3-3be6f75b994e"
    }
  }, {
    "fullUrl": "https://madie.cms.gov/Condition/bb206785-21cd-4c09-b89b-592c4555d15f",
    "resource": {
      "resourceType": "Condition",
      "id": "bb206785-21cd-4c09-b89b-592c4555d15f",
      "meta": {
        "profile": [ "http://hl7.org/fhir/us/qicore/StructureDefinition/qicore-condition-encounter-diagnosis" ]
      },
      "clinicalStatus": {
        "coding": [ {
          "system": "http://terminology.hl7.org/CodeSystem/condition-clinical",
          "code": "active"
        } ]
      },
      "verificationStatus": {
        "coding": [ {
          "system": "http://terminology.hl7.org/CodeSystem/condition-ver-status",
          "code": "confirmed"
        } ]
      },
      "category": [ {
        "coding": [ {
          "system": "http://terminology.hl7.org/CodeSystem/condition-category",
          "code": "encounter-diagnosis",
          "display": "Encounter Diagnosis"
        } ]
      } ],
      "code": {
        "coding": [ {
          "system": "http://hl7.org/fhir/sid/icd-10-cm",
          "code": "M80.00XA"
        } ]
      },
      "subject": {
        "reference": "Patient/e6d91b78-a66f-4fcc-a9a7-edb3d862803e"
      },
      "encounter": {
        "reference": "Encounter/4d87b404-7c1e-4631-b511-56e2140144fb"
      }
    },
    "request": {
      "method": "PUT",
      "url": "Condition/bb206785-21cd-4c09-b89b-592c4555d15f"
    }
  }, {
    "fullUrl": "https://madie.cms.gov/Condition/9a59fe22-7a1a-43a0-a17e-988291c2b8d9",
    "resource": {
      "resourceType": "Condition",
      "id": "9a59fe22-7a1a-43a0-a17e-988291c2b8d9",
      "meta": {
        "profile": [ "http://hl7.org/fhir/us/qicore/StructureDefinition/qicore-condition-encounter-diagnosis" ]
      },
      "clinicalStatus": {
        "coding": [ {
          "system": "http://terminology.hl7.org/CodeSystem/condition-clinical",
          "code": "active"
        } ]
      },
      "verificationStatus": {
        "coding": [ {
          "system": "http://terminology.hl7.org/CodeSystem/condition-ver-status",
          "code": "confirmed"
        } ]
      },
      "category": [ {
        "coding": [ {
          "system": "http://terminology.hl7.org/CodeSystem/condition-category",
          "code": "encounter-diagnosis",
          "display": "Encounter Diagnosis"
        } ]
      } ],
      "code": {
        "coding": [ {
          "system": "http://hl7.org/fhir/sid/icd-10-cm",
          "code": "M80.00XA"
        } ]
      },
      "subject": {
        "reference": "Patient/e6d91b78-a66f-4fcc-a9a7-edb3d862803e"
      },
      "encounter": {
        "reference": "Encounter/4d87b404-7c1e-4631-b511-56e2140144fb"
      }
    },
    "request": {
      "method": "PUT",
      "url": "Condition/9a59fe22-7a1a-43a0-a17e-988291c2b8d9"
    }
  }, {
    "fullUrl": "https://madie.cms.gov/Patient/e6d91b78-a66f-4fcc-a9a7-edb3d862803e",
    "resource": {
      "resourceType": "Patient",
      "id": "e6d91b78-a66f-4fcc-a9a7-edb3d862803e",
      "meta": {
        "profile": [ "http://hl7.org/fhir/us/qicore/StructureDefinition/qicore-patient" ]
      },
      "extension": [ {
        "url": "http://hl7.org/fhir/us/core/StructureDefinition/us-core-race",
        "extension": [ {
          "url": "ombCategory",
          "valueCoding": {
            "system": "urn:oid:2.16.840.1.113883.6.238",
            "code": "2054-5",
            "display": "Black or African American",
            "userSelected": true
          }
        }, {
          "url": "text",
          "valueString": "Black or African American"
        } ]
      }, {
        "url": "http://hl7.org/fhir/us/core/StructureDefinition/us-core-ethnicity",
        "extension": [ {
          "url": "ombCategory",
          "valueCoding": {
            "system": "urn:oid:2.16.840.1.113883.6.238",
            "code": "2186-5",
            "display": "Not Hispanic or Latino",
            "userSelected": true
          }
        }, {
          "url": "text",
          "valueString": "Not Hispanic or Latino"
        } ]
      } ],
      "identifier": [ {
        "type": {
          "coding": [ {
            "system": "http://terminology.hl7.org/CodeSystem/v2-0203",
            "code": "MR"
          } ]
        },
        "system": "https://bonnie-fhir.healthit.gov/",
        "value": "61152a3b98086b7a79cbd7c1"
      } ],
      "active": true,
      "name": [ {
        "use": "usual",
        "family": "NUMERPass",
        "given": [ "InjuryDiagHasNoIndicator" ]
      } ],
      "gender": "male",
      "birthDate": "1964-12-11"
    },
    "request": {
      "method": "PUT",
      "url": "Patient/e6d91b78-a66f-4fcc-a9a7-edb3d862803e"
    }
  }, {
    "fullUrl": "https://madie.cms.gov/Claim/bd849de3-fab3-4463-907e-2a142292b7cf",
    "resource": {
      "resourceType": "Claim",
      "id": "bd849de3-fab3-4463-907e-2a142292b7cf",
      "meta": {
        "profile": [ "http://hl7.org/fhir/us/qicore/StructureDefinition/qicore-claim" ]
      },
      "status": "active",
      "type": {
        "coding": [ {
          "system": "http://terminology.hl7.org/CodeSystem/claim-type",
          "code": "professional",
          "display": "Professional"
        } ]
      },
      "use": "claim",
      "patient": {
        "reference": "Patient/e6d91b78-a66f-4fcc-a9a7-edb3d862803e"
      },
      "created": "2026-11-13",
      "provider": {
        "reference": "Practitioner/1c357e5f-f570-429d-b443-94c4211e4294"
      },
      "priority": {
        "coding": [ {
          "system": "http://terminology.hl7.org/CodeSystem/processpriority",
          "code": "normal"
        } ]
      },
      "diagnosis": [ {
        "sequence": 1,
        "diagnosisCodeableConcept": {
          "coding": [ {
            "system": "http://hl7.org/fhir/sid/icd-10-cm",
            "code": "W01.0XXA"
          } ]
        }
      } ],
      "insurance": [ {
        "sequence": 1,
        "focal": true,
        "coverage": {
          "reference": "Coverage/34369e1f-dd56-41f6-af38-0aa441e25eb4"
        }
      } ],
      "item": [ {
        "sequence": 1,
        "productOrService": {
          "coding": [ {
            "system": "http://terminology.hl7.org/CodeSystem/ex-USCLS",
            "code": "1101"
          } ]
        },
        "encounter": [ {
          "reference": "Encounter/4d87b404-7c1e-4631-b511-56e2140144fb"
        } ]
      } ]
    },
    "request": {
      "method": "PUT",
      "url": "Claim/bd849de3-fab3-4463-907e-2a142292b7cf"
    }
  }, {
    "fullUrl": "https://madie.cms.gov/Claim/4dee9c95-d07f-4e53-8ef2-8c995a2dd96e",
    "resource": {
      "resourceType": "Claim",
      "id": "4dee9c95-d07f-4e53-8ef2-8c995a2dd96e",
      "meta": {
        "profile": [ "http://hl7.org/fhir/us/qicore/StructureDefinition/qicore-claim" ]
      },
      "status": "active",
      "type": {
        "coding": [ {
          "system": "http://terminology.hl7.org/CodeSystem/claim-type",
          "code": "professional",
          "display": "Professional"
        } ]
      },
      "use": "claim",
      "patient": {
        "reference": "Patient/e6d91b78-a66f-4fcc-a9a7-edb3d862803e"
      },
      "created": "2026-11-13",
      "provider": {
        "reference": "Practitioner/1c357e5f-f570-429d-b443-94c4211e4294"
      },
      "priority": {
        "coding": [ {
          "system": "http://terminology.hl7.org/CodeSystem/processpriority",
          "code": "normal"
        } ]
      },
      "diagnosis": [ {
        "sequence": 2,
        "diagnosisCodeableConcept": {
          "coding": [ {
            "system": "http://hl7.org/fhir/sid/icd-10-cm",
            "code": "M80.00XA"
          } ]
        }
      } ],
      "insurance": [ {
        "sequence": 1,
        "focal": true,
        "coverage": {
          "reference": "Coverage/34369e1f-dd56-41f6-af38-0aa441e25eb4"
        }
      } ],
      "item": [ {
        "sequence": 1,
        "diagnosisSequence": [ 1, 2 ],
        "productOrService": {
          "coding": [ {
            "system": "http://terminology.hl7.org/CodeSystem/ex-USCLS",
            "code": "1101"
          } ]
        },
        "encounter": [ {
          "reference": "Encounter/4d87b404-7c1e-4631-b511-56e2140144fb"
        } ]
      } ]
    },
    "request": {
      "method": "PUT",
      "url": "Claim/4dee9c95-d07f-4e53-8ef2-8c995a2dd96e"
    }
  }, {
    "fullUrl": "https://madie.cms.gov/AdverseEvent/37e0793b-b85b-4029-a3a2-19276eb65422",
    "resource": {
      "resourceType": "AdverseEvent",
      "id": "37e0793b-b85b-4029-a3a2-19276eb65422",
      "meta": {
        "profile": [ "http://hl7.org/fhir/us/qicore/StructureDefinition/qicore-adverseevent" ]
      },
      "actuality": "actual",
      "event": {
        "coding": [ {
          "system": "http://hl7.org/fhir/sid/icd-10-cm",
          "code": "W01.0XXA"
        } ]
      },
      "subject": {
        "reference": "Patient/e6d91b78-a66f-4fcc-a9a7-edb3d862803e"
      },
      "encounter": {
        "reference": "Encounter/4d87b404-7c1e-4631-b511-56e2140144fb"
      },
      "date": "2026-11-09T08:00:00.000+00:00",
      "resultingCondition": [ {
        "reference": "Condition/bb206785-21cd-4c09-b89b-592c4555d15f"
      } ]
    },
    "request": {
      "method": "PUT",
      "url": "AdverseEvent/37e0793b-b85b-4029-a3a2-19276eb65422"
    }
  }, {
    "fullUrl": "https://madie.cms.gov/Practitioner/1c357e5f-f570-429d-b443-94c4211e4294",
    "resource": {
      "resourceType": "Practitioner",
      "id": "1c357e5f-f570-429d-b443-94c4211e4294",
      "identifier": [ {
        "system": "http://www.cms.gov/identifiers/pracitioners",
        "value": "P12345"
      } ],
      "name": [ {
        "use": "official",
        "family": "Smith",
        "given": [ "John" ]
      } ],
      "qualification": [ {
        "identifier": [ {
          "system": "http://hl7.org/fhir/sid/us-npi",
          "value": "1234567890"
        } ],
        "code": {
          "coding": [ {
            "system": "http://terminology.hl7.org/CodeSystem/v2-0203",
            "code": "MD",
            "display": "Medical License number"
          } ]
        }
      } ]
    },
    "request": {
      "method": "PUT",
      "url": "Practitioner/1c357e5f-f570-429d-b443-94c4211e4294"
    }
  }, {
    "fullUrl": "https://madie.cms.gov/Coverage/34369e1f-dd56-41f6-af38-0aa441e25eb4",
    "resource": {
      "resourceType": "Coverage",
      "id": "34369e1f-dd56-41f6-af38-0aa441e25eb4",
      "status": "active",
      "beneficiary": {
        "reference": "Patient/e6d91b78-a66f-4fcc-a9a7-edb3d862803e"
      },
      "payor": [ {
        "reference": "Organization/5c69f0e3-cfe1-4572-af2e-ff5499cab439"
      } ]
    },
    "request": {
      "method": "PUT",
      "url": "Coverage/34369e1f-dd56-41f6-af38-0aa441e25eb4"
    }
  }, {
    "fullUrl": "https://madie.cms.gov/Organization/5c69f0e3-cfe1-4572-af2e-ff5499cab439",
    "resource": {
      "resourceType": "Organization",
      "id": "5c69f0e3-cfe1-4572-af2e-ff5499cab439",
      "identifier": [ {
        "system": "http://cms.gov/insurance-ids",
        "value": "AET12345"
      } ],
      "type": [ {
        "coding": [ {
          "system": "http://terminology.hl7.org/CodeSystem/organization-type",
          "code": "prov",
          "display": "Healthcare Provider"
        } ]
      } ],
      "name": "Aetna Insurance",
      "telecom": [ {
        "system": "phone",
        "value": "+1-800-123-4567"
      } ],
      "address": [ {
        "line": [ "123 Main Street" ],
        "city": "Cityville",
        "state": "CA",
        "postalCode": "12345",
        "country": "USA"
      } ]
    },
    "request": {
      "method": "PUT",
      "url": "Organization/5c69f0e3-cfe1-4572-af2e-ff5499cab439"
    }
  }, {
    "fullUrl": "https://madie.cms.gov/MeasureReport/ccce2151-63ad-4f73-aa29-a3f52cd6ba54",
    "resource": {
      "resourceType": "MeasureReport",
      "id": "ccce2151-63ad-4f73-aa29-a3f52cd6ba54",
      "meta": {
        "profile": [ "http://hl7.org/fhir/us/cqfmeasures/StructureDefinition/test-case-cqfm" ]
      },
      "contained": [ {
        "resourceType": "Parameters",
        "id": "f52a9c67-ab14-46e1-802f-28ffa7e17a30-parameters",
        "parameter": [ {
          "name": "subject",
          "valueString": "e6d91b78-a66f-4fcc-a9a7-edb3d862803e"
        } ]
      } ],
      "extension": [ {
        "url": "http://hl7.org/fhir/StructureDefinition/cqf-inputParameters",
        "valueReference": {
          "reference": "#f52a9c67-ab14-46e1-802f-28ffa7e17a30-parameters"
        }
      }, {
        "url": "http://hl7.org/fhir/us/cqfmeasures/StructureDefinition/cqfm-testCaseDescription",
        "valueMarkdown": "Encounter with Adverse Event Fall. Encounter diag of injury, the present on admission indicator is null. Meets Numerator. "
      } ],
      "modifierExtension": [ {
        "url": "http://hl7.org/fhir/us/cqfmeasures/StructureDefinition/cqfm-isTestCase",
        "valueBoolean": true
      } ],
      "status": "complete",
      "type": "individual",
      "measure": "https://madie.cms.gov/Measure/CMS1017FHIRHHFI",
      "period": {
        "start": "2026-01-01",
        "end": "2026-12-31"
      },
      "group": [ {
        "id": "Group_1",
        "population": [ {
          "id": "InitialPopulation_1",
          "code": {
            "coding": [ {
              "system": "http://terminology.hl7.org/CodeSystem/measure-population",
              "code": "initial-population",
              "display": "Initial Population"
            } ]
          },
          "count": 1
        }, {
          "id": "Denominator_1",
          "code": {
            "coding": [ {
              "system": "http://terminology.hl7.org/CodeSystem/measure-population",
              "code": "denominator",
              "display": "Denominator"
            } ]
          },
          "count": 1
        }, {
          "id": "DenominatorExclusion_1",
          "code": {
            "coding": [ {
              "system": "http://terminology.hl7.org/CodeSystem/measure-population",
              "code": "denominator-exclusion",
              "display": "Denominator Exclusion"
            } ]
          },
          "count": 0
        }, {
          "id": "Numerator_1",
          "code": {
            "coding": [ {
              "system": "http://terminology.hl7.org/CodeSystem/measure-population",
              "code": "numerator",
              "display": "Numerator"
            } ]
          },
          "count": 1
        }, {
          "id": "NumeratorExclusion_1",
          "code": {
            "coding": [ {
              "system": "http://terminology.hl7.org/CodeSystem/measure-population",
              "code": "numerator-exclusion",
              "display": "Numerator Exclusion"
            } ]
          },
          "count": 0
        }, {
          "id": "MeasureObservation_1_1_1",
          "code": {
            "coding": [ {
              "system": "http://terminology.hl7.org/CodeSystem/measure-population",
              "code": "measure-observation",
              "display": "Measure Observation"
            } ]
          },
          "count": 3
        }, {
          "id": "MeasureObservation_1_2_1",
          "code": {
            "coding": [ {
              "system": "http://terminology.hl7.org/CodeSystem/measure-population",
              "code": "measure-observation",
              "display": "Measure Observation"
            } ]
          },
          "count": 1
        } ],
        "measureScore": {
          "value": 0.0
        }
      } ],
      "evaluatedResource": [ {
        "reference": "Encounter/4d87b404-7c1e-4631-b511-56e2140144fb"
      }, {
        "reference": "Encounter/6db8568f-28eb-449b-89a3-3be6f75b994e"
      }, {
        "reference": "Condition/bb206785-21cd-4c09-b89b-592c4555d15f"
      }, {
        "reference": "Condition/9a59fe22-7a1a-43a0-a17e-988291c2b8d9"
      }, {
        "reference": "Patient/e6d91b78-a66f-4fcc-a9a7-edb3d862803e"
      }, {
        "reference": "Claim/bd849de3-fab3-4463-907e-2a142292b7cf"
      }, {
        "reference": "Claim/4dee9c95-d07f-4e53-8ef2-8c995a2dd96e"
      }, {
        "reference": "AdverseEvent/37e0793b-b85b-4029-a3a2-19276eb65422"
      }, {
        "reference": "Practitioner/1c357e5f-f570-429d-b443-94c4211e4294"
      }, {
        "reference": "Coverage/34369e1f-dd56-41f6-af38-0aa441e25eb4"
      }, {
        "reference": "Organization/5c69f0e3-cfe1-4572-af2e-ff5499cab439"
      } ]
    },
    "request": {
      "method": "PUT",
      "url": "MeasureReport/ccce2151-63ad-4f73-aa29-a3f52cd6ba54"
    }
  } ]
}