{
  "resourceType": "Bundle",
  "id": "IPPPass-SDECoverage2",
  "type": "transaction",
  "entry": [ {
    "fullUrl": "https://madie.cms.gov/Patient/e0fdd5df-7671-417c-9eef-20873cd647d6",
    "resource": {
      "resourceType": "Patient",
      "id": "e0fdd5df-7671-417c-9eef-20873cd647d6",
      "meta": {
        "profile": [ "http://hl7.org/fhir/us/qicore/StructureDefinition/qicore-patient" ]
      },
      "extension": [ {
        "url": "http://hl7.org/fhir/us/core/StructureDefinition/us-core-race",
        "extension": [ {
          "url": "ombCategory",
          "valueCoding": {
            "system": "urn:oid:2.16.840.1.113883.6.238",
            "code": "2028-9",
            "display": "Asian",
            "userSelected": true
          }
        }, {
          "url": "text",
          "valueString": "Asian"
        }, {
          "url": "detailed",
          "valueCoding": {
            "system": "urn:oid:2.16.840.1.113883.6.238",
            "code": "1653-5",
            "display": "Tohono O'Odham"
          }
        } ]
      }, {
        "url": "http://hl7.org/fhir/us/core/StructureDefinition/us-core-ethnicity",
        "extension": [ {
          "url": "ombCategory",
          "valueCoding": {
            "system": "urn:oid:2.16.840.1.113883.6.238",
            "code": "2135-2",
            "display": "Hispanic or Latino",
            "userSelected": true
          }
        }, {
          "url": "text",
          "valueString": "Hispanic or Latino"
        }, {
          "url": "detailed",
          "valueCoding": {
            "system": "urn:oid:2.16.840.1.113883.6.238",
            "code": "2180-8",
            "display": "Puerto Rican"
          }
        } ]
      }, {
        "url": "http://hl7.org/fhir/us/core/StructureDefinition/us-core-sex",
        "valueCode": "248153000"
      } ],
      "identifier": [ {
        "system": "http://hospital.smarthealthit.org",
        "value": "999999995"
      } ],
      "name": [ {
        "family": "SDE",
        "given": [ "SDECoverage2" ]
      } ],
      "gender": "unknown",
      "birthDate": "2002-12-31"
    },
    "request": {
      "method": "PUT",
      "url": "Patient/e0fdd5df-7671-417c-9eef-20873cd647d6"
    }
  }, {
    "fullUrl": "https://madie.cms.gov/Encounter/a84820f5-b6ad-4802-ae46-4e7ead2be4c8",
    "resource": {
      "resourceType": "Encounter",
      "id": "a84820f5-b6ad-4802-ae46-4e7ead2be4c8",
      "meta": {
        "profile": [ "http://hl7.org/fhir/us/qicore/StructureDefinition/qicore-encounter" ]
      },
      "status": "finished",
      "class": {
        "system": "http://terminology.hl7.org/CodeSystem/v3-ActCode",
        "code": "AMB",
        "display": "ambulatory"
      },
      "type": [ {
        "coding": [ {
          "system": "http://snomed.info/sct",
          "code": "3391000175108",
          "display": "Office visit for pediatric care and assessment (procedure)"
        } ]
      } ],
      "subject": {
        "reference": "Patient/e0fdd5df-7671-417c-9eef-20873cd647d6"
      },
      "period": {
        "start": "2026-01-01T01:00:00.000+00:00",
        "end": "2026-01-01T01:15:00.000+00:00"
      }
    },
    "request": {
      "method": "PUT",
      "url": "Encounter/a84820f5-b6ad-4802-ae46-4e7ead2be4c8"
    }
  }, {
    "fullUrl": "https://madie.cms.gov/Coverage/afd15537-f83c-4d2c-85f2-c2f5b86c2642",
    "resource": {
      "resourceType": "Coverage",
      "id": "afd15537-f83c-4d2c-85f2-c2f5b86c2642",
      "meta": {
        "profile": [ "http://hl7.org/fhir/us/qicore/StructureDefinition/qicore-coverage" ]
      },
      "identifier": [ {
        "system": "http://benefitsinc.com/certificate",
        "value": "12345"
      } ],
      "status": "active",
      "type": {
        "coding": [ {
          "system": "https://nahdo.org/sopt",
          "code": "59",
          "display": "Other Private Insurance"
        } ]
      },
      "policyHolder": {
        "reference": "Patient/e0fdd5df-7671-417c-9eef-20873cd647d6"
      },
      "subscriber": {
        "reference": "Patient/e0fdd5df-7671-417c-9eef-20873cd647d6"
      },
      "subscriberId": "12191",
      "beneficiary": {
        "reference": "Patient/e0fdd5df-7671-417c-9eef-20873cd647d6"
      },
      "dependent": "0",
      "relationship": {
        "coding": [ {
          "system": "http://terminology.hl7.org/CodeSystem/subscriber-relationship",
          "code": "self"
        } ]
      },
      "period": {
        "start": "2023-01-01T06:00:00.000+00:00",
        "end": "2023-01-01T11:06:01.000+00:00"
      },
      "payor": [ {
        "reference": "Patient/e0fdd5df-7671-417c-9eef-20873cd647d6"
      } ],
      "order": 9
    },
    "request": {
      "method": "PUT",
      "url": "Coverage/afd15537-f83c-4d2c-85f2-c2f5b86c2642"
    }
  }, {
    "fullUrl": "https://madie.cms.gov/MeasureReport/001c06a7-e932-48ca-87a8-50ae21d022f1",
    "resource": {
      "resourceType": "MeasureReport",
      "id": "001c06a7-e932-48ca-87a8-50ae21d022f1",
      "meta": {
        "profile": [ "http://hl7.org/fhir/us/cqfmeasures/StructureDefinition/test-case-cqfm" ]
      },
      "contained": [ {
        "resourceType": "Parameters",
        "id": "ed1bc1ff-f2bc-4cbe-9b05-69c0fe493c60-parameters",
        "parameter": [ {
          "name": "subject",
          "valueString": "e0fdd5df-7671-417c-9eef-20873cd647d6"
        } ]
      } ],
      "extension": [ {
        "url": "http://hl7.org/fhir/StructureDefinition/cqf-inputParameters",
        "valueReference": {
          "reference": "#ed1bc1ff-f2bc-4cbe-9b05-69c0fe493c60-parameters"
        }
      }, {
        "url": "http://hl7.org/fhir/us/cqfmeasures/StructureDefinition/cqfm-testCaseDescription",
        "valueMarkdown": "SDE coverage - testing for invalid gender code"
      } ],
      "modifierExtension": [ {
        "url": "http://hl7.org/fhir/us/cqfmeasures/StructureDefinition/cqfm-isTestCase",
        "valueBoolean": true
      } ],
      "status": "complete",
      "type": "individual",
      "measure": "https://madie.cms.gov/Measure/CMS124FHIRCervicalCancerScreen",
      "period": {
        "start": "2026-01-01",
        "end": "2026-12-31"
      },
      "group": [ {
        "id": "Group_1",
        "population": [ {
          "id": "InitialPopulation_1",
          "code": {
            "coding": [ {
              "system": "http://terminology.hl7.org/CodeSystem/measure-population",
              "code": "initial-population",
              "display": "Initial Population"
            } ]
          },
          "count": 0
        }, {
          "id": "Denominator_1",
          "code": {
            "coding": [ {
              "system": "http://terminology.hl7.org/CodeSystem/measure-population",
              "code": "denominator",
              "display": "Denominator"
            } ]
          },
          "count": 0
        }, {
          "id": "DenominatorExclusion_1",
          "code": {
            "coding": [ {
              "system": "http://terminology.hl7.org/CodeSystem/measure-population",
              "code": "denominator-exclusion",
              "display": "Denominator Exclusion"
            } ]
          },
          "count": 0
        }, {
          "id": "Numerator_1",
          "code": {
            "coding": [ {
              "system": "http://terminology.hl7.org/CodeSystem/measure-population",
              "code": "numerator",
              "display": "Numerator"
            } ]
          },
          "count": 0
        } ],
        "measureScore": {
          "value": 1.0
        }
      } ],
      "evaluatedResource": [ {
        "reference": "Patient/e0fdd5df-7671-417c-9eef-20873cd647d6"
      }, {
        "reference": "Encounter/a84820f5-b6ad-4802-ae46-4e7ead2be4c8"
      }, {
        "reference": "Coverage/afd15537-f83c-4d2c-85f2-c2f5b86c2642"
      } ]
    },
    "request": {
      "method": "PUT",
      "url": "MeasureReport/001c06a7-e932-48ca-87a8-50ae21d022f1"
    }
  } ]
}