{
  "resourceType": "Bundle",
  "id": "62b1dfab3968556e5150cf35",
  "type": "collection",
  "entry": [ {
    "fullUrl": "https://madie.cms.gov/Patient/d2cde80b-5a6c-48e9-b38a-de938f019096",
    "resource": {
      "resourceType": "Patient",
      "id": "d2cde80b-5a6c-48e9-b38a-de938f019096",
      "meta": {
        "profile": [ "http://hl7.org/fhir/us/qicore/StructureDefinition/qicore-patient" ]
      },
      "extension": [ {
        "url": "http://hl7.org/fhir/us/core/StructureDefinition/us-core-race",
        "extension": [ {
          "url": "ombCategory",
          "valueCoding": {
            "system": "urn:oid:2.16.840.1.113883.6.238",
            "code": "1002-5",
            "display": "American Indian or Alaska Native",
            "userSelected": true
          }
        }, {
          "url": "text",
          "valueString": "American Indian or Alaska Native"
        } ]
      }, {
        "url": "http://hl7.org/fhir/us/core/StructureDefinition/us-core-ethnicity",
        "extension": [ {
          "url": "ombCategory",
          "valueCoding": {
            "system": "urn:oid:2.16.840.1.113883.6.238",
            "code": "2135-2",
            "display": "Hispanic or Latino",
            "userSelected": true
          }
        }, {
          "url": "text",
          "valueString": "Hispanic or Latino"
        } ]
      }, {
        "url": "http://hl7.org/fhir/us/core/StructureDefinition/us-core-sex",
        "valueCode": "248153007"
      } ],
      "identifier": [ {
        "type": {
          "coding": [ {
            "system": "http://terminology.hl7.org/CodeSystem/v2-0203",
            "code": "MR"
          } ]
        },
        "system": "https://bonnie-fhir.healthit.gov/",
        "value": "62b1dfab3968556e5150cf35"
      } ],
      "name": [ {
        "family": "NUMERPass",
        "given": [ "17yoPositiveAdultDepressionScreeningandFollowUp" ]
      } ],
      "gender": "male",
      "birthDate": "2009-01-01"
    }
  }, {
    "fullUrl": "https://madie.cms.gov/Observation/b25e513f-9549-4148-9a65-77189aad5f73",
    "resource": {
      "resourceType": "Observation",
      "id": "b25e513f-9549-4148-9a65-77189aad5f73",
      "meta": {
        "profile": [ "http://hl7.org/fhir/us/qicore/StructureDefinition/qicore-observation-screening-assessment" ]
      },
      "status": "final",
      "category": [ {
        "coding": [ {
          "system": "http://terminology.hl7.org/CodeSystem/observation-category",
          "code": "procedure",
          "display": "Procedure"
        } ]
      }, {
        "coding": [ {
          "system": "http://terminology.hl7.org/CodeSystem/observation-category",
          "code": "survey",
          "display": "Survey"
        } ]
      } ],
      "code": {
        "coding": [ {
          "system": "http://loinc.org",
          "code": "73832-8",
          "display": "Adult depression screening assessment",
          "userSelected": true
        } ]
      },
      "subject": {
        "reference": "Patient/d2cde80b-5a6c-48e9-b38a-de938f019096"
      },
      "effectiveDateTime": "2026-01-01T08:00:00.000Z",
      "valueCodeableConcept": {
        "coding": [ {
          "system": "http://snomed.info/sct",
          "code": "428181000124104",
          "display": "Depression screening positive (finding)",
          "userSelected": true
        } ]
      }
    }
  }, {
    "fullUrl": "https://madie.cms.gov/Encounter/89d2c753-7436-4b56-9553-3e3a58c03678",
    "resource": {
      "resourceType": "Encounter",
      "id": "89d2c753-7436-4b56-9553-3e3a58c03678",
      "meta": {
        "profile": [ "http://hl7.org/fhir/us/qicore/StructureDefinition/qicore-encounter" ]
      },
      "status": "finished",
      "class": {
        "system": "http://terminology.hl7.org/CodeSystem/v3-ActCode",
        "code": "AMB",
        "display": "ambulatory"
      },
      "type": [ {
        "coding": [ {
          "system": "http://snomed.info/sct",
          "code": "10197000",
          "display": "Psychiatric interview and evaluation (procedure)",
          "userSelected": true
        } ]
      } ],
      "subject": {
        "reference": "Patient/d2cde80b-5a6c-48e9-b38a-de938f019096"
      },
      "period": {
        "start": "2026-01-01T08:00:00.000Z",
        "end": "2026-01-01T08:15:00.000Z"
      }
    }
  }, {
    "fullUrl": "https://madie.cms.gov/MedicationRequest/b14a11de-e66d-4246-bb11-e5d09e68a1c4",
    "resource": {
      "resourceType": "MedicationRequest",
      "id": "b14a11de-e66d-4246-bb11-e5d09e68a1c4",
      "meta": {
        "profile": [ "http://hl7.org/fhir/us/qicore/StructureDefinition/qicore-medicationrequest" ]
      },
      "status": "active",
      "intent": "order",
      "doNotPerform": false,
      "medicationCodeableConcept": {
        "coding": [ {
          "system": "http://www.nlm.nih.gov/research/umls/rxnorm",
          "code": "1000048",
          "display": "doxepin 10 MG Oral Capsule",
          "userSelected": true
        } ]
      },
      "subject": {
        "reference": "Patient/d2cde80b-5a6c-48e9-b38a-de938f019096"
      },
      "authoredOn": "2026-01-01T08:14:00.000Z",
      "requester": {
        "reference": "Practitioner/123456"
      },
      "dispenseRequest": {
        "expectedSupplyDuration": {
          "value": 30,
          "system": "http://unitsofmeasure.org",
          "code": "days"
        }
      }
    }
  }, {
    "fullUrl": "https://madie.cms.gov/Coverage/1d89af56-c547-401c-a170-5e666e605d90",
    "resource": {
      "resourceType": "Coverage",
      "id": "1d89af56-c547-401c-a170-5e666e605d90",
      "meta": {
        "profile": [ "http://hl7.org/fhir/us/qicore/StructureDefinition/qicore-coverage" ]
      },
      "status": "active",
      "type": {
        "coding": [ {
          "system": "https://nahdo.org/sopt",
          "code": "119",
          "display": "Medicare Managed Care Other",
          "userSelected": true
        } ]
      },
      "subscriberId": "123456789",
      "beneficiary": {
        "reference": "Patient/d2cde80b-5a6c-48e9-b38a-de938f019096"
      },
      "relationship": {
        "coding": [ {
          "system": "http://terminology.hl7.org/CodeSystem/subscriber-relationship",
          "code": "self",
          "display": "Self",
          "userSelected": true
        } ]
      },
      "period": {
        "start": "2021-01-01T08:00:00.000Z",
        "end": "2026-01-01T08:15:00.000Z"
      },
      "payor": [ {
        "reference": "Organization/9ea948da-8026-46b6-ab25-cee5ecfa7489"
      } ]
    }
  }, {
    "fullUrl": "https://madie.cms.gov/Organization/9ea948da-8026-46b6-ab25-cee5ecfa7489",
    "resource": {
      "resourceType": "Organization",
      "id": "9ea948da-8026-46b6-ab25-cee5ecfa7489",
      "meta": {
        "profile": [ "http://hl7.org/fhir/us/qicore/StructureDefinition/qicore-organization" ]
      },
      "identifier": [ {
        "use": "temp",
        "system": "urn:oid:2.16.840.1.113883.4.4",
        "value": "21-3259825"
      } ],
      "active": true,
      "type": [ {
        "coding": [ {
          "system": "http://terminology.hl7.org/CodeSystem/organization-type",
          "code": "pay",
          "display": "Payer"
        } ]
      } ],
      "name": "Blue Cross Blue Shield of Texas",
      "telecom": [ {
        "system": "phone",
        "value": "(+1) 972-766-6900"
      } ],
      "address": [ {
        "use": "billing",
        "type": "postal",
        "line": [ "P.O. Box 660044" ],
        "city": "Dallas",
        "state": "TX",
        "postalCode": "75266-0044",
        "country": "USA"
      } ]
    }
  }, {
    "fullUrl": "https://madie.cms.gov/Practitioner/ee308836-61a7-44ef-98f1-879aa17c2923",
    "resource": {
      "resourceType": "Practitioner",
      "id": "ee308836-61a7-44ef-98f1-879aa17c2923",
      "meta": {
        "profile": [ "http://hl7.org/fhir/us/qicore/StructureDefinition/qicore-practitioner" ]
      },
      "identifier": [ {
        "system": "http://hl7.org/fhir/sid/us-npi",
        "value": "1234567893"
      } ],
      "name": [ {
        "family": "Evil",
        "prefix": [ "Dr" ]
      } ]
    }
  }, {
    "fullUrl": "https://madie.cms.gov/MeasureReport/a1a497b3-5fec-4d30-91c7-70949cf2174a",
    "resource": {
      "resourceType": "MeasureReport",
      "id": "a1a497b3-5fec-4d30-91c7-70949cf2174a",
      "meta": {
        "profile": [ "http://hl7.org/fhir/us/cqfmeasures/StructureDefinition/test-case-cqfm" ]
      },
      "contained": [ {
        "resourceType": "Parameters",
        "id": "a61a681a-ecd1-462e-b332-41a0cd2ffc84-parameters",
        "parameter": [ {
          "name": "subject",
          "valueString": "d2cde80b-5a6c-48e9-b38a-de938f019096"
        } ]
      } ],
      "extension": [ {
        "url": "http://hl7.org/fhir/StructureDefinition/cqf-inputParameters",
        "valueReference": {
          "reference": "#a61a681a-ecd1-462e-b332-41a0cd2ffc84-parameters"
        }
      }, {
        "url": "http://hl7.org/fhir/us/cqfmeasures/StructureDefinition/cqfm-testCaseDescription",
        "valueMarkdown": "17yo with previous positive adult depression screening and medication active"
      } ],
      "modifierExtension": [ {
        "url": "http://hl7.org/fhir/us/cqfmeasures/StructureDefinition/cqfm-isTestCase",
        "valueBoolean": true
      } ],
      "status": "complete",
      "type": "individual",
      "measure": "https://madie.cms.gov/Measure/CMS2FHIRPCSDepScreenAndFollowUp",
      "period": {
        "start": "2026-01-01",
        "end": "2026-12-31"
      },
      "group": [ {
        "id": "Group_1",
        "population": [ {
          "id": "InitialPopulation_1",
          "code": {
            "coding": [ {
              "system": "http://terminology.hl7.org/CodeSystem/measure-population",
              "code": "initial-population",
              "display": "Initial Population"
            } ]
          },
          "count": 1
        }, {
          "id": "Denominator_1",
          "code": {
            "coding": [ {
              "system": "http://terminology.hl7.org/CodeSystem/measure-population",
              "code": "denominator",
              "display": "Denominator"
            } ]
          },
          "count": 1
        }, {
          "id": "DenominatorExclusion_1",
          "code": {
            "coding": [ {
              "system": "http://terminology.hl7.org/CodeSystem/measure-population",
              "code": "denominator-exclusion",
              "display": "Denominator Exclusion"
            } ]
          },
          "count": 0
        }, {
          "id": "Numerator_1",
          "code": {
            "coding": [ {
              "system": "http://terminology.hl7.org/CodeSystem/measure-population",
              "code": "numerator",
              "display": "Numerator"
            } ]
          },
          "count": 1
        }, {
          "id": "DenominatorException_1",
          "code": {
            "coding": [ {
              "system": "http://terminology.hl7.org/CodeSystem/measure-population",
              "code": "denominator-exception",
              "display": "Denominator Exception"
            } ]
          },
          "count": 0
        } ],
        "measureScore": {
          "value": 1.0
        }
      } ],
      "evaluatedResource": [ {
        "reference": "Patient/d2cde80b-5a6c-48e9-b38a-de938f019096"
      }, {
        "reference": "Observation/b25e513f-9549-4148-9a65-77189aad5f73"
      }, {
        "reference": "Encounter/89d2c753-7436-4b56-9553-3e3a58c03678"
      }, {
        "reference": "MedicationRequest/b14a11de-e66d-4246-bb11-e5d09e68a1c4"
      }, {
        "reference": "Coverage/1d89af56-c547-401c-a170-5e666e605d90"
      }, {
        "reference": "Organization/9ea948da-8026-46b6-ab25-cee5ecfa7489"
      }, {
        "reference": "Practitioner/ee308836-61a7-44ef-98f1-879aa17c2923"
      } ]
    }
  } ]
}