{
  "resourceType": "Bundle",
  "id": "tests-RiskVarPassFirstHeartRate-bundle",
  "type": "transaction",
  "entry": [ {
    "fullUrl": "https://madie.cms.gov/Encounter/ed223c58-085c-49e3-b75c-c4adde3bdde6",
    "resource": {
      "resourceType": "Encounter",
      "id": "ed223c58-085c-49e3-b75c-c4adde3bdde6",
      "meta": {
        "profile": [ "http://hl7.org/fhir/us/qicore/StructureDefinition/qicore-encounter" ]
      },
      "status": "finished",
      "class": {
        "system": "http://terminology.hl7.org/CodeSystem/v3-ActCode",
        "code": "IMP",
        "display": "inpatient encounter"
      },
      "type": [ {
        "coding": [ {
          "system": "http://snomed.info/sct",
          "code": "112689000",
          "display": "Hospital admission, elective, with complete pre-admission work-up"
        } ],
        "text": "Hospital admission, elective, with complete pre-admission work-up"
      } ],
      "priority": {
        "coding": [ {
          "system": "http://snomed.info/sct",
          "code": "103390000"
        } ]
      },
      "subject": {
        "reference": "Patient/b58af351-e517-48d2-9bde-33654592f6f4"
      },
      "period": {
        "start": "2026-04-10T08:00:00.000+00:00",
        "end": "2026-04-14T08:15:00.000+00:00"
      }
    },
    "request": {
      "method": "PUT",
      "url": "Encounter/ed223c58-085c-49e3-b75c-c4adde3bdde6"
    }
  }, {
    "fullUrl": "https://madie.cms.gov/Observation/808e79f1-3e94-4996-b726-78d08075e1a9",
    "resource": {
      "resourceType": "Observation",
      "id": "808e79f1-3e94-4996-b726-78d08075e1a9",
      "meta": {
        "profile": [ "http://hl7.org/fhir/us/core/StructureDefinition/us-core-heart-rate" ]
      },
      "status": "final",
      "category": [ {
        "coding": [ {
          "system": "http://terminology.hl7.org/CodeSystem/observation-category",
          "code": "vital-signs",
          "display": "Vital Signs"
        } ]
      } ],
      "code": {
        "coding": [ {
          "system": "http://loinc.org",
          "code": "8867-4",
          "display": "Heart rate"
        } ],
        "text": "Heart rate"
      },
      "subject": {
        "reference": "Patient/b58af351-e517-48d2-9bde-33654592f6f4"
      },
      "encounter": {
        "reference": "Encounter/ed223c58-085c-49e3-b75c-c4adde3bdde6"
      },
      "effectiveDateTime": "2026-04-11T08:00:00.000+00:00",
      "valueQuantity": {
        "value": 44,
        "unit": "beats/min",
        "system": "http://unitsofmeasure.org",
        "code": "/min"
      }
    },
    "request": {
      "method": "PUT",
      "url": "Observation/808e79f1-3e94-4996-b726-78d08075e1a9"
    }
  }, {
    "fullUrl": "https://madie.cms.gov/Patient/b58af351-e517-48d2-9bde-33654592f6f4",
    "resource": {
      "resourceType": "Patient",
      "id": "b58af351-e517-48d2-9bde-33654592f6f4",
      "meta": {
        "profile": [ "http://hl7.org/fhir/us/qicore/StructureDefinition/qicore-patient" ]
      },
      "extension": [ {
        "url": "http://hl7.org/fhir/us/core/StructureDefinition/us-core-race",
        "extension": [ {
          "url": "ombCategory",
          "valueCoding": {
            "system": "urn:oid:2.16.840.1.113883.6.238",
            "code": "2054-5",
            "display": "Black or African American",
            "userSelected": true
          }
        }, {
          "url": "text",
          "valueString": "Black or African American"
        } ]
      }, {
        "url": "http://hl7.org/fhir/us/core/StructureDefinition/us-core-ethnicity",
        "extension": [ {
          "url": "ombCategory",
          "valueCoding": {
            "system": "urn:oid:2.16.840.1.113883.6.238",
            "code": "2186-5",
            "display": "Not Hispanic or Latino",
            "userSelected": true
          }
        }, {
          "url": "text",
          "valueString": "Not Hispanic or Latino"
        } ]
      } ],
      "identifier": [ {
        "type": {
          "coding": [ {
            "system": "http://terminology.hl7.org/CodeSystem/v2-0203",
            "code": "MR"
          } ]
        },
        "system": "https://bonnie-fhir.healthit.gov/",
        "value": "61152a3b98086b7a79cbd7c1"
      } ],
      "active": true,
      "name": [ {
        "use": "usual",
        "family": "DENOMPass",
        "given": [ "RiskVariableASAClass" ]
      } ],
      "gender": "female",
      "birthDate": "1966-07-12"
    },
    "request": {
      "method": "PUT",
      "url": "Patient/b58af351-e517-48d2-9bde-33654592f6f4"
    }
  }, {
    "fullUrl": "https://madie.cms.gov/Observation/87547a13-9508-4529-bcc4-865e416e5d08",
    "resource": {
      "resourceType": "Observation",
      "id": "87547a13-9508-4529-bcc4-865e416e5d08",
      "meta": {
        "profile": [ "http://hl7.org/fhir/us/core/StructureDefinition/us-core-heart-rate" ]
      },
      "status": "final",
      "category": [ {
        "coding": [ {
          "system": "http://terminology.hl7.org/CodeSystem/observation-category",
          "code": "vital-signs",
          "display": "Vital Signs"
        } ]
      } ],
      "code": {
        "coding": [ {
          "system": "http://loinc.org",
          "code": "8867-4",
          "display": "Heart rate"
        } ],
        "text": "Heart rate"
      },
      "subject": {
        "reference": "Patient/b58af351-e517-48d2-9bde-33654592f6f4"
      },
      "encounter": {
        "reference": "Encounter/ed223c58-085c-49e3-b75c-c4adde3bdde6"
      },
      "effectiveDateTime": "2026-04-11T09:00:00.000+00:00",
      "valueQuantity": {
        "value": 60,
        "unit": "beats/min",
        "system": "http://unitsofmeasure.org",
        "code": "/min"
      }
    },
    "request": {
      "method": "PUT",
      "url": "Observation/87547a13-9508-4529-bcc4-865e416e5d08"
    }
  }, {
    "fullUrl": "https://madie.cms.gov/Procedure/abddd81f-c050-4780-8992-6efacc0055a1",
    "resource": {
      "resourceType": "Procedure",
      "id": "abddd81f-c050-4780-8992-6efacc0055a1",
      "meta": {
        "profile": [ "http://hl7.org/fhir/us/qicore/StructureDefinition/qicore-procedure" ]
      },
      "extension": [ {
        "url": "http://hl7.org/fhir/us/qicore/StructureDefinition/qicore-recorded",
        "valueDateTime": "2026-04-11T10:30:00.000+00:00"
      } ],
      "status": "completed",
      "category": {
        "coding": [ {
          "system": "http://snomed.info/sct",
          "code": "18286008",
          "display": "General or neuraxial anesthesia"
        } ]
      },
      "code": {
        "coding": [ {
          "system": "http://snomed.info/sct",
          "code": "112943005",
          "display": "Epidural injection of anesthetic substance, diagnostic, caudal, continuous"
        } ]
      },
      "subject": {
        "reference": "Patient/b58af351-e517-48d2-9bde-33654592f6f4"
      },
      "performedPeriod": {
        "start": "2026-04-11T08:00:00.000+00:00",
        "end": "2026-04-11T10:15:00.000+00:00"
      }
    },
    "request": {
      "method": "PUT",
      "url": "Procedure/abddd81f-c050-4780-8992-6efacc0055a1"
    }
  }, {
    "fullUrl": "https://madie.cms.gov/MeasureReport/d0eb321b-955b-4ce7-90a6-c375ffda84ff",
    "resource": {
      "resourceType": "MeasureReport",
      "id": "d0eb321b-955b-4ce7-90a6-c375ffda84ff",
      "meta": {
        "profile": [ "http://hl7.org/fhir/us/cqfmeasures/StructureDefinition/test-case-cqfm" ]
      },
      "contained": [ {
        "resourceType": "Parameters",
        "id": "beb4d0c4-6907-45cc-87e6-dd70e55f9667-parameters",
        "parameter": [ {
          "name": "subject",
          "valueString": "b58af351-e517-48d2-9bde-33654592f6f4"
        } ]
      } ],
      "extension": [ {
        "url": "http://hl7.org/fhir/StructureDefinition/cqf-inputParameters",
        "valueReference": {
          "reference": "#beb4d0c4-6907-45cc-87e6-dd70e55f9667-parameters"
        }
      }, {
        "url": "http://hl7.org/fhir/us/cqfmeasures/StructureDefinition/cqfm-testCaseDescription",
        "valueMarkdown": "DENOMPass Satisfies First Heart Rate risk variable"
      } ],
      "modifierExtension": [ {
        "url": "http://hl7.org/fhir/us/cqfmeasures/StructureDefinition/cqfm-isTestCase",
        "valueBoolean": true
      } ],
      "status": "complete",
      "type": "individual",
      "measure": "https://madie.cms.gov/Measure/CMS1218FHIRHHRF",
      "period": {
        "start": "2026-01-01",
        "end": "2026-12-31"
      },
      "group": [ {
        "id": "Group_1",
        "population": [ {
          "id": "InitialPopulation_1",
          "code": {
            "coding": [ {
              "system": "http://terminology.hl7.org/CodeSystem/measure-population",
              "code": "initial-population",
              "display": "Initial Population"
            } ]
          },
          "count": 1
        }, {
          "id": "Denominator_1",
          "code": {
            "coding": [ {
              "system": "http://terminology.hl7.org/CodeSystem/measure-population",
              "code": "denominator",
              "display": "Denominator"
            } ]
          },
          "count": 1
        }, {
          "id": "DenominatorExclusion_1",
          "code": {
            "coding": [ {
              "system": "http://terminology.hl7.org/CodeSystem/measure-population",
              "code": "denominator-exclusion",
              "display": "Denominator Exclusion"
            } ]
          },
          "count": 0
        }, {
          "id": "Numerator_1",
          "code": {
            "coding": [ {
              "system": "http://terminology.hl7.org/CodeSystem/measure-population",
              "code": "numerator",
              "display": "Numerator"
            } ]
          },
          "count": 0
        } ],
        "measureScore": {
          "value": 0.0
        }
      } ],
      "evaluatedResource": [ {
        "reference": "Encounter/ed223c58-085c-49e3-b75c-c4adde3bdde6"
      }, {
        "reference": "Observation/808e79f1-3e94-4996-b726-78d08075e1a9"
      }, {
        "reference": "Patient/b58af351-e517-48d2-9bde-33654592f6f4"
      }, {
        "reference": "Observation/87547a13-9508-4529-bcc4-865e416e5d08"
      }, {
        "reference": "Procedure/abddd81f-c050-4780-8992-6efacc0055a1"
      } ]
    },
    "request": {
      "method": "PUT",
      "url": "MeasureReport/d0eb321b-955b-4ce7-90a6-c375ffda84ff"
    }
  } ]
}