{
  "resourceType": "Bundle",
  "id": "NUMPass-RetinalExamNoRetinopathyJan1OfYrPriorToMP",
  "type": "transaction",
  "entry": [ {
    "fullUrl": "https://madie.cms.gov/Patient/bf5f59ac-661c-4f8c-a4aa-b3c0a66f2a49",
    "resource": {
      "resourceType": "Patient",
      "id": "bf5f59ac-661c-4f8c-a4aa-b3c0a66f2a49",
      "meta": {
        "profile": [ "http://hl7.org/fhir/us/qicore/StructureDefinition/qicore-patient" ]
      },
      "extension": [ {
        "url": "http://hl7.org/fhir/us/core/StructureDefinition/us-core-race",
        "extension": [ {
          "url": "ombCategory",
          "valueCoding": {
            "system": "urn:oid:2.16.840.1.113883.6.238",
            "code": "2028-9",
            "display": "Asian",
            "userSelected": true
          }
        }, {
          "url": "text",
          "valueString": "Asian"
        } ]
      }, {
        "url": "http://hl7.org/fhir/us/core/StructureDefinition/us-core-ethnicity",
        "extension": [ {
          "url": "ombCategory",
          "valueCoding": {
            "system": "urn:oid:2.16.840.1.113883.6.238",
            "code": "2135-2",
            "display": "Hispanic or Latino",
            "userSelected": true
          }
        }, {
          "url": "text",
          "valueString": "Hispanic or Latino"
        } ]
      } ],
      "identifier": [ {
        "type": {
          "coding": [ {
            "system": "http://terminology.hl7.org/CodeSystem/v2-0203",
            "code": "MR"
          } ]
        },
        "system": "http://hospital.smarthealthit.org",
        "value": "999999995"
      } ],
      "name": [ {
        "family": "Bertha",
        "given": [ "Betty" ]
      } ],
      "gender": "female",
      "birthDate": "2007-12-31"
    },
    "request": {
      "method": "PUT",
      "url": "Patient/bf5f59ac-661c-4f8c-a4aa-b3c0a66f2a49"
    }
  }, {
    "fullUrl": "https://madie.cms.gov/Encounter/9cc7727e-8019-4793-904e-31c94bb2264a",
    "resource": {
      "resourceType": "Encounter",
      "id": "9cc7727e-8019-4793-904e-31c94bb2264a",
      "meta": {
        "profile": [ "http://hl7.org/fhir/us/qicore/StructureDefinition/qicore-encounter" ]
      },
      "status": "finished",
      "class": {
        "system": "http://terminology.hl7.org/CodeSystem/v3-ActCode",
        "code": "AMB",
        "display": "ambulatory"
      },
      "type": [ {
        "coding": [ {
          "system": "http://snomed.info/sct",
          "code": "185463005",
          "display": "Visit out of hours (procedure)"
        } ]
      } ],
      "subject": {
        "reference": "Patient/bf5f59ac-661c-4f8c-a4aa-b3c0a66f2a49"
      },
      "period": {
        "start": "2026-01-01T00:00:00.000+00:00",
        "end": "2026-01-01T00:00:00.000+00:00"
      }
    },
    "request": {
      "method": "PUT",
      "url": "Encounter/9cc7727e-8019-4793-904e-31c94bb2264a"
    }
  }, {
    "fullUrl": "https://madie.cms.gov/Condition/eda3c506-4b27-4f18-9d92-15932e90bcac",
    "resource": {
      "resourceType": "Condition",
      "id": "eda3c506-4b27-4f18-9d92-15932e90bcac",
      "meta": {
        "profile": [ "http://hl7.org/fhir/us/qicore/StructureDefinition/qicore-condition-encounter-diagnosis" ]
      },
      "clinicalStatus": {
        "coding": [ {
          "system": "http://terminology.hl7.org/CodeSystem/condition-clinical",
          "code": "active"
        } ]
      },
      "category": [ {
        "coding": [ {
          "system": "http://terminology.hl7.org/CodeSystem/condition-category",
          "code": "encounter-diagnosis",
          "display": "Encounter Diagnosis"
        } ]
      } ],
      "code": {
        "coding": [ {
          "system": "http://snomed.info/sct",
          "code": "102781000119107",
          "display": "Sensory neuropathy due to type 1 diabetes mellitus (disorder)"
        } ]
      },
      "subject": {
        "reference": "Patient/bf5f59ac-661c-4f8c-a4aa-b3c0a66f2a49"
      },
      "onsetDateTime": "2026-01-01T00:00:00.000+00:00"
    },
    "request": {
      "method": "PUT",
      "url": "Condition/eda3c506-4b27-4f18-9d92-15932e90bcac"
    }
  }, {
    "fullUrl": "https://madie.cms.gov/Observation/55cc286c-77fc-41cb-8bdb-3e974678db72",
    "resource": {
      "resourceType": "Observation",
      "id": "55cc286c-77fc-41cb-8bdb-3e974678db72",
      "meta": {
        "profile": [ "http://hl7.org/fhir/us/qicore/StructureDefinition/qicore-observation-clinical-result" ]
      },
      "status": "final",
      "category": [ {
        "coding": [ {
          "system": "http://terminology.hl7.org/CodeSystem/observation-category",
          "code": "exam"
        } ]
      } ],
      "code": {
        "coding": [ {
          "system": "http://loinc.org",
          "code": "71490-7",
          "display": "Left eye Diabetic retinopathy severity level by Ophthalmoscopy"
        } ]
      },
      "subject": {
        "reference": "Patient/bf5f59ac-661c-4f8c-a4aa-b3c0a66f2a49"
      },
      "effectivePeriod": {
        "start": "2025-01-01T00:00:00.000+00:00",
        "end": "2025-01-01T00:00:00.000+00:00"
      },
      "valueCodeableConcept": {
        "coding": [ {
          "system": "http://loinc.org",
          "code": "LA18643-9",
          "display": "No apparent retinopathy"
        } ]
      }
    },
    "request": {
      "method": "PUT",
      "url": "Observation/55cc286c-77fc-41cb-8bdb-3e974678db72"
    }
  }, {
    "fullUrl": "https://madie.cms.gov/Observation/34432b3b-cc13-4d11-afef-2a94d2598c07",
    "resource": {
      "resourceType": "Observation",
      "id": "34432b3b-cc13-4d11-afef-2a94d2598c07",
      "meta": {
        "profile": [ "http://hl7.org/fhir/us/qicore/StructureDefinition/qicore-observation-clinical-result" ]
      },
      "status": "final",
      "category": [ {
        "coding": [ {
          "system": "http://terminology.hl7.org/CodeSystem/observation-category",
          "code": "exam"
        } ]
      } ],
      "code": {
        "coding": [ {
          "system": "http://loinc.org",
          "code": "71491-5",
          "display": "Right eye Diabetic retinopathy severity level by Ophthalmoscopy"
        } ]
      },
      "subject": {
        "reference": "Patient/bf5f59ac-661c-4f8c-a4aa-b3c0a66f2a49"
      },
      "effectivePeriod": {
        "start": "2025-01-01T00:00:00.000+00:00",
        "end": "2025-01-01T00:00:00.000+00:00"
      },
      "valueCodeableConcept": {
        "coding": [ {
          "system": "http://loinc.org",
          "code": "LA18643-9",
          "display": "No apparent retinopathy"
        } ]
      }
    },
    "request": {
      "method": "PUT",
      "url": "Observation/34432b3b-cc13-4d11-afef-2a94d2598c07"
    }
  }, {
    "fullUrl": "https://madie.cms.gov/MeasureReport/2da33d95-4d53-46c1-b249-e2de0f581033",
    "resource": {
      "resourceType": "MeasureReport",
      "id": "2da33d95-4d53-46c1-b249-e2de0f581033",
      "meta": {
        "profile": [ "http://hl7.org/fhir/us/cqfmeasures/StructureDefinition/test-case-cqfm" ]
      },
      "contained": [ {
        "resourceType": "Parameters",
        "id": "79551d43-f228-4df4-bb67-abdc43d42f31-parameters",
        "parameter": [ {
          "name": "subject",
          "valueString": "bf5f59ac-661c-4f8c-a4aa-b3c0a66f2a49"
        } ]
      } ],
      "extension": [ {
        "url": "http://hl7.org/fhir/StructureDefinition/cqf-inputParameters",
        "valueReference": {
          "reference": "#79551d43-f228-4df4-bb67-abdc43d42f31-parameters"
        }
      }, {
        "url": "http://hl7.org/fhir/us/cqfmeasures/StructureDefinition/cqfm-testCaseDescription",
        "valueMarkdown": "Retinal exam finding of no retinopathy in both eyes on 1/1 in the year prior to MP"
      } ],
      "modifierExtension": [ {
        "url": "http://hl7.org/fhir/us/cqfmeasures/StructureDefinition/cqfm-isTestCase",
        "valueBoolean": true
      } ],
      "status": "complete",
      "type": "individual",
      "measure": "https://madie.cms.gov/Measure/CMS131FHIRDiabetesEyeExam",
      "period": {
        "start": "2026-01-01",
        "end": "2026-12-31"
      },
      "group": [ {
        "id": "Group_1",
        "population": [ {
          "id": "InitialPopulation_1",
          "code": {
            "coding": [ {
              "system": "http://terminology.hl7.org/CodeSystem/measure-population",
              "code": "initial-population",
              "display": "Initial Population"
            } ]
          },
          "count": 1
        }, {
          "id": "Denominator_1",
          "code": {
            "coding": [ {
              "system": "http://terminology.hl7.org/CodeSystem/measure-population",
              "code": "denominator",
              "display": "Denominator"
            } ]
          },
          "count": 1
        }, {
          "id": "DenominatorExclusion_1",
          "code": {
            "coding": [ {
              "system": "http://terminology.hl7.org/CodeSystem/measure-population",
              "code": "denominator-exclusion",
              "display": "Denominator Exclusion"
            } ]
          },
          "count": 0
        }, {
          "id": "Numerator_1",
          "code": {
            "coding": [ {
              "system": "http://terminology.hl7.org/CodeSystem/measure-population",
              "code": "numerator",
              "display": "Numerator"
            } ]
          },
          "count": 1
        } ],
        "measureScore": {
          "value": 1.0
        }
      } ],
      "evaluatedResource": [ {
        "reference": "Patient/bf5f59ac-661c-4f8c-a4aa-b3c0a66f2a49"
      }, {
        "reference": "Encounter/9cc7727e-8019-4793-904e-31c94bb2264a"
      }, {
        "reference": "Condition/eda3c506-4b27-4f18-9d92-15932e90bcac"
      }, {
        "reference": "Observation/55cc286c-77fc-41cb-8bdb-3e974678db72"
      }, {
        "reference": "Observation/34432b3b-cc13-4d11-afef-2a94d2598c07"
      } ]
    },
    "request": {
      "method": "PUT",
      "url": "MeasureReport/2da33d95-4d53-46c1-b249-e2de0f581033"
    }
  } ]
}