{
  "resourceType": "Bundle",
  "id": "6109658e98086b538055b9d0",
  "type": "collection",
  "entry": [ {
    "fullUrl": "https://madie.cms.gov/Patient/8352db6f-c4c7-4eb1-8264-ea3db86f1c6e",
    "resource": {
      "resourceType": "Patient",
      "id": "8352db6f-c4c7-4eb1-8264-ea3db86f1c6e",
      "meta": {
        "profile": [ "http://hl7.org/fhir/us/qicore/StructureDefinition/qicore-patient" ]
      },
      "extension": [ {
        "url": "http://hl7.org/fhir/us/core/StructureDefinition/us-core-race",
        "extension": [ {
          "url": "ombCategory",
          "valueCoding": {
            "system": "urn:oid:2.16.840.1.113883.6.238",
            "code": "2054-5",
            "display": "Black or African American",
            "userSelected": true
          }
        }, {
          "url": "text",
          "valueString": "Black or African American"
        } ]
      }, {
        "url": "http://hl7.org/fhir/us/core/StructureDefinition/us-core-ethnicity",
        "extension": [ {
          "url": "ombCategory",
          "valueCoding": {
            "system": "urn:oid:2.16.840.1.113883.6.238",
            "code": "2135-2",
            "display": "Hispanic or Latino",
            "userSelected": true
          }
        }, {
          "url": "text",
          "valueString": "Hispanic or Latino"
        } ]
      } ],
      "identifier": [ {
        "type": {
          "coding": [ {
            "system": "http://terminology.hl7.org/CodeSystem/v2-0203",
            "code": "MR"
          } ]
        },
        "system": "https://bonnie-fhir.healthit.gov/",
        "value": "6109658e98086b538055b9d0"
      } ],
      "active": true,
      "name": [ {
        "use": "usual",
        "family": "IPPFail",
        "given": [ "GlaucomaDXOGTEncStart" ]
      } ],
      "gender": "female",
      "birthDate": "1948-09-18"
    }
  }, {
    "fullUrl": "https://madie.cms.gov/Condition/e0306dae-675f-4c3d-9fb3-a21dd40c726f",
    "resource": {
      "resourceType": "Condition",
      "id": "e0306dae-675f-4c3d-9fb3-a21dd40c726f",
      "meta": {
        "profile": [ "http://hl7.org/fhir/us/qicore/StructureDefinition/qicore-condition-problems-health-concerns" ]
      },
      "clinicalStatus": {
        "coding": [ {
          "system": "http://terminology.hl7.org/CodeSystem/condition-clinical",
          "code": "active",
          "display": "active",
          "userSelected": true
        } ]
      },
      "verificationStatus": {
        "coding": [ {
          "system": "http://terminology.hl7.org/CodeSystem/condition-ver-status",
          "code": "refuted",
          "display": "Refuted",
          "userSelected": true
        } ]
      },
      "category": [ {
        "coding": [ {
          "system": "http://terminology.hl7.org/CodeSystem/condition-category",
          "code": "problem-list-item",
          "display": "Problem List Item",
          "userSelected": true
        } ]
      } ],
      "code": {
        "coding": [ {
          "system": "http://hl7.org/fhir/sid/icd-10-cm",
          "code": "H40.10X0"
        } ]
      },
      "subject": {
        "reference": "Patient/8352db6f-c4c7-4eb1-8264-ea3db86f1c6e"
      },
      "onsetDateTime": "2026-01-24T08:01:00.000Z"
    }
  }, {
    "fullUrl": "https://madie.cms.gov/Observation/bbd49df3-26ec-44d1-9f74-0067bd2b6acf",
    "resource": {
      "resourceType": "Observation",
      "id": "bbd49df3-26ec-44d1-9f74-0067bd2b6acf",
      "meta": {
        "profile": [ "http://hl7.org/fhir/us/qicore/StructureDefinition/qicore-observation-clinical-result" ]
      },
      "status": "final",
      "category": [ {
        "coding": [ {
          "system": "http://terminology.hl7.org/CodeSystem/observation-category",
          "code": "laboratory",
          "display": "laboratory",
          "userSelected": true
        } ]
      }, {
        "coding": [ {
          "system": "http://terminology.hl7.org/CodeSystem/observation-category",
          "code": "survey"
        } ]
      } ],
      "code": {
        "coding": [ {
          "system": "http://loinc.org",
          "version": "2.73",
          "code": "71486-5"
        } ]
      },
      "subject": {
        "reference": "Patient/8352db6f-c4c7-4eb1-8264-ea3db86f1c6e"
      },
      "effectiveDateTime": "2026-01-22T08:00:00.000Z",
      "valueString": "Optic disc neural rim asymmetry of the two eyes consistent with loss of neural tissue"
    }
  }, {
    "fullUrl": "https://madie.cms.gov/Observation/ff94045f-0fe7-406e-a9f0-3a4471e961c4",
    "resource": {
      "resourceType": "Observation",
      "id": "ff94045f-0fe7-406e-a9f0-3a4471e961c4",
      "meta": {
        "profile": [ "http://hl7.org/fhir/us/qicore/StructureDefinition/qicore-observation-clinical-result" ]
      },
      "status": "final",
      "category": [ {
        "coding": [ {
          "system": "http://terminology.hl7.org/CodeSystem/observation-category",
          "code": "laboratory",
          "display": "laboratory",
          "userSelected": true
        } ]
      }, {
        "coding": [ {
          "system": "http://terminology.hl7.org/CodeSystem/observation-category",
          "code": "survey"
        } ]
      } ],
      "code": {
        "coding": [ {
          "system": "http://loinc.org",
          "version": "2.73",
          "code": "71484-0"
        } ]
      },
      "subject": {
        "reference": "Patient/8352db6f-c4c7-4eb1-8264-ea3db86f1c6e"
      },
      "effectiveDateTime": "2026-01-24T09:01:00.000Z",
      "valueQuantity": {
        "value": 0.7
      }
    }
  }, {
    "fullUrl": "https://madie.cms.gov/Encounter/bffd4ee0-d53b-4cc9-bafd-bab6830373b3",
    "resource": {
      "resourceType": "Encounter",
      "id": "bffd4ee0-d53b-4cc9-bafd-bab6830373b3",
      "meta": {
        "profile": [ "http://hl7.org/fhir/us/qicore/StructureDefinition/qicore-encounter" ]
      },
      "status": "finished",
      "class": {
        "system": "http://terminology.hl7.org/CodeSystem/v3-ActCode",
        "code": "AMB",
        "display": "ambulatory",
        "userSelected": true
      },
      "type": [ {
        "coding": [ {
          "system": "http://www.ama-assn.org/go/cpt",
          "version": "2023",
          "code": "92012"
        } ]
      } ],
      "subject": {
        "reference": "Patient/8352db6f-c4c7-4eb1-8264-ea3db86f1c6e"
      },
      "period": {
        "start": "2026-01-24T08:00:00.000Z",
        "end": "2026-01-24T08:00:00.000Z"
      },
      "length": {
        "value": 0,
        "unit": "days"
      }
    }
  }, {
    "fullUrl": "https://madie.cms.gov/MeasureReport/f826d02c-3110-404c-b1bf-aa73044b0925",
    "resource": {
      "resourceType": "MeasureReport",
      "id": "f826d02c-3110-404c-b1bf-aa73044b0925",
      "meta": {
        "profile": [ "http://hl7.org/fhir/us/cqfmeasures/StructureDefinition/test-case-cqfm" ]
      },
      "contained": [ {
        "resourceType": "Parameters",
        "id": "0c653719-a7a3-472f-951c-ed0906eb6bee-parameters",
        "parameter": [ {
          "name": "subject",
          "valueString": "8352db6f-c4c7-4eb1-8264-ea3db86f1c6e"
        } ]
      } ],
      "extension": [ {
        "url": "http://hl7.org/fhir/StructureDefinition/cqf-inputParameters",
        "valueReference": {
          "reference": "#0c653719-a7a3-472f-951c-ed0906eb6bee-parameters"
        }
      }, {
        "url": "http://hl7.org/fhir/us/cqfmeasures/StructureDefinition/cqfm-testCaseDescription",
        "valueMarkdown": "Glaucoma Diagnosis onset starts 1 minute after encounter and fails overlap interval"
      } ],
      "modifierExtension": [ {
        "url": "http://hl7.org/fhir/us/cqfmeasures/StructureDefinition/cqfm-isTestCase",
        "valueBoolean": true
      } ],
      "status": "complete",
      "type": "individual",
      "measure": "https://madie.cms.gov/Measure/CMS143FHIRPOAGOpticNerveEval",
      "period": {
        "start": "2026-01-01",
        "end": "2026-12-31"
      },
      "group": [ {
        "id": "Group_1",
        "population": [ {
          "id": "InitialPopulation_1",
          "code": {
            "coding": [ {
              "system": "http://terminology.hl7.org/CodeSystem/measure-population",
              "code": "initial-population",
              "display": "Initial Population"
            } ]
          },
          "count": 0
        }, {
          "id": "Denominator_1",
          "code": {
            "coding": [ {
              "system": "http://terminology.hl7.org/CodeSystem/measure-population",
              "code": "denominator",
              "display": "Denominator"
            } ]
          },
          "count": 0
        }, {
          "id": "Numerator_1",
          "code": {
            "coding": [ {
              "system": "http://terminology.hl7.org/CodeSystem/measure-population",
              "code": "numerator",
              "display": "Numerator"
            } ]
          },
          "count": 0
        }, {
          "id": "DenominatorException_1",
          "code": {
            "coding": [ {
              "system": "http://terminology.hl7.org/CodeSystem/measure-population",
              "code": "denominator-exception",
              "display": "Denominator Exception"
            } ]
          },
          "count": 0
        } ],
        "measureScore": {
          "value": 1.0
        }
      } ],
      "evaluatedResource": [ {
        "reference": "Patient/8352db6f-c4c7-4eb1-8264-ea3db86f1c6e"
      }, {
        "reference": "Condition/e0306dae-675f-4c3d-9fb3-a21dd40c726f"
      }, {
        "reference": "Observation/bbd49df3-26ec-44d1-9f74-0067bd2b6acf"
      }, {
        "reference": "Observation/ff94045f-0fe7-406e-a9f0-3a4471e961c4"
      }, {
        "reference": "Encounter/bffd4ee0-d53b-4cc9-bafd-bab6830373b3"
      } ]
    }
  } ]
}