{
  "resourceType": "Bundle",
  "id": "NUMFail-RetinalExamJan1AfterMPRetinoDxDec31YrB4MP",
  "type": "transaction",
  "entry": [ {
    "fullUrl": "https://madie.cms.gov/Patient/19a6d651-3dd7-45a9-9340-e40e41875a13",
    "resource": {
      "resourceType": "Patient",
      "id": "19a6d651-3dd7-45a9-9340-e40e41875a13",
      "meta": {
        "profile": [ "http://hl7.org/fhir/us/qicore/StructureDefinition/qicore-patient" ]
      },
      "extension": [ {
        "url": "http://hl7.org/fhir/us/core/StructureDefinition/us-core-race",
        "extension": [ {
          "url": "ombCategory",
          "valueCoding": {
            "system": "urn:oid:2.16.840.1.113883.6.238",
            "code": "2028-9",
            "display": "Asian",
            "userSelected": true
          }
        }, {
          "url": "text",
          "valueString": "Asian"
        } ]
      }, {
        "url": "http://hl7.org/fhir/us/core/StructureDefinition/us-core-ethnicity",
        "extension": [ {
          "url": "ombCategory",
          "valueCoding": {
            "system": "urn:oid:2.16.840.1.113883.6.238",
            "code": "2135-2",
            "display": "Hispanic or Latino",
            "userSelected": true
          }
        }, {
          "url": "text",
          "valueString": "Hispanic or Latino"
        } ]
      } ],
      "identifier": [ {
        "type": {
          "coding": [ {
            "system": "http://terminology.hl7.org/CodeSystem/v2-0203",
            "code": "MR"
          } ]
        },
        "system": "http://hospital.smarthealthit.org",
        "value": "999999995"
      } ],
      "name": [ {
        "family": "Bertha",
        "given": [ "Betty" ]
      } ],
      "gender": "female",
      "birthDate": "2007-12-31"
    },
    "request": {
      "method": "PUT",
      "url": "Patient/19a6d651-3dd7-45a9-9340-e40e41875a13"
    }
  }, {
    "fullUrl": "https://madie.cms.gov/Encounter/b643b164-b3a1-409a-9e97-e39407f17c5d",
    "resource": {
      "resourceType": "Encounter",
      "id": "b643b164-b3a1-409a-9e97-e39407f17c5d",
      "meta": {
        "profile": [ "http://hl7.org/fhir/us/qicore/StructureDefinition/qicore-encounter" ]
      },
      "status": "finished",
      "class": {
        "system": "http://terminology.hl7.org/CodeSystem/v3-ActCode",
        "code": "AMB",
        "display": "ambulatory"
      },
      "type": [ {
        "coding": [ {
          "system": "http://snomed.info/sct",
          "code": "185463005",
          "display": "Visit out of hours (procedure)"
        } ]
      } ],
      "subject": {
        "reference": "Patient/19a6d651-3dd7-45a9-9340-e40e41875a13"
      },
      "period": {
        "start": "2026-01-01T00:00:00.000+00:00",
        "end": "2026-01-01T00:00:00.000+00:00"
      }
    },
    "request": {
      "method": "PUT",
      "url": "Encounter/b643b164-b3a1-409a-9e97-e39407f17c5d"
    }
  }, {
    "fullUrl": "https://madie.cms.gov/Condition/f6a2afe8-4425-4b63-b346-c9ee56346423",
    "resource": {
      "resourceType": "Condition",
      "id": "f6a2afe8-4425-4b63-b346-c9ee56346423",
      "meta": {
        "profile": [ "http://hl7.org/fhir/us/qicore/StructureDefinition/qicore-condition-encounter-diagnosis" ]
      },
      "clinicalStatus": {
        "coding": [ {
          "system": "http://terminology.hl7.org/CodeSystem/condition-clinical",
          "code": "active"
        } ]
      },
      "category": [ {
        "coding": [ {
          "system": "http://terminology.hl7.org/CodeSystem/condition-category",
          "code": "encounter-diagnosis",
          "display": "Encounter Diagnosis"
        } ]
      } ],
      "code": {
        "coding": [ {
          "system": "http://snomed.info/sct",
          "code": "102781000119107",
          "display": "Sensory neuropathy due to type 1 diabetes mellitus (disorder)"
        } ]
      },
      "subject": {
        "reference": "Patient/19a6d651-3dd7-45a9-9340-e40e41875a13"
      },
      "onsetDateTime": "2026-01-01T00:00:00.000+00:00"
    },
    "request": {
      "method": "PUT",
      "url": "Condition/f6a2afe8-4425-4b63-b346-c9ee56346423"
    }
  }, {
    "fullUrl": "https://madie.cms.gov/Condition/f6a2afe8-4425-4b63-b346-c9ee56346423.1",
    "resource": {
      "resourceType": "Condition",
      "id": "f6a2afe8-4425-4b63-b346-c9ee56346423.1",
      "meta": {
        "profile": [ "http://hl7.org/fhir/us/qicore/StructureDefinition/qicore-condition-encounter-diagnosis" ]
      },
      "clinicalStatus": {
        "coding": [ {
          "system": "http://terminology.hl7.org/CodeSystem/condition-clinical",
          "code": "active"
        } ]
      },
      "category": [ {
        "coding": [ {
          "system": "http://terminology.hl7.org/CodeSystem/condition-category",
          "code": "encounter-diagnosis",
          "display": "Encounter Diagnosis"
        } ]
      } ],
      "code": {
        "coding": [ {
          "system": "http://snomed.info/sct",
          "code": "193349004",
          "display": "Preproliferative retinopathy due to diabetes mellitus (disorder)"
        } ]
      },
      "subject": {
        "reference": "Patient/19a6d651-3dd7-45a9-9340-e40e41875a13"
      },
      "onsetDateTime": "2024-12-31T23:59:59.000+00:00"
    },
    "request": {
      "method": "PUT",
      "url": "Condition/f6a2afe8-4425-4b63-b346-c9ee56346423.1"
    }
  }, {
    "fullUrl": "https://madie.cms.gov/Observation/d33faca5-9817-4dff-ad94-1d672fbdaa14",
    "resource": {
      "resourceType": "Observation",
      "id": "d33faca5-9817-4dff-ad94-1d672fbdaa14",
      "meta": {
        "profile": [ "http://hl7.org/fhir/us/qicore/StructureDefinition-qicore-observation-clinical-result" ]
      },
      "status": "final",
      "category": [ {
        "coding": [ {
          "system": "http://terminology.hl7.org/CodeSystem/observation-category",
          "code": "exam"
        } ]
      } ],
      "code": {
        "coding": [ {
          "system": "http://snomed.info/sct",
          "code": "252779009",
          "display": "Single bright white flash electroretinography (procedure)"
        } ]
      },
      "subject": {
        "reference": "Patient/19a6d651-3dd7-45a9-9340-e40e41875a13"
      },
      "effectivePeriod": {
        "start": "2027-01-01T00:00:00.000+00:00",
        "end": "2027-01-01T00:00:00.000+00:00"
      }
    },
    "request": {
      "method": "PUT",
      "url": "Observation/d33faca5-9817-4dff-ad94-1d672fbdaa14"
    }
  }, {
    "fullUrl": "https://madie.cms.gov/MeasureReport/f4c89d43-4979-47d8-b32e-3f520a8949ef",
    "resource": {
      "resourceType": "MeasureReport",
      "id": "f4c89d43-4979-47d8-b32e-3f520a8949ef",
      "meta": {
        "profile": [ "http://hl7.org/fhir/us/cqfmeasures/StructureDefinition/test-case-cqfm" ]
      },
      "contained": [ {
        "resourceType": "Parameters",
        "id": "16f1dff0-d9df-434f-afd3-c1aebbf6bcbb-parameters",
        "parameter": [ {
          "name": "subject",
          "valueString": "19a6d651-3dd7-45a9-9340-e40e41875a13"
        } ]
      } ],
      "extension": [ {
        "url": "http://hl7.org/fhir/StructureDefinition/cqf-inputParameters",
        "valueReference": {
          "reference": "#16f1dff0-d9df-434f-afd3-c1aebbf6bcbb-parameters"
        }
      }, {
        "url": "http://hl7.org/fhir/us/cqfmeasures/StructureDefinition/cqfm-testCaseDescription",
        "valueMarkdown": "Patient 18yo w/ an Office Visit Encounter, Diabetes Condition ending 1/1 during the MP, and Retinopathy Condition 12/31 of the year before the MP, with an Eye Exam Observation 1/1 of year after the MP."
      } ],
      "modifierExtension": [ {
        "url": "http://hl7.org/fhir/us/cqfmeasures/StructureDefinition/cqfm-isTestCase",
        "valueBoolean": true
      } ],
      "status": "complete",
      "type": "individual",
      "measure": "https://madie.cms.gov/Measure/CMS131FHIRDiabetesEyeExam",
      "period": {
        "start": "2026-01-01",
        "end": "2026-12-31"
      },
      "group": [ {
        "id": "Group_1",
        "population": [ {
          "id": "InitialPopulation_1",
          "code": {
            "coding": [ {
              "system": "http://terminology.hl7.org/CodeSystem/measure-population",
              "code": "initial-population",
              "display": "Initial Population"
            } ]
          },
          "count": 1
        }, {
          "id": "Denominator_1",
          "code": {
            "coding": [ {
              "system": "http://terminology.hl7.org/CodeSystem/measure-population",
              "code": "denominator",
              "display": "Denominator"
            } ]
          },
          "count": 1
        }, {
          "id": "DenominatorExclusion_1",
          "code": {
            "coding": [ {
              "system": "http://terminology.hl7.org/CodeSystem/measure-population",
              "code": "denominator-exclusion",
              "display": "Denominator Exclusion"
            } ]
          },
          "count": 0
        }, {
          "id": "Numerator_1",
          "code": {
            "coding": [ {
              "system": "http://terminology.hl7.org/CodeSystem/measure-population",
              "code": "numerator",
              "display": "Numerator"
            } ]
          },
          "count": 0
        } ],
        "measureScore": {
          "value": 1.0
        }
      } ],
      "evaluatedResource": [ {
        "reference": "Patient/19a6d651-3dd7-45a9-9340-e40e41875a13"
      }, {
        "reference": "Encounter/b643b164-b3a1-409a-9e97-e39407f17c5d"
      }, {
        "reference": "Condition/f6a2afe8-4425-4b63-b346-c9ee56346423"
      }, {
        "reference": "Condition/f6a2afe8-4425-4b63-b346-c9ee56346423.1"
      }, {
        "reference": "Observation/d33faca5-9817-4dff-ad94-1d672fbdaa14"
      } ]
    },
    "request": {
      "method": "PUT",
      "url": "MeasureReport/f4c89d43-4979-47d8-b32e-3f520a8949ef"
    }
  } ]
}