{
  "resourceType": "Bundle",
  "id": "612e6f1602c62a011f2f0b00",
  "type": "transaction",
  "entry": [ {
    "fullUrl": "https://madie.cms.gov/Patient/2ba8879a-0026-4837-ba3c-d9c4504dadf7",
    "resource": {
      "resourceType": "Patient",
      "id": "2ba8879a-0026-4837-ba3c-d9c4504dadf7",
      "meta": {
        "profile": [ "http://hl7.org/fhir/us/qicore/StructureDefinition/qicore-patient" ]
      },
      "text": {
        "status": "generated",
        "div": "<div xmlns=\"http://www.w3.org/1999/xhtml\"><div class=\"hapiHeaderText\">ICUStartConcurrentEncStart <b>DENOMPASS </b></div><table class=\"hapiPropertyTable\"><tbody><tr><td>Identifier</td><td>d2ffb757f543275338776a1648cb3dc0</td></tr><tr><td>Date of birth</td><td><span>31 January 1979</span></td></tr></tbody></table></div>"
      },
      "extension": [ {
        "url": "http://hl7.org/fhir/us/core/StructureDefinition/us-core-race",
        "extension": [ {
          "url": "ombCategory",
          "valueCoding": {
            "system": "urn:oid:2.16.840.1.113883.6.238",
            "code": "1002-5",
            "display": "American Indian or Alaska Native",
            "userSelected": true
          }
        }, {
          "url": "text",
          "valueString": "American Indian or Alaska Native"
        } ]
      }, {
        "url": "http://hl7.org/fhir/us/core/StructureDefinition/us-core-ethnicity",
        "extension": [ {
          "url": "ombCategory",
          "valueCoding": {
            "system": "urn:oid:2.16.840.1.113883.6.238",
            "code": "2135-2",
            "display": "Hispanic or Latino",
            "userSelected": true
          }
        }, {
          "url": "text",
          "valueString": "Hispanic or Latino"
        } ]
      } ],
      "identifier": [ {
        "type": {
          "coding": [ {
            "system": "http://terminology.hl7.org/CodeSystem/v2-0203",
            "code": "MR"
          } ]
        },
        "system": "https://bonnie-fhir.healthit.gov/",
        "value": "612e6f1602c62a011f2f0b00"
      } ],
      "active": true,
      "name": [ {
        "use": "usual",
        "family": "DENOMPass",
        "given": [ "ICUStartConcurrentEncStart" ]
      } ],
      "gender": "male",
      "birthDate": "1980-01-31"
    },
    "request": {
      "method": "PUT",
      "url": "Patient/2ba8879a-0026-4837-ba3c-d9c4504dadf7"
    }
  }, {
    "fullUrl": "https://madie.cms.gov/Encounter/65bd7cf5-a827-4a05-bdc5-0b8e69398dae",
    "resource": {
      "resourceType": "Encounter",
      "id": "65bd7cf5-a827-4a05-bdc5-0b8e69398dae",
      "meta": {
        "profile": [ "http://hl7.org/fhir/us/qicore/StructureDefinition/qicore-encounter" ]
      },
      "status": "finished",
      "class": {
        "system": "http://terminology.hl7.org/CodeSystem/v3-ActCode",
        "code": "IMP",
        "display": "inpatient encounter"
      },
      "type": [ {
        "coding": [ {
          "system": "http://snomed.info/sct",
          "code": "8715000"
        } ]
      } ],
      "subject": {
        "reference": "Patient/2ba8879a-0026-4837-ba3c-d9c4504dadf7"
      },
      "period": {
        "start": "2026-12-01T08:00:00.000+00:00",
        "end": "2026-12-31T23:59:00.000+00:00"
      },
      "length": {
        "value": 30.0,
        "unit": "days"
      },
      "location": [ {
        "location": {
          "reference": "Location/13aad5f4-682c-4de7-bcb6-2b1c34c894a2"
        },
        "period": {
          "start": "2026-12-01T08:00:00.000+00:00",
          "end": "2026-12-03T11:59:00.000+00:00"
        }
      } ]
    },
    "request": {
      "method": "PUT",
      "url": "Encounter/65bd7cf5-a827-4a05-bdc5-0b8e69398dae"
    }
  }, {
    "fullUrl": "https://madie.cms.gov/Coverage/00b927fa-d9e4-4349-a65f-91dbd5a5bcef",
    "resource": {
      "resourceType": "Coverage",
      "id": "00b927fa-d9e4-4349-a65f-91dbd5a5bcef",
      "status": "active",
      "beneficiary": {
        "reference": "Patient/2ba8879a-0026-4837-ba3c-d9c4504dadf7"
      },
      "period": {
        "start": "1975-03-03T08:00:00.000+00:00"
      },
      "payor": [ {
        "reference": "Organization/2f27dd90-b76c-4066-b479-9639607f360e"
      } ]
    },
    "request": {
      "method": "PUT",
      "url": "Coverage/00b927fa-d9e4-4349-a65f-91dbd5a5bcef"
    }
  }, {
    "fullUrl": "https://madie.cms.gov/Location/13aad5f4-682c-4de7-bcb6-2b1c34c894a2",
    "resource": {
      "resourceType": "Location",
      "id": "13aad5f4-682c-4de7-bcb6-2b1c34c894a2",
      "meta": {
        "profile": [ "http://hl7.org/fhir/us/qicore/StructureDefinition/qicore-location" ]
      },
      "identifier": [ {
        "use": "usual",
        "system": "http://exampleoflocation.com",
        "value": "B1-S.F2"
      } ],
      "name": "Medical Surgical East, first floor",
      "type": [ {
        "coding": [ {
          "system": "https://www.cdc.gov/nhsn/cdaportal/terminology/codesystem/hsloc.html",
          "code": "1025-6",
          "display": "Trauma Critical Care",
          "userSelected": true
        } ]
      } ]
    },
    "request": {
      "method": "PUT",
      "url": "Location/13aad5f4-682c-4de7-bcb6-2b1c34c894a2"
    }
  }, {
    "fullUrl": "https://madie.cms.gov/Organization/2f27dd90-b76c-4066-b479-9639607f360e",
    "resource": {
      "resourceType": "Organization",
      "id": "2f27dd90-b76c-4066-b479-9639607f360e",
      "meta": {
        "profile": [ "http://hl7.org/fhir/us/qicore/StructureDefinition/qicore-organization" ]
      },
      "identifier": [ {
        "use": "temp",
        "system": "urn:oid:2.16.840.1.113883.4.4",
        "value": "21-3259825"
      } ],
      "active": true,
      "type": [ {
        "coding": [ {
          "system": "http://terminology.hl7.org/CodeSystem/organization-type",
          "code": "pay",
          "display": "Payer"
        } ]
      } ],
      "name": "Blue Cross Blue Shield of Texas",
      "telecom": [ {
        "system": "phone",
        "value": "(+1) 972-766-6900"
      } ],
      "address": [ {
        "use": "billing",
        "type": "postal",
        "line": [ "P.O. Box 660044" ],
        "city": "Dallas",
        "state": "TX",
        "postalCode": "75266-0044",
        "country": "USA"
      } ]
    },
    "request": {
      "method": "PUT",
      "url": "Organization/2f27dd90-b76c-4066-b479-9639607f360e"
    }
  }, {
    "fullUrl": "https://madie.cms.gov/Practitioner/a71f88d8-90f1-4420-afbe-0ffcbcf8ab3e",
    "resource": {
      "resourceType": "Practitioner",
      "id": "a71f88d8-90f1-4420-afbe-0ffcbcf8ab3e",
      "identifier": [ {
        "system": "http://hl7.org/fhir/sid/us-npi",
        "value": "123456"
      } ],
      "name": [ {
        "family": "Evil",
        "prefix": [ "Dr" ]
      } ]
    },
    "request": {
      "method": "PUT",
      "url": "Practitioner/a71f88d8-90f1-4420-afbe-0ffcbcf8ab3e"
    }
  }, {
    "fullUrl": "https://madie.cms.gov/MeasureReport/8de44d95-7ddb-4c60-b79b-4e0b56e1e462",
    "resource": {
      "resourceType": "MeasureReport",
      "id": "8de44d95-7ddb-4c60-b79b-4e0b56e1e462",
      "meta": {
        "profile": [ "http://hl7.org/fhir/us/cqfmeasures/StructureDefinition/test-case-cqfm" ]
      },
      "contained": [ {
        "resourceType": "Parameters",
        "id": "c636a499-3f38-4aa8-ac6b-f2a09a674a34-parameters",
        "parameter": [ {
          "name": "subject",
          "valueString": "2ba8879a-0026-4837-ba3c-d9c4504dadf7"
        } ]
      } ],
      "extension": [ {
        "url": "http://hl7.org/fhir/StructureDefinition/cqf-inputParameters",
        "valueReference": {
          "reference": "#c636a499-3f38-4aa8-ac6b-f2a09a674a34-parameters"
        }
      }, {
        "url": "http://hl7.org/fhir/us/cqfmeasures/StructureDefinition/cqfm-testCaseDescription",
        "valueMarkdown": "ICU starts concurrent with admission\n"
      } ],
      "modifierExtension": [ {
        "url": "http://hl7.org/fhir/us/cqfmeasures/StructureDefinition/cqfm-isTestCase",
        "valueBoolean": true
      } ],
      "status": "complete",
      "type": "individual",
      "measure": "https://madie.cms.gov/Measure/CMS190FHIRVTEProphylaxisICU",
      "period": {
        "start": "2026-01-01",
        "end": "2026-12-31"
      },
      "group": [ {
        "id": "Group_1",
        "population": [ {
          "id": "InitialPopulation_1",
          "code": {
            "coding": [ {
              "system": "http://terminology.hl7.org/CodeSystem/measure-population",
              "code": "initial-population",
              "display": "Initial Population"
            } ]
          },
          "count": 1
        }, {
          "id": "Denominator_1",
          "code": {
            "coding": [ {
              "system": "http://terminology.hl7.org/CodeSystem/measure-population",
              "code": "denominator",
              "display": "Denominator"
            } ]
          },
          "count": 1
        }, {
          "id": "DenominatorExclusion_1",
          "code": {
            "coding": [ {
              "system": "http://terminology.hl7.org/CodeSystem/measure-population",
              "code": "denominator-exclusion",
              "display": "Denominator Exclusion"
            } ]
          },
          "count": 0
        }, {
          "id": "Numerator_1",
          "code": {
            "coding": [ {
              "system": "http://terminology.hl7.org/CodeSystem/measure-population",
              "code": "numerator",
              "display": "Numerator"
            } ]
          },
          "count": 0
        }, {
          "id": "DenominatorException_1",
          "code": {
            "coding": [ {
              "system": "http://terminology.hl7.org/CodeSystem/measure-population",
              "code": "denominator-exception",
              "display": "Denominator Exception"
            } ]
          },
          "count": 0
        } ],
        "measureScore": {
          "value": 0.0
        }
      } ],
      "evaluatedResource": [ {
        "reference": "Patient/2ba8879a-0026-4837-ba3c-d9c4504dadf7"
      }, {
        "reference": "Encounter/65bd7cf5-a827-4a05-bdc5-0b8e69398dae"
      }, {
        "reference": "Coverage/00b927fa-d9e4-4349-a65f-91dbd5a5bcef"
      }, {
        "reference": "Location/13aad5f4-682c-4de7-bcb6-2b1c34c894a2"
      }, {
        "reference": "Organization/2f27dd90-b76c-4066-b479-9639607f360e"
      }, {
        "reference": "Practitioner/a71f88d8-90f1-4420-afbe-0ffcbcf8ab3e"
      } ]
    },
    "request": {
      "method": "PUT",
      "url": "MeasureReport/8de44d95-7ddb-4c60-b79b-4e0b56e1e462"
    }
  } ]
}