{
  "resourceType": "Bundle",
  "id": "Patient-35-IPPass-AnnualWellnessVisit",
  "type": "transaction",
  "entry": [ {
    "fullUrl": "https://madie.cms.gov/Patient/da05305e-9c4c-4b1d-ac55-cab089a11d2b",
    "resource": {
      "resourceType": "Patient",
      "id": "da05305e-9c4c-4b1d-ac55-cab089a11d2b",
      "meta": {
        "profile": [ "http://hl7.org/fhir/us/qicore/StructureDefinition/qicore-patient" ]
      },
      "extension": [ {
        "url": "http://hl7.org/fhir/us/core/StructureDefinition/us-core-race",
        "extension": [ {
          "url": "ombCategory",
          "valueCoding": {
            "system": "urn:oid:2.16.840.1.113883.6.238",
            "code": "2028-9",
            "display": "Asian"
          }
        }, {
          "url": "text",
          "valueString": "Asian"
        } ]
      }, {
        "url": "http://hl7.org/fhir/us/core/StructureDefinition/us-core-ethnicity",
        "extension": [ {
          "url": "ombCategory",
          "valueCoding": {
            "system": "urn:oid:2.16.840.1.113883.6.238",
            "code": "2135-2",
            "display": "Hispanic or Latino"
          }
        }, {
          "url": "text",
          "valueString": "Hispanic or Latino"
        } ]
      } ],
      "identifier": [ {
        "system": "http://hospital.smarthealthit.org",
        "value": "999999995"
      } ],
      "name": [ {
        "family": "Bertha",
        "given": [ "Betty" ]
      } ],
      "gender": "female",
      "birthDate": "2008-01-01"
    },
    "request": {
      "method": "PUT",
      "url": "Patient/da05305e-9c4c-4b1d-ac55-cab089a11d2b"
    }
  }, {
    "fullUrl": "https://madie.cms.gov/Encounter/d46373cb-9e9a-4bf9-a655-5d2d15179183",
    "resource": {
      "resourceType": "Encounter",
      "id": "d46373cb-9e9a-4bf9-a655-5d2d15179183",
      "meta": {
        "profile": [ "http://hl7.org/fhir/us/qicore/StructureDefinition/qicore-encounter" ]
      },
      "status": "finished",
      "class": {
        "system": "http://terminology.hl7.org/CodeSystem/v3-ActCode",
        "code": "AMB",
        "display": "ambulatory"
      },
      "type": [ {
        "coding": [ {
          "system": "http://snomed.info/sct",
          "code": "444971000124105",
          "display": "Annual wellness visit (procedure)"
        } ]
      } ],
      "subject": {
        "reference": "Patient/da05305e-9c4c-4b1d-ac55-cab089a11d2b"
      },
      "period": {
        "start": "2026-01-01T00:00:00.000+00:00",
        "end": "2026-01-01T00:15:00.000+00:00"
      }
    },
    "request": {
      "method": "PUT",
      "url": "Encounter/d46373cb-9e9a-4bf9-a655-5d2d15179183"
    }
  }, {
    "fullUrl": "https://madie.cms.gov/Condition/3aeee8f7-7a56-4db8-affd-7af7ce1f8aa8",
    "resource": {
      "resourceType": "Condition",
      "id": "3aeee8f7-7a56-4db8-affd-7af7ce1f8aa8",
      "meta": {
        "profile": [ "http://hl7.org/fhir/us/qicore/StructureDefinition/qicore-condition-encounter-diagnosis" ]
      },
      "clinicalStatus": {
        "coding": [ {
          "system": "http://terminology.hl7.org/CodeSystem/condition-clinical",
          "code": "active"
        } ]
      },
      "category": [ {
        "coding": [ {
          "system": "http://terminology.hl7.org/CodeSystem/condition-category",
          "code": "encounter-diagnosis",
          "display": "Encounter Diagnosis"
        } ]
      } ],
      "code": {
        "coding": [ {
          "system": "http://snomed.info/sct",
          "code": "102781000119107",
          "display": "Sensory neuropathy due to type 1 diabetes mellitus (disorder)"
        } ]
      },
      "subject": {
        "reference": "Patient/da05305e-9c4c-4b1d-ac55-cab089a11d2b"
      },
      "onsetDateTime": "2026-01-01T23:59:00.000+00:00"
    },
    "request": {
      "method": "PUT",
      "url": "Condition/3aeee8f7-7a56-4db8-affd-7af7ce1f8aa8"
    }
  }, {
    "fullUrl": "https://madie.cms.gov/MeasureReport/42fc86c0-5675-4fdb-af87-cbf167179ebb",
    "resource": {
      "resourceType": "MeasureReport",
      "id": "42fc86c0-5675-4fdb-af87-cbf167179ebb",
      "meta": {
        "profile": [ "http://hl7.org/fhir/us/cqfmeasures/StructureDefinition/test-case-cqfm" ]
      },
      "contained": [ {
        "resourceType": "Parameters",
        "id": "7dc2b561-0ee9-41c6-8a4a-1cf9e7c280fd-parameters",
        "parameter": [ {
          "name": "subject",
          "valueString": "da05305e-9c4c-4b1d-ac55-cab089a11d2b"
        } ]
      } ],
      "extension": [ {
        "url": "http://hl7.org/fhir/StructureDefinition/cqf-inputParameters",
        "valueReference": {
          "reference": "#7dc2b561-0ee9-41c6-8a4a-1cf9e7c280fd-parameters"
        }
      }, {
        "url": "http://hl7.org/fhir/us/cqfmeasures/StructureDefinition/cqfm-testCaseDescription",
        "valueMarkdown": "Encounter is an annual wellness visit"
      } ],
      "modifierExtension": [ {
        "url": "http://hl7.org/fhir/us/cqfmeasures/StructureDefinition/cqfm-isTestCase",
        "valueBoolean": true
      } ],
      "status": "complete",
      "type": "individual",
      "measure": "https://madie.cms.gov/Measure/CMS122FHIRDiabetesAssessGT9Pct",
      "period": {
        "start": "2026-01-01",
        "end": "2026-12-31"
      },
      "group": [ {
        "id": "Group_1",
        "population": [ {
          "id": "InitialPopulation_1",
          "code": {
            "coding": [ {
              "system": "http://terminology.hl7.org/CodeSystem/measure-population",
              "code": "initial-population",
              "display": "Initial Population"
            } ]
          },
          "count": 1
        }, {
          "id": "Denominator_1",
          "code": {
            "coding": [ {
              "system": "http://terminology.hl7.org/CodeSystem/measure-population",
              "code": "denominator",
              "display": "Denominator"
            } ]
          },
          "count": 1
        }, {
          "id": "DenominatorExclusion_1",
          "code": {
            "coding": [ {
              "system": "http://terminology.hl7.org/CodeSystem/measure-population",
              "code": "denominator-exclusion",
              "display": "Denominator Exclusion"
            } ]
          },
          "count": 0
        }, {
          "id": "Numerator_1",
          "code": {
            "coding": [ {
              "system": "http://terminology.hl7.org/CodeSystem/measure-population",
              "code": "numerator",
              "display": "Numerator"
            } ]
          },
          "count": 1
        } ],
        "measureScore": {
          "value": 1.0
        }
      } ],
      "evaluatedResource": [ {
        "reference": "Patient/da05305e-9c4c-4b1d-ac55-cab089a11d2b"
      }, {
        "reference": "Encounter/d46373cb-9e9a-4bf9-a655-5d2d15179183"
      }, {
        "reference": "Condition/3aeee8f7-7a56-4db8-affd-7af7ce1f8aa8"
      } ]
    },
    "request": {
      "method": "PUT",
      "url": "MeasureReport/42fc86c0-5675-4fdb-af87-cbf167179ebb"
    }
  } ]
}