{
  "resourceType": "Bundle",
  "id": "NUMFail-InitHOOSAfterTHAFUHOOS300DaysAfterTHA",
  "type": "collection",
  "entry": [ {
    "fullUrl": "https://madie.cms.gov/Patient/a950ed29-6107-44eb-aaaf-cb814560108f",
    "resource": {
      "resourceType": "Patient",
      "id": "a950ed29-6107-44eb-aaaf-cb814560108f",
      "meta": {
        "profile": [ "http://hl7.org/fhir/us/qicore/StructureDefinition/qicore-patient" ]
      },
      "extension": [ {
        "url": "http://hl7.org/fhir/us/core/StructureDefinition/us-core-race",
        "extension": [ {
          "url": "ombCategory",
          "valueCoding": {
            "system": "urn:oid:2.16.840.1.113883.6.238",
            "code": "2028-9",
            "display": "Asian"
          }
        }, {
          "url": "text",
          "valueString": "Asian"
        } ]
      }, {
        "url": "http://hl7.org/fhir/us/core/StructureDefinition/us-core-ethnicity",
        "extension": [ {
          "url": "ombCategory",
          "valueCoding": {
            "system": "urn:oid:2.16.840.1.113883.6.238",
            "code": "2135-2",
            "display": "Hispanic or Latino"
          }
        }, {
          "url": "text",
          "valueString": "Hispanic or Latino"
        } ]
      } ],
      "identifier": [ {
        "system": "http://hospital.smarthealthit.org",
        "value": "999999995"
      } ],
      "name": [ {
        "family": "Bertha",
        "given": [ "Betty" ]
      } ],
      "gender": "female",
      "birthDate": "2007-01-01"
    }
  }, {
    "fullUrl": "https://madie.cms.gov/Procedure/8fd16885-85a0-47f1-8380-64e1f7246a68",
    "resource": {
      "resourceType": "Procedure",
      "id": "8fd16885-85a0-47f1-8380-64e1f7246a68",
      "meta": {
        "profile": [ "http://hl7.org/fhir/us/qicore/StructureDefinition/qicore-procedure" ]
      },
      "extension": [ {
        "url": "http://hl7.org/fhir/us/qicore/StructureDefinition/qicore-recorded",
        "valueDateTime": "2024-11-01T00:00:00.000+00:00"
      } ],
      "status": "completed",
      "code": {
        "coding": [ {
          "system": "http://www.cms.gov/Medicare/Coding/ICD10",
          "code": "0SR9019",
          "display": "Replacement of Right Hip Joint with Metal Synthetic Substitute, Cemented, Open Approach"
        } ]
      },
      "subject": {
        "reference": "Patient/a950ed29-6107-44eb-aaaf-cb814560108f"
      },
      "performedPeriod": {
        "start": "2024-11-01T00:00:00.000+00:00",
        "end": "2024-11-01T01:00:00.000+00:00"
      }
    }
  }, {
    "fullUrl": "https://madie.cms.gov/Encounter/b9e5a555-26b3-48a5-a870-146616174fdc",
    "resource": {
      "resourceType": "Encounter",
      "id": "b9e5a555-26b3-48a5-a870-146616174fdc",
      "meta": {
        "profile": [ "http://hl7.org/fhir/us/qicore/StructureDefinition/qicore-encounter" ]
      },
      "status": "finished",
      "class": {
        "system": "http://terminology.hl7.org/CodeSystem/v3-ActCode",
        "code": "AMB",
        "display": "ambulatory"
      },
      "type": [ {
        "coding": [ {
          "system": "http://snomed.info/sct",
          "version": "http://snomed.info/sct/731000124108/version/20250301",
          "code": "281036007",
          "display": "Follow-up consultation (procedure)"
        } ]
      } ],
      "subject": {
        "reference": "Patient/a950ed29-6107-44eb-aaaf-cb814560108f"
      },
      "period": {
        "start": "2025-11-01T00:00:00.000+00:00",
        "end": "2025-11-01T01:15:00.000+00:00"
      }
    }
  }, {
    "fullUrl": "https://madie.cms.gov/Observation/77d3b121-0069-469d-8383-bcb017de2cf6",
    "resource": {
      "resourceType": "Observation",
      "id": "77d3b121-0069-469d-8383-bcb017de2cf6",
      "meta": {
        "profile": [ "http://hl7.org/fhir/us/qicore/StructureDefinition/qicore-observation-screening-assessment" ]
      },
      "status": "final",
      "category": [ {
        "coding": [ {
          "system": "http://terminology.hl7.org/CodeSystem/observation-category",
          "code": "survey"
        } ]
      } ],
      "code": {
        "coding": [ {
          "system": "http://loinc.org",
          "code": "72093-8",
          "display": "Quality of life score [HOOS]"
        } ]
      },
      "subject": {
        "reference": "Patient/a950ed29-6107-44eb-aaaf-cb814560108f"
      },
      "effectivePeriod": {
        "start": "2024-11-02T00:00:00.000+00:00",
        "end": "2024-11-02T01:00:00.000+00:00"
      },
      "valueInteger": 60
    }
  }, {
    "fullUrl": "https://madie.cms.gov/Observation/2666da1b-4ac5-4cce-9b15-cd3e3c1488b4",
    "resource": {
      "resourceType": "Observation",
      "id": "2666da1b-4ac5-4cce-9b15-cd3e3c1488b4",
      "meta": {
        "profile": [ "http://hl7.org/fhir/us/qicore/StructureDefinition/qicore-observation-screening-assessment" ]
      },
      "status": "final",
      "category": [ {
        "coding": [ {
          "system": "http://terminology.hl7.org/CodeSystem/observation-category",
          "code": "survey"
        } ]
      } ],
      "code": {
        "coding": [ {
          "system": "http://loinc.org",
          "code": "72094-6",
          "display": "Sport-recreation score [HOOS]"
        } ]
      },
      "subject": {
        "reference": "Patient/a950ed29-6107-44eb-aaaf-cb814560108f"
      },
      "effectivePeriod": {
        "start": "2024-11-02T00:00:00.000+00:00",
        "end": "2024-11-02T01:00:00.000+00:00"
      },
      "valueInteger": 60
    }
  }, {
    "fullUrl": "https://madie.cms.gov/Observation/8e5a18c5-5874-45b7-9168-3a20e892d426",
    "resource": {
      "resourceType": "Observation",
      "id": "8e5a18c5-5874-45b7-9168-3a20e892d426",
      "meta": {
        "profile": [ "http://hl7.org/fhir/us/qicore/StructureDefinition/qicore-observation-screening-assessment" ]
      },
      "status": "final",
      "category": [ {
        "coding": [ {
          "system": "http://terminology.hl7.org/CodeSystem/observation-category",
          "code": "survey"
        } ]
      } ],
      "code": {
        "coding": [ {
          "system": "http://loinc.org",
          "code": "72095-3",
          "display": "Activities of daily living score [HOOS]"
        } ]
      },
      "subject": {
        "reference": "Patient/a950ed29-6107-44eb-aaaf-cb814560108f"
      },
      "effectivePeriod": {
        "start": "2024-11-02T00:00:00.000+00:00",
        "end": "2024-11-02T01:00:00.000+00:00"
      },
      "valueInteger": 60
    }
  }, {
    "fullUrl": "https://madie.cms.gov/Observation/512fe794-3a7c-4679-b005-7802279dd6c1",
    "resource": {
      "resourceType": "Observation",
      "id": "512fe794-3a7c-4679-b005-7802279dd6c1",
      "meta": {
        "profile": [ "http://hl7.org/fhir/us/qicore/StructureDefinition/qicore-observation-screening-assessment" ]
      },
      "status": "final",
      "category": [ {
        "coding": [ {
          "system": "http://terminology.hl7.org/CodeSystem/observation-category",
          "code": "survey"
        } ]
      } ],
      "code": {
        "coding": [ {
          "system": "http://loinc.org",
          "code": "72096-1",
          "display": "Symptoms score [HOOS]"
        } ]
      },
      "subject": {
        "reference": "Patient/a950ed29-6107-44eb-aaaf-cb814560108f"
      },
      "effectivePeriod": {
        "start": "2024-11-02T00:00:00.000+00:00",
        "end": "2024-11-02T01:00:00.000+00:00"
      },
      "valueInteger": 60
    }
  }, {
    "fullUrl": "https://madie.cms.gov/Observation/ca96ee48-e613-4f89-92e7-3f8a10c3ad03",
    "resource": {
      "resourceType": "Observation",
      "id": "ca96ee48-e613-4f89-92e7-3f8a10c3ad03",
      "meta": {
        "profile": [ "http://hl7.org/fhir/us/qicore/StructureDefinition/qicore-observation-screening-assessment" ]
      },
      "status": "final",
      "category": [ {
        "coding": [ {
          "system": "http://terminology.hl7.org/CodeSystem/observation-category",
          "code": "survey"
        } ]
      } ],
      "code": {
        "coding": [ {
          "system": "http://loinc.org",
          "code": "72097-9",
          "display": "Pain score [HOOS]"
        } ]
      },
      "subject": {
        "reference": "Patient/a950ed29-6107-44eb-aaaf-cb814560108f"
      },
      "effectivePeriod": {
        "start": "2024-11-02T00:00:00.000+00:00",
        "end": "2024-11-02T01:00:00.000+00:00"
      },
      "valueInteger": 60
    }
  }, {
    "fullUrl": "https://madie.cms.gov/Observation/ebf8acd4-8629-42a7-a877-7ede37ae3eb2",
    "resource": {
      "resourceType": "Observation",
      "id": "ebf8acd4-8629-42a7-a877-7ede37ae3eb2",
      "meta": {
        "profile": [ "http://hl7.org/fhir/us/qicore/StructureDefinition/qicore-observation-screening-assessment" ]
      },
      "status": "final",
      "category": [ {
        "coding": [ {
          "system": "http://terminology.hl7.org/CodeSystem/observation-category",
          "code": "survey"
        } ]
      } ],
      "code": {
        "coding": [ {
          "system": "http://loinc.org",
          "code": "72093-8",
          "display": "Quality of life score [HOOS]"
        } ]
      },
      "subject": {
        "reference": "Patient/a950ed29-6107-44eb-aaaf-cb814560108f"
      },
      "effectivePeriod": {
        "start": "2024-11-02T00:00:00.000+00:00",
        "end": "2024-11-02T01:00:00.000+00:00"
      },
      "valueInteger": 60
    }
  }, {
    "fullUrl": "https://madie.cms.gov/Observation/9caa2964-930d-412e-8e30-d40084976bb2",
    "resource": {
      "resourceType": "Observation",
      "id": "9caa2964-930d-412e-8e30-d40084976bb2",
      "meta": {
        "profile": [ "http://hl7.org/fhir/us/qicore/StructureDefinition/qicore-observation-screening-assessment" ]
      },
      "status": "final",
      "category": [ {
        "coding": [ {
          "system": "http://terminology.hl7.org/CodeSystem/observation-category",
          "code": "survey"
        } ]
      } ],
      "code": {
        "coding": [ {
          "system": "http://loinc.org",
          "code": "72094-6",
          "display": "Sport-recreation score [HOOS]"
        } ]
      },
      "subject": {
        "reference": "Patient/a950ed29-6107-44eb-aaaf-cb814560108f"
      },
      "effectivePeriod": {
        "start": "2024-11-02T00:00:00.000+00:00",
        "end": "2024-11-02T01:00:00.000+00:00"
      },
      "valueInteger": 60
    }
  }, {
    "fullUrl": "https://madie.cms.gov/Observation/fa2c0c6f-9bc2-4c38-a901-fe4a47adb844",
    "resource": {
      "resourceType": "Observation",
      "id": "fa2c0c6f-9bc2-4c38-a901-fe4a47adb844",
      "meta": {
        "profile": [ "http://hl7.org/fhir/us/qicore/StructureDefinition/qicore-observation-screening-assessment" ]
      },
      "status": "final",
      "category": [ {
        "coding": [ {
          "system": "http://terminology.hl7.org/CodeSystem/observation-category",
          "code": "survey"
        } ]
      } ],
      "code": {
        "coding": [ {
          "system": "http://loinc.org",
          "code": "72095-3",
          "display": "Activities of daily living score [HOOS]"
        } ]
      },
      "subject": {
        "reference": "Patient/a950ed29-6107-44eb-aaaf-cb814560108f"
      },
      "effectivePeriod": {
        "start": "2024-11-02T00:00:00.000+00:00",
        "end": "2024-11-02T01:00:00.000+00:00"
      },
      "valueInteger": 60
    }
  }, {
    "fullUrl": "https://madie.cms.gov/Observation/660d0eef-1982-4631-8a26-e3ff6394b953",
    "resource": {
      "resourceType": "Observation",
      "id": "660d0eef-1982-4631-8a26-e3ff6394b953",
      "meta": {
        "profile": [ "http://hl7.org/fhir/us/qicore/StructureDefinition/qicore-observation-screening-assessment" ]
      },
      "status": "final",
      "category": [ {
        "coding": [ {
          "system": "http://terminology.hl7.org/CodeSystem/observation-category",
          "code": "survey"
        } ]
      } ],
      "code": {
        "coding": [ {
          "system": "http://loinc.org",
          "code": "72096-1",
          "display": "Symptoms score [HOOS]"
        } ]
      },
      "subject": {
        "reference": "Patient/a950ed29-6107-44eb-aaaf-cb814560108f"
      },
      "effectivePeriod": {
        "start": "2024-11-02T00:00:00.000+00:00",
        "end": "2024-11-02T01:00:00.000+00:00"
      },
      "valueInteger": 60
    }
  }, {
    "fullUrl": "https://madie.cms.gov/Observation/dca3d0a4-cb11-4f8e-8b13-644e49fd5660",
    "resource": {
      "resourceType": "Observation",
      "id": "dca3d0a4-cb11-4f8e-8b13-644e49fd5660",
      "meta": {
        "profile": [ "http://hl7.org/fhir/us/qicore/StructureDefinition/qicore-observation-screening-assessment" ]
      },
      "status": "final",
      "category": [ {
        "coding": [ {
          "system": "http://terminology.hl7.org/CodeSystem/observation-category",
          "code": "survey"
        } ]
      } ],
      "code": {
        "coding": [ {
          "system": "http://loinc.org",
          "code": "72097-9",
          "display": "Pain score [HOOS]"
        } ]
      },
      "subject": {
        "reference": "Patient/a950ed29-6107-44eb-aaaf-cb814560108f"
      },
      "effectivePeriod": {
        "start": "2024-11-02T00:00:00.000+00:00",
        "end": "2024-11-02T01:00:00.000+00:00"
      },
      "valueInteger": 60
    }
  }, {
    "fullUrl": "https://madie.cms.gov/MeasureReport/12f2cd36-a9f2-4a98-81dc-412397dab146",
    "resource": {
      "resourceType": "MeasureReport",
      "id": "12f2cd36-a9f2-4a98-81dc-412397dab146",
      "meta": {
        "profile": [ "http://hl7.org/fhir/us/cqfmeasures/StructureDefinition/test-case-cqfm" ]
      },
      "contained": [ {
        "resourceType": "Parameters",
        "id": "86f98346-94d8-47bf-8347-96472ae2a9be-parameters",
        "parameter": [ {
          "name": "subject",
          "valueString": "a950ed29-6107-44eb-aaaf-cb814560108f"
        } ]
      } ],
      "extension": [ {
        "url": "http://hl7.org/fhir/StructureDefinition/cqf-inputParameters",
        "valueReference": {
          "reference": "#86f98346-94d8-47bf-8347-96472ae2a9be-parameters"
        }
      }, {
        "url": "http://hl7.org/fhir/us/cqfmeasures/StructureDefinition/cqfm-testCaseDescription",
        "valueMarkdown": "Patient w/ a THA Procedure 11/1, Initial Hip Assessment HOOS day after THA Procedure(11/2), and FollowUp Hip Assessment HOOS 300 days after THA Procedure (8/27)"
      } ],
      "modifierExtension": [ {
        "url": "http://hl7.org/fhir/us/cqfmeasures/StructureDefinition/cqfm-isTestCase",
        "valueBoolean": true
      } ],
      "status": "complete",
      "type": "individual",
      "measure": "https://madie.cms.gov/Measure/CMS56FHIRFuncStatHipReplacement",
      "period": {
        "start": "2026-01-01",
        "end": "2026-12-31"
      },
      "group": [ {
        "id": "Group_1",
        "population": [ {
          "id": "InitialPopulation_1",
          "code": {
            "coding": [ {
              "system": "http://terminology.hl7.org/CodeSystem/measure-population",
              "code": "initial-population",
              "display": "Initial Population"
            } ]
          },
          "count": 1
        }, {
          "id": "Denominator_1",
          "code": {
            "coding": [ {
              "system": "http://terminology.hl7.org/CodeSystem/measure-population",
              "code": "denominator",
              "display": "Denominator"
            } ]
          },
          "count": 1
        }, {
          "id": "DenominatorExclusion_1",
          "code": {
            "coding": [ {
              "system": "http://terminology.hl7.org/CodeSystem/measure-population",
              "code": "denominator-exclusion",
              "display": "Denominator Exclusion"
            } ]
          },
          "count": 0
        }, {
          "id": "Numerator_1",
          "code": {
            "coding": [ {
              "system": "http://terminology.hl7.org/CodeSystem/measure-population",
              "code": "numerator",
              "display": "Numerator"
            } ]
          },
          "count": 0
        } ],
        "measureScore": {
          "value": 1.0
        }
      } ],
      "evaluatedResource": [ {
        "reference": "Patient/a950ed29-6107-44eb-aaaf-cb814560108f"
      }, {
        "reference": "Procedure/8fd16885-85a0-47f1-8380-64e1f7246a68"
      }, {
        "reference": "Encounter/b9e5a555-26b3-48a5-a870-146616174fdc"
      }, {
        "reference": "Observation/77d3b121-0069-469d-8383-bcb017de2cf6"
      }, {
        "reference": "Observation/2666da1b-4ac5-4cce-9b15-cd3e3c1488b4"
      }, {
        "reference": "Observation/8e5a18c5-5874-45b7-9168-3a20e892d426"
      }, {
        "reference": "Observation/512fe794-3a7c-4679-b005-7802279dd6c1"
      }, {
        "reference": "Observation/ca96ee48-e613-4f89-92e7-3f8a10c3ad03"
      }, {
        "reference": "Observation/ebf8acd4-8629-42a7-a877-7ede37ae3eb2"
      }, {
        "reference": "Observation/9caa2964-930d-412e-8e30-d40084976bb2"
      }, {
        "reference": "Observation/fa2c0c6f-9bc2-4c38-a901-fe4a47adb844"
      }, {
        "reference": "Observation/660d0eef-1982-4631-8a26-e3ff6394b953"
      }, {
        "reference": "Observation/dca3d0a4-cb11-4f8e-8b13-644e49fd5660"
      } ]
    }
  } ]
}