{
  "resourceType": "Bundle",
  "id": "4684631316468163498",
  "type": "collection",
  "entry": [ {
    "fullUrl": "https://madie.cms.gov/Patient/e64fd85a-d643-423d-9e3f-d4838e181aa9",
    "resource": {
      "resourceType": "Patient",
      "id": "e64fd85a-d643-423d-9e3f-d4838e181aa9",
      "meta": {
        "profile": [ "http://hl7.org/fhir/us/qicore/StructureDefinition/qicore-patient" ]
      },
      "extension": [ {
        "url": "http://hl7.org/fhir/us/core/StructureDefinition/us-core-race",
        "extension": [ {
          "url": "ombCategory",
          "valueCoding": {
            "system": "urn:oid:2.16.840.1.113883.6.238",
            "code": "1002-5",
            "display": "American Indian or Alaska Native"
          }
        }, {
          "url": "text",
          "valueString": "American Indian or Alaska Native"
        } ]
      }, {
        "url": "http://hl7.org/fhir/us/core/StructureDefinition/us-core-ethnicity",
        "extension": [ {
          "url": "ombCategory",
          "valueCoding": {
            "system": "urn:oid:2.16.840.1.113883.6.238",
            "code": "2186-5",
            "display": "Not Hispanic or Latino"
          }
        }, {
          "url": "text",
          "valueString": "Not Hispanic or Latino"
        } ]
      } ],
      "identifier": [ {
        "type": {
          "coding": [ {
            "system": "http://terminology.hl7.org/CodeSystem/v2-0203",
            "code": "MR"
          } ]
        },
        "system": "https://bonnie-fhir.healthit.gov/",
        "value": "7846135168496841685"
      } ],
      "active": true,
      "name": [ {
        "use": "usual",
        "family": "NUMERPop2Pass",
        "given": [ "BetaBlockerOrderEachEnc" ]
      } ],
      "gender": "male",
      "birthDate": "1983-09-11"
    }
  }, {
    "fullUrl": "https://madie.cms.gov/Encounter/67d8b98f-1523-4b4f-a529-193a9158dafb",
    "resource": {
      "resourceType": "Encounter",
      "id": "67d8b98f-1523-4b4f-a529-193a9158dafb",
      "meta": {
        "profile": [ "http://hl7.org/fhir/us/qicore/StructureDefinition/qicore-encounter" ]
      },
      "status": "finished",
      "class": {
        "system": "http://terminology.hl7.org/CodeSystem/v3-ActCode",
        "code": "AMB",
        "display": "ambulatory"
      },
      "type": [ {
        "coding": [ {
          "system": "http://snomed.info/sct",
          "version": "http://snomed.info/sct/731000124108/version/20250301",
          "code": "185463005"
        } ]
      } ],
      "subject": {
        "reference": "Patient/e64fd85a-d643-423d-9e3f-d4838e181aa9"
      },
      "period": {
        "start": "2026-08-16T16:00:00.000+00:00",
        "end": "2026-08-16T17:00:00.000+00:00"
      }
    }
  }, {
    "fullUrl": "https://madie.cms.gov/Encounter/6d9fe724-c4a0-4475-be26-d763a3787181",
    "resource": {
      "resourceType": "Encounter",
      "id": "6d9fe724-c4a0-4475-be26-d763a3787181",
      "meta": {
        "profile": [ "http://hl7.org/fhir/us/qicore/StructureDefinition/qicore-encounter" ]
      },
      "status": "finished",
      "class": {
        "system": "http://terminology.hl7.org/CodeSystem/v3-ActCode",
        "code": "AMB",
        "display": "ambulatory"
      },
      "type": [ {
        "coding": [ {
          "system": "http://www.ama-assn.org/go/cpt",
          "version": "2024",
          "code": "99205"
        } ]
      } ],
      "subject": {
        "reference": "Patient/e64fd85a-d643-423d-9e3f-d4838e181aa9"
      },
      "period": {
        "start": "2026-12-03T16:45:00.000+00:00",
        "end": "2026-12-03T17:45:00.000+00:00"
      }
    }
  }, {
    "fullUrl": "https://madie.cms.gov/Condition/3e54adfe-9438-44fe-8076-3c5167422b56",
    "resource": {
      "resourceType": "Condition",
      "id": "3e54adfe-9438-44fe-8076-3c5167422b56",
      "meta": {
        "profile": [ "http://hl7.org/fhir/us/qicore/StructureDefinition/qicore-condition-problems-health-concerns" ]
      },
      "clinicalStatus": {
        "coding": [ {
          "system": "http://terminology.hl7.org/CodeSystem/condition-clinical",
          "code": "active",
          "display": "Active"
        } ]
      },
      "verificationStatus": {
        "coding": [ {
          "system": "http://terminology.hl7.org/CodeSystem/condition-ver-status",
          "code": "confirmed",
          "display": "Confirmed"
        } ]
      },
      "category": [ {
        "coding": [ {
          "system": "http://terminology.hl7.org/CodeSystem/condition-category",
          "code": "problem-list-item",
          "display": "Problem List Item"
        } ]
      } ],
      "code": {
        "coding": [ {
          "system": "http://hl7.org/fhir/sid/icd-10-cm",
          "version": "2020",
          "code": "I21.09"
        } ]
      },
      "subject": {
        "reference": "Patient/e64fd85a-d643-423d-9e3f-d4838e181aa9"
      },
      "onsetPeriod": {
        "start": "2026-12-01T16:45:00.000+00:00",
        "end": "2026-12-01T17:00:00.000+00:00"
      }
    }
  }, {
    "fullUrl": "https://madie.cms.gov/MedicationRequest/39991da7-aefc-40b7-8361-77cd42195908",
    "resource": {
      "resourceType": "MedicationRequest",
      "id": "39991da7-aefc-40b7-8361-77cd42195908",
      "meta": {
        "profile": [ "http://hl7.org/fhir/us/qicore/StructureDefinition/qicore-medicationrequest" ]
      },
      "status": "completed",
      "intent": "order",
      "medicationCodeableConcept": {
        "coding": [ {
          "system": "http://www.nlm.nih.gov/research/umls/rxnorm",
          "version": "06052023",
          "code": "1234256",
          "display": "4 ML labetalol hydrochloride 5 MG/ML Cartridge"
        } ]
      },
      "subject": {
        "reference": "Patient/e64fd85a-d643-423d-9e3f-d4838e181aa9"
      },
      "authoredOn": "2026-08-16T16:00:00.000+00:00",
      "requester": {
        "reference": "Practitioner/62664fb4-084c-41b9-bda5-c02f0e48a880"
      },
      "dosageInstruction": [ {
        "timing": {
          "repeat": {
            "boundsPeriod": {
              "start": "2026-08-16T16:00:00.000+00:00",
              "end": "2026-12-02T16:00:00.000+00:00"
            }
          }
        }
      } ]
    }
  }, {
    "fullUrl": "https://madie.cms.gov/Practitioner/62664fb4-084c-41b9-bda5-c02f0e48a880",
    "resource": {
      "resourceType": "Practitioner",
      "id": "62664fb4-084c-41b9-bda5-c02f0e48a880",
      "meta": {
        "profile": [ "http://hl7.org/fhir/us/qicore/StructureDefinition/qicore-practitioner" ]
      },
      "identifier": [ {
        "use": "temp",
        "system": "urn:oid:2.16.840.1.113883.4.336",
        "value": "Practitioner-23"
      } ],
      "active": true,
      "name": [ {
        "family": "Careful",
        "given": [ "Adam" ],
        "prefix": [ "Dr" ]
      } ],
      "address": [ {
        "use": "home",
        "line": [ "534 Erewhon St" ],
        "city": "PleasantVille",
        "state": "UT",
        "postalCode": "84414"
      } ],
      "qualification": [ {
        "identifier": [ {
          "system": "http://example.org/UniversityIdentifier",
          "value": "12345"
        } ],
        "code": {
          "coding": [ {
            "system": "http://terminology.hl7.org/CodeSystem/v2-0360|2.7",
            "code": "BS",
            "display": "Bachelor of Science"
          } ],
          "text": "Bachelor of Science"
        },
        "period": {
          "start": "1996"
        },
        "issuer": {
          "display": "Example University"
        }
      } ]
    }
  }, {
    "fullUrl": "https://madie.cms.gov/MedicationRequest/34e58584-ad7d-474f-91c8-51b0d4af8b77",
    "resource": {
      "resourceType": "MedicationRequest",
      "id": "34e58584-ad7d-474f-91c8-51b0d4af8b77",
      "meta": {
        "profile": [ "http://hl7.org/fhir/us/qicore/StructureDefinition/qicore-medicationrequest" ]
      },
      "status": "active",
      "intent": "order",
      "medicationCodeableConcept": {
        "coding": [ {
          "system": "http://www.nlm.nih.gov/research/umls/rxnorm",
          "version": "06052023",
          "code": "198007",
          "display": "nadolol 40 MG Oral Tablet"
        } ]
      },
      "subject": {
        "reference": "Patient/e64fd85a-d643-423d-9e3f-d4838e181aa9"
      },
      "authoredOn": "2026-12-03T16:45:00.000+00:00",
      "requester": {
        "reference": "Practitioner/62664fb4-084c-41b9-bda5-c02f0e48a880"
      },
      "dosageInstruction": [ {
        "timing": {
          "repeat": {
            "boundsPeriod": {
              "start": "2026-12-03T16:45:00.000+00:00",
              "end": "2027-04-04T16:45:00.000+00:00"
            }
          }
        }
      } ]
    }
  }, {
    "fullUrl": "https://madie.cms.gov/Condition/13791da6-23a1-4ca3-92d1-0bc8b66de4d8",
    "resource": {
      "resourceType": "Condition",
      "id": "13791da6-23a1-4ca3-92d1-0bc8b66de4d8",
      "meta": {
        "profile": [ "http://hl7.org/fhir/us/qicore/StructureDefinition/qicore-condition-problems-health-concerns" ]
      },
      "clinicalStatus": {
        "coding": [ {
          "system": "http://terminology.hl7.org/CodeSystem/condition-clinical",
          "code": "active",
          "display": "Active"
        } ]
      },
      "verificationStatus": {
        "coding": [ {
          "system": "http://terminology.hl7.org/CodeSystem/condition-ver-status",
          "code": "confirmed",
          "display": "Confirmed"
        } ]
      },
      "category": [ {
        "coding": [ {
          "system": "http://terminology.hl7.org/CodeSystem/condition-category",
          "code": "problem-list-item",
          "display": "Problem List Item"
        } ]
      } ],
      "code": {
        "coding": [ {
          "system": "http://snomed.info/sct",
          "version": "http://snomed.info/sct/731000124108/version/20250301",
          "code": "10365005",
          "display": "Right main coronary artery thrombosis (disorder)"
        } ]
      },
      "subject": {
        "reference": "Patient/e64fd85a-d643-423d-9e3f-d4838e181aa9"
      },
      "onsetPeriod": {
        "start": "2026-12-02T16:45:00.000+00:00"
      }
    }
  }, {
    "fullUrl": "https://madie.cms.gov/MeasureReport/29a86f4d-f052-410d-be9f-364e0420a767",
    "resource": {
      "resourceType": "MeasureReport",
      "id": "29a86f4d-f052-410d-be9f-364e0420a767",
      "meta": {
        "profile": [ "http://hl7.org/fhir/us/cqfmeasures/StructureDefinition/test-case-cqfm" ]
      },
      "contained": [ {
        "resourceType": "Parameters",
        "id": "e5dca115-c1e6-4dbe-96f1-55dec6f3374b-parameters",
        "parameter": [ {
          "name": "subject",
          "valueString": "e64fd85a-d643-423d-9e3f-d4838e181aa9"
        } ]
      } ],
      "extension": [ {
        "url": "http://hl7.org/fhir/StructureDefinition/cqf-inputParameters",
        "valueReference": {
          "reference": "#e5dca115-c1e6-4dbe-96f1-55dec6f3374b-parameters"
        }
      }, {
        "url": "http://hl7.org/fhir/us/cqfmeasures/StructureDefinition/cqfm-testCaseDescription",
        "valueMarkdown": "Pt > 18, has two qualifying ambulatory visits, a CAD Encounter, no history of moderate or severe LVSD, a prior MI and beta blocker therapy ordered during 2nd visit"
      } ],
      "modifierExtension": [ {
        "url": "http://hl7.org/fhir/us/cqfmeasures/StructureDefinition/cqfm-isTestCase",
        "valueBoolean": true
      } ],
      "status": "complete",
      "type": "individual",
      "measure": "https://madie.cms.gov/Measure/CMS145FHIRCADBBlockerTPMIorLVSD",
      "period": {
        "start": "2026-01-01",
        "end": "2026-12-31"
      },
      "group": [ {
        "id": "Group_1",
        "population": [ {
          "id": "InitialPopulation_1",
          "code": {
            "coding": [ {
              "system": "http://terminology.hl7.org/CodeSystem/measure-population",
              "code": "initial-population",
              "display": "Initial Population"
            } ]
          },
          "count": 1
        }, {
          "id": "Denominator_1",
          "code": {
            "coding": [ {
              "system": "http://terminology.hl7.org/CodeSystem/measure-population",
              "code": "denominator",
              "display": "Denominator"
            } ]
          },
          "count": 0
        }, {
          "id": "Numerator_1",
          "code": {
            "coding": [ {
              "system": "http://terminology.hl7.org/CodeSystem/measure-population",
              "code": "numerator",
              "display": "Numerator"
            } ]
          },
          "count": 0
        }, {
          "id": "DenominatorException_1",
          "code": {
            "coding": [ {
              "system": "http://terminology.hl7.org/CodeSystem/measure-population",
              "code": "denominator-exception",
              "display": "Denominator Exception"
            } ]
          },
          "count": 0
        } ],
        "measureScore": {
          "value": 1.0
        }
      }, {
        "id": "Group_2",
        "population": [ {
          "id": "InitialPopulation_2",
          "code": {
            "coding": [ {
              "system": "http://terminology.hl7.org/CodeSystem/measure-population",
              "code": "initial-population",
              "display": "Initial Population"
            } ]
          },
          "count": 1
        }, {
          "id": "Denominator_2",
          "code": {
            "coding": [ {
              "system": "http://terminology.hl7.org/CodeSystem/measure-population",
              "code": "denominator",
              "display": "Denominator"
            } ]
          },
          "count": 1
        }, {
          "id": "Numerator_2",
          "code": {
            "coding": [ {
              "system": "http://terminology.hl7.org/CodeSystem/measure-population",
              "code": "numerator",
              "display": "Numerator"
            } ]
          },
          "count": 1
        }, {
          "id": "DenominatorException_2",
          "code": {
            "coding": [ {
              "system": "http://terminology.hl7.org/CodeSystem/measure-population",
              "code": "denominator-exception",
              "display": "Denominator Exception"
            } ]
          },
          "count": 0
        } ],
        "measureScore": {
          "value": 1.0
        }
      } ],
      "evaluatedResource": [ {
        "reference": "Patient/e64fd85a-d643-423d-9e3f-d4838e181aa9"
      }, {
        "reference": "Encounter/67d8b98f-1523-4b4f-a529-193a9158dafb"
      }, {
        "reference": "Encounter/6d9fe724-c4a0-4475-be26-d763a3787181"
      }, {
        "reference": "Condition/3e54adfe-9438-44fe-8076-3c5167422b56"
      }, {
        "reference": "MedicationRequest/39991da7-aefc-40b7-8361-77cd42195908"
      }, {
        "reference": "Practitioner/62664fb4-084c-41b9-bda5-c02f0e48a880"
      }, {
        "reference": "MedicationRequest/34e58584-ad7d-474f-91c8-51b0d4af8b77"
      }, {
        "reference": "Condition/13791da6-23a1-4ca3-92d1-0bc8b66de4d8"
      } ]
    }
  } ]
}