{
  "resourceType": "Bundle",
  "id": "61152a3b98086b7a79cbd7b6",
  "type": "transaction",
  "entry": [ {
    "fullUrl": "https://madie.cms.gov/Patient/e360ffc2-5b98-425a-a2bd-b051ba5ec506",
    "resource": {
      "resourceType": "Patient",
      "id": "e360ffc2-5b98-425a-a2bd-b051ba5ec506",
      "meta": {
        "profile": [ "http://hl7.org/fhir/us/qicore/StructureDefinition/qicore-patient" ]
      },
      "extension": [ {
        "url": "http://hl7.org/fhir/us/core/StructureDefinition/us-core-race",
        "extension": [ {
          "url": "ombCategory",
          "valueCoding": {
            "system": "urn:oid:2.16.840.1.113883.6.238",
            "code": "1002-5",
            "display": "American Indian or Alaska Native",
            "userSelected": true
          }
        }, {
          "url": "text",
          "valueString": "American Indian or Alaska Native"
        } ]
      }, {
        "url": "http://hl7.org/fhir/us/core/StructureDefinition/us-core-ethnicity",
        "extension": [ {
          "url": "ombCategory",
          "valueCoding": {
            "system": "urn:oid:2.16.840.1.113883.6.238",
            "code": "2135-2",
            "display": "Hispanic or Latino",
            "userSelected": true
          }
        }, {
          "url": "text",
          "valueString": "Hispanic or Latino"
        } ]
      } ],
      "identifier": [ {
        "type": {
          "coding": [ {
            "system": "http://terminology.hl7.org/CodeSystem/v2-0203",
            "code": "MR"
          } ]
        },
        "system": "https://bonnie-fhir.healthit.gov/",
        "value": "61152a3b98086b7a79cbd7b6"
      } ],
      "active": true,
      "name": [ {
        "use": "usual",
        "family": "DENOMPass",
        "given": [ "Age17inEDAge18StartOfIPEncounter" ]
      } ],
      "gender": "male",
      "birthDate": "2008-07-11"
    },
    "request": {
      "method": "PUT",
      "url": "Patient/e360ffc2-5b98-425a-a2bd-b051ba5ec506"
    }
  }, {
    "fullUrl": "https://madie.cms.gov/Encounter/ee53dcf1-af58-4fcf-8a1d-b4eeda4d3fe1",
    "resource": {
      "resourceType": "Encounter",
      "id": "ee53dcf1-af58-4fcf-8a1d-b4eeda4d3fe1",
      "meta": {
        "profile": [ "http://hl7.org/fhir/us/qicore/StructureDefinition/qicore-encounter" ]
      },
      "status": "finished",
      "class": {
        "system": "http://terminology.hl7.org/CodeSystem/v3-ActCode",
        "code": "IMP"
      },
      "type": [ {
        "coding": [ {
          "system": "http://snomed.info/sct",
          "code": "4525004"
        } ]
      } ],
      "subject": {
        "reference": "Patient/e360ffc2-5b98-425a-a2bd-b051ba5ec506"
      },
      "period": {
        "start": "2026-07-11T08:00:00.000+00:00",
        "end": "2026-07-12T08:00:00.000+00:00"
      }
    },
    "request": {
      "method": "PUT",
      "url": "Encounter/ee53dcf1-af58-4fcf-8a1d-b4eeda4d3fe1"
    }
  }, {
    "fullUrl": "https://madie.cms.gov/Encounter/0c05d05e-ae87-4f39-9f06-55405d87eb81",
    "resource": {
      "resourceType": "Encounter",
      "id": "0c05d05e-ae87-4f39-9f06-55405d87eb81",
      "meta": {
        "profile": [ "http://hl7.org/fhir/us/qicore/StructureDefinition/qicore-encounter" ]
      },
      "status": "finished",
      "class": {
        "system": "http://terminology.hl7.org/CodeSystem/v3-ActCode",
        "code": "IMP"
      },
      "type": [ {
        "coding": [ {
          "system": "http://snomed.info/sct",
          "code": "183452005"
        } ]
      } ],
      "subject": {
        "reference": "Patient/e360ffc2-5b98-425a-a2bd-b051ba5ec506"
      },
      "period": {
        "start": "2026-07-12T08:30:00.000+00:00",
        "end": "2026-07-13T21:00:00.000+00:00"
      }
    },
    "request": {
      "method": "PUT",
      "url": "Encounter/0c05d05e-ae87-4f39-9f06-55405d87eb81"
    }
  }, {
    "fullUrl": "https://madie.cms.gov/MedicationAdministration/03ec823b-ab3c-4f4b-94ed-738af8574365",
    "resource": {
      "resourceType": "MedicationAdministration",
      "id": "03ec823b-ab3c-4f4b-94ed-738af8574365",
      "meta": {
        "profile": [ "http://hl7.org/fhir/us/qicore/StructureDefinition/qicore-medicationadministration" ]
      },
      "status": "completed",
      "medicationCodeableConcept": {
        "coding": [ {
          "system": "http://www.nlm.nih.gov/research/umls/rxnorm",
          "code": "1361493",
          "display": "glimepiride 6 MG Oral Tablet",
          "userSelected": true
        } ]
      },
      "subject": {
        "reference": "Patient/e360ffc2-5b98-425a-a2bd-b051ba5ec506"
      },
      "effectivePeriod": {
        "start": "2026-07-11T08:00:00.000+00:00",
        "end": "2026-07-11T09:00:00.000+00:00"
      }
    },
    "request": {
      "method": "PUT",
      "url": "MedicationAdministration/03ec823b-ab3c-4f4b-94ed-738af8574365"
    }
  }, {
    "fullUrl": "https://madie.cms.gov/Coverage/a4a8b785-2128-415e-b96a-59b1f79beac1",
    "resource": {
      "resourceType": "Coverage",
      "id": "a4a8b785-2128-415e-b96a-59b1f79beac1",
      "meta": {
        "profile": [ "http://hl7.org/fhir/us/qicore/StructureDefinition/qicore-coverage" ]
      },
      "status": "active",
      "beneficiary": {
        "reference": "Patient/e360ffc2-5b98-425a-a2bd-b051ba5ec506"
      },
      "relationship": {
        "coding": [ {
          "system": "http://terminology.hl7.org/CodeSystem/subscriber-relationship",
          "code": "self",
          "display": "Self"
        } ]
      },
      "payor": [ {
        "reference": "Organization/fdc0f679-fa90-4754-908a-567199eaa291"
      } ]
    },
    "request": {
      "method": "PUT",
      "url": "Coverage/a4a8b785-2128-415e-b96a-59b1f79beac1"
    }
  }, {
    "fullUrl": "https://madie.cms.gov/Organization/fdc0f679-fa90-4754-908a-567199eaa291",
    "resource": {
      "resourceType": "Organization",
      "id": "fdc0f679-fa90-4754-908a-567199eaa291",
      "meta": {
        "profile": [ "http://hl7.org/fhir/us/qicore/StructureDefinition/qicore-organization" ]
      },
      "identifier": [ {
        "use": "temp",
        "system": "urn:oid:2.16.840.1.113883.4.4",
        "value": "21-3259825"
      } ],
      "active": true,
      "type": [ {
        "coding": [ {
          "system": "http://terminology.hl7.org/CodeSystem/organization-type",
          "code": "pay",
          "display": "Payer"
        } ]
      } ],
      "name": "Blue Cross Blue Shield of Texas",
      "telecom": [ {
        "system": "phone",
        "value": "(+1) 972-766-6900"
      } ],
      "address": [ {
        "use": "billing",
        "type": "postal",
        "line": [ "P.O. Box 660044" ],
        "city": "Dallas",
        "state": "TX",
        "postalCode": "75266-0044",
        "country": "USA"
      } ]
    },
    "request": {
      "method": "PUT",
      "url": "Organization/fdc0f679-fa90-4754-908a-567199eaa291"
    }
  }, {
    "fullUrl": "https://madie.cms.gov/Practitioner/ae165cb5-c748-4374-899c-2a580a0f67bb",
    "resource": {
      "resourceType": "Practitioner",
      "id": "ae165cb5-c748-4374-899c-2a580a0f67bb",
      "meta": {
        "profile": [ "http://hl7.org/fhir/us/qicore/StructureDefinition/qicore-practitioner" ]
      },
      "identifier": [ {
        "system": "http://hl7.org/fhir/sid/us-npi",
        "value": "6822915578"
      } ],
      "name": [ {
        "family": "Evil",
        "prefix": [ "Dr" ]
      } ]
    },
    "request": {
      "method": "PUT",
      "url": "Practitioner/ae165cb5-c748-4374-899c-2a580a0f67bb"
    }
  }, {
    "fullUrl": "https://madie.cms.gov/MeasureReport/468149e1-3455-41f9-b102-9514a7f04beb",
    "resource": {
      "resourceType": "MeasureReport",
      "id": "468149e1-3455-41f9-b102-9514a7f04beb",
      "meta": {
        "profile": [ "http://hl7.org/fhir/us/cqfmeasures/StructureDefinition/test-case-cqfm" ]
      },
      "contained": [ {
        "resourceType": "Parameters",
        "id": "d05289cd-e546-45f9-ae75-65b52c98ebb6-parameters",
        "parameter": [ {
          "name": "subject",
          "valueString": "e360ffc2-5b98-425a-a2bd-b051ba5ec506"
        } ]
      } ],
      "extension": [ {
        "url": "http://hl7.org/fhir/StructureDefinition/cqf-inputParameters",
        "valueReference": {
          "reference": "#d05289cd-e546-45f9-ae75-65b52c98ebb6-parameters"
        }
      }, {
        "url": "http://hl7.org/fhir/us/cqfmeasures/StructureDefinition/cqfm-testCaseDescription",
        "valueMarkdown": "Inpatient encounter where patient started in ER prior to admission. Age 17 in ER, turned 18 at exact date as start of IP encounter, meds administered, no lab tests. Edge case. Denominator pass."
      } ],
      "modifierExtension": [ {
        "url": "http://hl7.org/fhir/us/cqfmeasures/StructureDefinition/cqfm-isTestCase",
        "valueBoolean": true
      } ],
      "status": "complete",
      "type": "individual",
      "measure": "https://madie.cms.gov/Measure/CMS816FHIRHHHypo",
      "period": {
        "start": "2026-01-01",
        "end": "2026-12-31"
      },
      "group": [ {
        "id": "Group_1",
        "population": [ {
          "id": "InitialPopulation_1",
          "code": {
            "coding": [ {
              "system": "http://terminology.hl7.org/CodeSystem/measure-population",
              "code": "initial-population",
              "display": "Initial Population"
            } ]
          },
          "count": 1
        }, {
          "id": "Denominator_1",
          "code": {
            "coding": [ {
              "system": "http://terminology.hl7.org/CodeSystem/measure-population",
              "code": "denominator",
              "display": "Denominator"
            } ]
          },
          "count": 1
        }, {
          "id": "Numerator_1",
          "code": {
            "coding": [ {
              "system": "http://terminology.hl7.org/CodeSystem/measure-population",
              "code": "numerator",
              "display": "Numerator"
            } ]
          },
          "count": 0
        } ],
        "measureScore": {
          "value": 0.0
        }
      } ],
      "evaluatedResource": [ {
        "reference": "Patient/e360ffc2-5b98-425a-a2bd-b051ba5ec506"
      }, {
        "reference": "Encounter/ee53dcf1-af58-4fcf-8a1d-b4eeda4d3fe1"
      }, {
        "reference": "Encounter/0c05d05e-ae87-4f39-9f06-55405d87eb81"
      }, {
        "reference": "MedicationAdministration/03ec823b-ab3c-4f4b-94ed-738af8574365"
      }, {
        "reference": "Coverage/a4a8b785-2128-415e-b96a-59b1f79beac1"
      }, {
        "reference": "Organization/fdc0f679-fa90-4754-908a-567199eaa291"
      }, {
        "reference": "Practitioner/ae165cb5-c748-4374-899c-2a580a0f67bb"
      } ]
    },
    "request": {
      "method": "PUT",
      "url": "MeasureReport/468149e1-3455-41f9-b102-9514a7f04beb"
    }
  } ]
}