{
  "resourceType": "Bundle",
  "id": "60f82c3098086b570510e2d8",
  "type": "transaction",
  "entry": [ {
    "fullUrl": "https://madie.cms.gov/Patient/fae00e73-06c9-4b0b-aa8f-0b6586fdd38b",
    "resource": {
      "resourceType": "Patient",
      "id": "fae00e73-06c9-4b0b-aa8f-0b6586fdd38b",
      "meta": {
        "profile": [ "http://hl7.org/fhir/us/qicore/StructureDefinition/qicore-patient" ]
      },
      "text": {
        "status": "generated",
        "div": "<div xmlns=\"http://www.w3.org/1999/xhtml\"><div class=\"hapiHeaderText\">CMP_DayOf_RelvDat_1minB4ObsStart_EDEndLT1hrB4Obs_ObsEndLT1hrB4IP <b>DENEXPASS </b></div><table class=\"hapiPropertyTable\"><tbody><tr><td>Date of birth</td><td><span>01 January 1980</span></td></tr></tbody></table></div>"
      },
      "extension": [ {
        "url": "http://hl7.org/fhir/us/core/StructureDefinition/us-core-race",
        "extension": [ {
          "url": "ombCategory",
          "valueCoding": {
            "system": "urn:oid:2.16.840.1.113883.6.238",
            "code": "2106-3",
            "display": "White",
            "userSelected": true
          }
        }, {
          "url": "text",
          "valueString": "White"
        } ]
      }, {
        "url": "http://hl7.org/fhir/us/core/StructureDefinition/us-core-ethnicity",
        "extension": [ {
          "url": "ombCategory",
          "valueCoding": {
            "system": "urn:oid:2.16.840.1.113883.6.238",
            "code": "2186-5",
            "display": "Not Hispanic or Latino",
            "userSelected": true
          }
        }, {
          "url": "text",
          "valueString": "Not Hispanic or Latino"
        } ]
      } ],
      "identifier": [ {
        "type": {
          "coding": [ {
            "system": "http://terminology.hl7.org/CodeSystem/v2-0203",
            "code": "MR"
          } ]
        },
        "system": "https://bonnie-fhir.healthit.gov/",
        "value": "60f82c3098086b570510e2d8"
      } ],
      "active": true,
      "name": [ {
        "use": "usual",
        "family": "DENEXPass",
        "given": [ "CMP_DayOf_RelvDat_1minB4ObsStart_EDEndLT1hrB4Obs_ObsEndLT1hrB4IP" ]
      } ],
      "gender": "female",
      "birthDate": "1981-01-01"
    },
    "request": {
      "method": "PUT",
      "url": "Patient/fae00e73-06c9-4b0b-aa8f-0b6586fdd38b"
    }
  }, {
    "fullUrl": "https://madie.cms.gov/Encounter/65eaf3a9-a998-47b4-a793-06bb10b3b1e4",
    "resource": {
      "resourceType": "Encounter",
      "id": "65eaf3a9-a998-47b4-a793-06bb10b3b1e4",
      "meta": {
        "profile": [ "http://hl7.org/fhir/us/qicore/StructureDefinition/qicore-encounter" ]
      },
      "status": "finished",
      "class": {
        "system": "http://terminology.hl7.org/CodeSystem/v3-ActCode",
        "code": "EMER",
        "display": "emergency"
      },
      "type": [ {
        "coding": [ {
          "system": "http://snomed.info/sct",
          "code": "4525004"
        } ]
      } ],
      "subject": {
        "reference": "Patient/fae00e73-06c9-4b0b-aa8f-0b6586fdd38b"
      },
      "period": {
        "start": "2026-11-18T07:00:00.000+00:00",
        "end": "2026-11-18T08:01:00.000+00:00"
      },
      "diagnosis": [ {
        "condition": {
          "reference": "Condition/8e18fb9d-2c2e-488b-b613-f0e22eb10403"
        },
        "use": {
          "coding": [ {
            "system": "http://terminology.hl7.org/CodeSystem/diagnosis-role",
            "code": "billing",
            "display": "Billing"
          } ]
        },
        "rank": 1
      } ]
    },
    "request": {
      "method": "PUT",
      "url": "Encounter/65eaf3a9-a998-47b4-a793-06bb10b3b1e4"
    }
  }, {
    "fullUrl": "https://madie.cms.gov/Encounter/13437ee7-2e11-4709-a75c-ac48cb563ca9",
    "resource": {
      "resourceType": "Encounter",
      "id": "13437ee7-2e11-4709-a75c-ac48cb563ca9",
      "meta": {
        "profile": [ "http://hl7.org/fhir/us/qicore/StructureDefinition/qicore-encounter" ]
      },
      "status": "finished",
      "class": {
        "system": "http://terminology.hl7.org/CodeSystem/v3-ActCode",
        "code": "OBSENC",
        "display": "observation encounter"
      },
      "type": [ {
        "coding": [ {
          "system": "http://snomed.info/sct",
          "code": "448951000124107"
        } ]
      } ],
      "subject": {
        "reference": "Patient/fae00e73-06c9-4b0b-aa8f-0b6586fdd38b"
      },
      "period": {
        "start": "2026-11-18T09:00:00.000+00:00",
        "end": "2026-11-18T10:01:00.000+00:00"
      }
    },
    "request": {
      "method": "PUT",
      "url": "Encounter/13437ee7-2e11-4709-a75c-ac48cb563ca9"
    }
  }, {
    "fullUrl": "https://madie.cms.gov/Encounter/3e54ad14-0a0e-4353-ab83-d50b7fdcab67",
    "resource": {
      "resourceType": "Encounter",
      "id": "3e54ad14-0a0e-4353-ab83-d50b7fdcab67",
      "meta": {
        "profile": [ "http://hl7.org/fhir/us/qicore/StructureDefinition/qicore-encounter" ]
      },
      "status": "finished",
      "class": {
        "system": "http://terminology.hl7.org/CodeSystem/v3-ActCode",
        "code": "IMP",
        "display": "inpatient encounter"
      },
      "type": [ {
        "coding": [ {
          "system": "http://snomed.info/sct",
          "code": "183452005"
        } ]
      } ],
      "subject": {
        "reference": "Patient/fae00e73-06c9-4b0b-aa8f-0b6586fdd38b"
      },
      "period": {
        "start": "2026-11-18T11:00:00.000+00:00",
        "end": "2026-11-20T08:15:00.000+00:00"
      },
      "reasonReference": [ {
        "reference": "Condition/8e18fb9d-2c2e-488b-b613-f0e22eb10403"
      } ]
    },
    "request": {
      "method": "PUT",
      "url": "Encounter/3e54ad14-0a0e-4353-ab83-d50b7fdcab67"
    }
  }, {
    "fullUrl": "https://madie.cms.gov/Procedure/ccc40894-859f-46a5-8c92-90560b67bdeb",
    "resource": {
      "resourceType": "Procedure",
      "id": "ccc40894-859f-46a5-8c92-90560b67bdeb",
      "meta": {
        "profile": [ "http://hl7.org/fhir/us/qicore/StructureDefinition/qicore-procedure" ]
      },
      "extension": [ {
        "url": "http://hl7.org/fhir/us/qicore/StructureDefinition/qicore-recorded",
        "valueDateTime": "2026-11-18T08:59:00.000+00:00"
      } ],
      "status": "completed",
      "code": {
        "coding": [ {
          "system": "http://snomed.info/sct",
          "code": "133918004"
        } ]
      },
      "subject": {
        "reference": "Patient/fae00e73-06c9-4b0b-aa8f-0b6586fdd38b"
      },
      "performedDateTime": "2026-11-18T08:59:00.000+00:00"
    },
    "request": {
      "method": "PUT",
      "url": "Procedure/ccc40894-859f-46a5-8c92-90560b67bdeb"
    }
  }, {
    "fullUrl": "https://madie.cms.gov/Condition/8e18fb9d-2c2e-488b-b613-f0e22eb10403",
    "resource": {
      "resourceType": "Condition",
      "id": "8e18fb9d-2c2e-488b-b613-f0e22eb10403",
      "meta": {
        "profile": [ "http://hl7.org/fhir/us/qicore/StructureDefinition/qicore-condition-encounter-diagnosis" ]
      },
      "clinicalStatus": {
        "coding": [ {
          "system": "http://terminology.hl7.org/CodeSystem/condition-clinical",
          "code": "active"
        } ]
      },
      "verificationStatus": {
        "coding": [ {
          "system": "http://terminology.hl7.org/CodeSystem/condition-ver-status",
          "code": "confirmed"
        } ]
      },
      "category": [ {
        "coding": [ {
          "system": "http://terminology.hl7.org/CodeSystem/condition-category",
          "code": "encounter-diagnosis",
          "display": "Encounter Diagnosis"
        } ]
      } ],
      "code": {
        "coding": [ {
          "system": "http://snomed.info/sct",
          "version": "2020-09",
          "code": "111297002",
          "display": "Nonparalytic stroke (disorder)",
          "userSelected": true
        } ]
      },
      "subject": {
        "reference": "Patient/fae00e73-06c9-4b0b-aa8f-0b6586fdd38b"
      },
      "encounter": {
        "reference": "Encounter/3e54ad14-0a0e-4353-ab83-d50b7fdcab67"
      },
      "recordedDate": "2026-08-13T08:00:00.000+00:00"
    },
    "request": {
      "method": "PUT",
      "url": "Condition/8e18fb9d-2c2e-488b-b613-f0e22eb10403"
    }
  }, {
    "fullUrl": "https://madie.cms.gov/claim/5ca62962b8484628b8de1ec5",
    "resource": {
      "resourceType": "Claim",
      "id": "5ca62962b8484628b8de1ec5",
      "meta": {
        "profile": [ "http://hl7.org/fhir/us/qicore/StructureDefinition/qicore-claim" ]
      },
      "status": "active",
      "type": {
        "coding": [ {
          "system": "http://terminology.hl7.org/CodeSystem/claim-type",
          "code": "institutional"
        } ]
      },
      "use": "claim",
      "patient": {
        "reference": "Patient/fae00e73-06c9-4b0b-aa8f-0b6586fdd38b"
      },
      "created": "2026-12-01",
      "provider": {
        "reference": "Practitioner/practitioner-123456"
      },
      "priority": {
        "coding": [ {
          "system": "http://terminology.hl7.org/CodeSystem/processpriority",
          "code": "normal"
        } ]
      },
      "diagnosis": [ {
        "sequence": 1,
        "diagnosisCodeableConcept": {
          "coding": [ {
            "system": "http://hl7.org/fhir/sid/icd-10-cm",
            "code": "I63.00"
          } ]
        },
        "type": [ {
          "coding": [ {
            "system": "http://terminology.hl7.org/CodeSystem/ex-diagnosistype",
            "code": "principal"
          } ]
        } ]
      } ],
      "insurance": [ {
        "sequence": 1,
        "focal": true,
        "coverage": {
          "reference": "Coverage/5fa041661c76ba66d9959367"
        }
      } ],
      "item": [ {
        "sequence": 1,
        "diagnosisSequence": [ 1 ],
        "productOrService": {
          "coding": [ {
            "system": "http://terminology.hl7.org/CodeSystem/ex-USCLS",
            "code": "99555"
          } ]
        },
        "encounter": [ {
          "reference": "Encounter/3e54ad14-0a0e-4353-ab83-d50b7fdcab67"
        } ]
      } ]
    },
    "request": {
      "method": "PUT",
      "url": "Claim/5ca62962b8484628b8de1ec5"
    }
  }, {
    "fullUrl": "https://madie.cms.gov/Coverage/4c05ca0a-0757-4477-9474-9dc605385fcf",
    "resource": {
      "resourceType": "Coverage",
      "id": "4c05ca0a-0757-4477-9474-9dc605385fcf",
      "meta": {
        "profile": [ "http://hl7.org/fhir/us/qicore/StructureDefinition/qicore-coverage" ]
      },
      "status": "active",
      "beneficiary": {
        "reference": "Patient/fae00e73-06c9-4b0b-aa8f-0b6586fdd38b"
      },
      "payor": [ {
        "reference": "Organization/58a9ec66-6133-4da2-bd8c-44f770bd4c9c"
      } ]
    },
    "request": {
      "method": "PUT",
      "url": "Coverage/4c05ca0a-0757-4477-9474-9dc605385fcf"
    }
  }, {
    "fullUrl": "https://madie.cms.gov/Organization/58a9ec66-6133-4da2-bd8c-44f770bd4c9c",
    "resource": {
      "resourceType": "Organization",
      "id": "58a9ec66-6133-4da2-bd8c-44f770bd4c9c",
      "meta": {
        "profile": [ "http://hl7.org/fhir/us/qicore/StructureDefinition/qicore-organization" ]
      },
      "identifier": [ {
        "use": "temp",
        "system": "urn:oid:2.16.840.1.113883.4.4",
        "value": "21-3259825"
      } ],
      "active": true,
      "type": [ {
        "coding": [ {
          "system": "http://terminology.hl7.org/CodeSystem/organization-type",
          "code": "pay",
          "display": "Payer"
        } ]
      } ],
      "name": "Blue Cross Blue Shield of Texas",
      "telecom": [ {
        "system": "phone",
        "value": "(+1) 972-766-6900"
      } ],
      "address": [ {
        "use": "billing",
        "type": "postal",
        "line": [ "P.O. Box 660044" ],
        "city": "Dallas",
        "state": "TX",
        "postalCode": "75266-0044",
        "country": "USA"
      } ]
    },
    "request": {
      "method": "PUT",
      "url": "Organization/58a9ec66-6133-4da2-bd8c-44f770bd4c9c"
    }
  }, {
    "fullUrl": "https://madie.cms.gov/MeasureReport/5ad2b50b-05a7-49e6-96a2-b77746b47bb3",
    "resource": {
      "resourceType": "MeasureReport",
      "id": "5ad2b50b-05a7-49e6-96a2-b77746b47bb3",
      "meta": {
        "profile": [ "http://hl7.org/fhir/us/cqfmeasures/StructureDefinition/test-case-cqfm" ]
      },
      "contained": [ {
        "resourceType": "Parameters",
        "id": "ddad6060-0b65-4a0f-9f01-85b698db50f3-parameters",
        "parameter": [ {
          "name": "subject",
          "valueString": "fae00e73-06c9-4b0b-aa8f-0b6586fdd38b"
        } ]
      } ],
      "extension": [ {
        "url": "http://hl7.org/fhir/StructureDefinition/cqf-inputParameters",
        "valueReference": {
          "reference": "#ddad6060-0b65-4a0f-9f01-85b698db50f3-parameters"
        }
      }, {
        "url": "http://hl7.org/fhir/us/cqfmeasures/StructureDefinition/cqfm-testCaseDescription",
        "valueMarkdown": "Patient receives comfort measures performed on the day of hospital arrival, 1 min before Obs start. ED ends less than 1 hour before Obs Start, Obs ends less than 1 hour before IP start.\n"
      } ],
      "modifierExtension": [ {
        "url": "http://hl7.org/fhir/us/cqfmeasures/StructureDefinition/cqfm-isTestCase",
        "valueBoolean": true
      } ],
      "status": "complete",
      "type": "individual",
      "measure": "https://madie.cms.gov/Measure/CMS72FHIRSTKAntithromboticDay2",
      "period": {
        "start": "2026-01-01",
        "end": "2026-12-31"
      },
      "group": [ {
        "id": "Group_1",
        "population": [ {
          "id": "InitialPopulation_1",
          "code": {
            "coding": [ {
              "system": "http://terminology.hl7.org/CodeSystem/measure-population",
              "code": "initial-population",
              "display": "Initial Population"
            } ]
          },
          "count": 1
        }, {
          "id": "Denominator_1",
          "code": {
            "coding": [ {
              "system": "http://terminology.hl7.org/CodeSystem/measure-population",
              "code": "denominator",
              "display": "Denominator"
            } ]
          },
          "count": 1
        }, {
          "id": "DenominatorExclusion_1",
          "code": {
            "coding": [ {
              "system": "http://terminology.hl7.org/CodeSystem/measure-population",
              "code": "denominator-exclusion",
              "display": "Denominator Exclusion"
            } ]
          },
          "count": 1
        }, {
          "id": "Numerator_1",
          "code": {
            "coding": [ {
              "system": "http://terminology.hl7.org/CodeSystem/measure-population",
              "code": "numerator",
              "display": "Numerator"
            } ]
          },
          "count": 0
        }, {
          "id": "DenominatorException_1",
          "code": {
            "coding": [ {
              "system": "http://terminology.hl7.org/CodeSystem/measure-population",
              "code": "denominator-exception",
              "display": "Denominator Exception"
            } ]
          },
          "count": 0
        } ],
        "measureScore": {
          "value": 0.0
        }
      } ],
      "evaluatedResource": [ {
        "reference": "Patient/fae00e73-06c9-4b0b-aa8f-0b6586fdd38b"
      }, {
        "reference": "Encounter/65eaf3a9-a998-47b4-a793-06bb10b3b1e4"
      }, {
        "reference": "Encounter/13437ee7-2e11-4709-a75c-ac48cb563ca9"
      }, {
        "reference": "Encounter/3e54ad14-0a0e-4353-ab83-d50b7fdcab67"
      }, {
        "reference": "Procedure/ccc40894-859f-46a5-8c92-90560b67bdeb"
      }, {
        "reference": "Condition/8e18fb9d-2c2e-488b-b613-f0e22eb10403"
      }, {
        "reference": "Claim/5ca62962b8484628b8de1ec5"
      }, {
        "reference": "Coverage/4c05ca0a-0757-4477-9474-9dc605385fcf"
      }, {
        "reference": "Organization/58a9ec66-6133-4da2-bd8c-44f770bd4c9c"
      } ]
    },
    "request": {
      "method": "PUT",
      "url": "MeasureReport/5ad2b50b-05a7-49e6-96a2-b77746b47bb3"
    }
  } ]
}