{
  "resourceType": "Bundle",
  "id": "6129132802c62a011f2e60af",
  "type": "transaction",
  "entry": [ {
    "fullUrl": "https://madie.cms.gov/Patient/3f089430-0edb-485d-9844-b2c58fb715e2",
    "resource": {
      "resourceType": "Patient",
      "id": "3f089430-0edb-485d-9844-b2c58fb715e2",
      "meta": {
        "profile": [ "http://hl7.org/fhir/us/qicore/StructureDefinition/qicore-patient" ]
      },
      "text": {
        "status": "generated",
        "div": "<div xmlns=\"http://www.w3.org/1999/xhtml\"><div class=\"hapiHeaderText\">AntithromboticAfterEncIP <b>NUMERFAIL </b></div><table class=\"hapiPropertyTable\"><tbody><tr><td>Identifier</td><td>a66bbe60a93110b35e0f0654679e827a</td></tr><tr><td>Date of birth</td><td><span>26 August 1990</span></td></tr></tbody></table></div>"
      },
      "extension": [ {
        "url": "http://hl7.org/fhir/us/core/StructureDefinition/us-core-race",
        "extension": [ {
          "url": "ombCategory",
          "valueCoding": {
            "system": "urn:oid:2.16.840.1.113883.6.238",
            "code": "1002-5",
            "display": "American Indian or Alaska Native",
            "userSelected": true
          }
        }, {
          "url": "text",
          "valueString": "American Indian or Alaska Native"
        } ]
      }, {
        "url": "http://hl7.org/fhir/us/core/StructureDefinition/us-core-ethnicity",
        "extension": [ {
          "url": "ombCategory",
          "valueCoding": {
            "system": "urn:oid:2.16.840.1.113883.6.238",
            "code": "2135-2",
            "display": "Hispanic or Latino",
            "userSelected": true
          }
        }, {
          "url": "text",
          "valueString": "Hispanic or Latino"
        } ]
      } ],
      "identifier": [ {
        "type": {
          "coding": [ {
            "system": "http://terminology.hl7.org/CodeSystem/v2-0203",
            "code": "MR"
          } ]
        },
        "system": "https://bonnie-fhir.healthit.gov/",
        "value": "6129132802c62a011f2e60af"
      } ],
      "active": true,
      "name": [ {
        "use": "usual",
        "family": "NUMERFail",
        "given": [ "AntithromboticAfterEncIP" ]
      } ],
      "gender": "male",
      "birthDate": "2000-08-26"
    },
    "request": {
      "method": "PUT",
      "url": "Patient/3f089430-0edb-485d-9844-b2c58fb715e2"
    }
  }, {
    "fullUrl": "https://madie.cms.gov/Encounter/86f1250d-4db6-4386-869f-c5fbc101315e",
    "resource": {
      "resourceType": "Encounter",
      "id": "86f1250d-4db6-4386-869f-c5fbc101315e",
      "meta": {
        "profile": [ "http://hl7.org/fhir/us/qicore/StructureDefinition/qicore-encounter" ]
      },
      "status": "finished",
      "class": {
        "system": "http://terminology.hl7.org/CodeSystem/v3-ActCode",
        "code": "IMP",
        "display": "inpatient encounter",
        "userSelected": true
      },
      "type": [ {
        "coding": [ {
          "system": "http://snomed.info/sct",
          "code": "32485007"
        } ]
      } ],
      "subject": {
        "reference": "Patient/3f089430-0edb-485d-9844-b2c58fb715e2"
      },
      "period": {
        "start": "2026-09-03T09:30:00.000+00:00",
        "end": "2026-12-31T10:30:00.000+00:00"
      },
      "length": {
        "value": 119,
        "unit": "days"
      },
      "diagnosis": [ {
        "condition": {
          "reference": "Condition/814731e0-6006-4ccc-911f-dd21e9b5fdda"
        },
        "use": {
          "coding": [ {
            "system": "http://terminology.hl7.org/CodeSystem/diagnosis-role",
            "code": "billing",
            "display": "Billing"
          } ]
        },
        "rank": 1
      } ]
    },
    "request": {
      "method": "PUT",
      "url": "Encounter/86f1250d-4db6-4386-869f-c5fbc101315e"
    }
  }, {
    "fullUrl": "https://madie.cms.gov/MedicationRequest/96c5c761-8183-4876-ac9d-7f3dd16e0b1d",
    "resource": {
      "resourceType": "MedicationRequest",
      "id": "96c5c761-8183-4876-ac9d-7f3dd16e0b1d",
      "meta": {
        "profile": [ "http://hl7.org/fhir/us/qicore/StructureDefinition/qicore-medicationrequest" ]
      },
      "status": "active",
      "intent": "order",
      "category": [ {
        "coding": [ {
          "system": "http://terminology.hl7.org/CodeSystem/medicationrequest-category",
          "code": "discharge",
          "display": "Discharge",
          "userSelected": true
        } ]
      } ],
      "medicationCodeableConcept": {
        "coding": [ {
          "system": "http://www.nlm.nih.gov/research/umls/rxnorm",
          "code": "198466"
        } ]
      },
      "subject": {
        "reference": "Patient/3f089430-0edb-485d-9844-b2c58fb715e2"
      },
      "authoredOn": "2026-12-31T10:31:00.000+00:00",
      "requester": {
        "reference": "Practitioner/example"
      }
    },
    "request": {
      "method": "PUT",
      "url": "MedicationRequest/96c5c761-8183-4876-ac9d-7f3dd16e0b1d"
    }
  }, {
    "fullUrl": "https://madie.cms.gov/Condition/814731e0-6006-4ccc-911f-dd21e9b5fdda",
    "resource": {
      "resourceType": "Condition",
      "id": "814731e0-6006-4ccc-911f-dd21e9b5fdda",
      "meta": {
        "profile": [ "http://hl7.org/fhir/us/qicore/StructureDefinition/qicore-condition" ]
      },
      "clinicalStatus": {
        "coding": [ {
          "system": "http://terminology.hl7.org/CodeSystem/condition-clinical",
          "code": "active"
        } ]
      },
      "verificationStatus": {
        "coding": [ {
          "system": "http://terminology.hl7.org/CodeSystem/condition-ver-status",
          "code": "confirmed"
        } ]
      },
      "category": [ {
        "coding": [ {
          "system": "http://terminology.hl7.org/CodeSystem/condition-category",
          "code": "encounter-diagnosis",
          "display": "Encounter Diagnosis"
        } ]
      } ],
      "code": {
        "coding": [ {
          "system": "http://snomed.info/sct",
          "version": "2020-09",
          "code": "111297002",
          "display": "Nonparalytic stroke (disorder)",
          "userSelected": true
        } ]
      },
      "subject": {
        "reference": "Patient/3f089430-0edb-485d-9844-b2c58fb715e2"
      },
      "recordedDate": "2026-07-15T08:00:00.000+00:00"
    },
    "request": {
      "method": "PUT",
      "url": "Condition/814731e0-6006-4ccc-911f-dd21e9b5fdda"
    }
  }, {
    "fullUrl": "https://madie.cms.gov/claim/5ca62962b8484628b8de1ec5",
    "resource": {
      "resourceType": "Claim",
      "id": "5ca62962b8484628b8de1ec5",
      "meta": {
        "profile": [ "http://hl7.org/fhir/us/qicore/StructureDefinition/qicore-claim" ]
      },
      "status": "active",
      "type": {
        "coding": [ {
          "system": "http://terminology.hl7.org/CodeSystem/claim-type",
          "code": "institutional"
        } ]
      },
      "use": "claim",
      "patient": {
        "reference": "Patient/d170a0a8-b5ad-4303-b6df-e304dd5f92ad"
      },
      "created": "2026-12-01",
      "provider": {
        "reference": "Practitioner/practitioner-123456"
      },
      "priority": {
        "coding": [ {
          "system": "http://terminology.hl7.org/CodeSystem/processpriority",
          "code": "normal"
        } ]
      },
      "diagnosis": [ {
        "sequence": 1,
        "diagnosisCodeableConcept": {
          "coding": [ {
            "system": "http://hl7.org/fhir/sid/icd-10-cm",
            "code": "I63.00"
          } ]
        },
        "type": [ {
          "coding": [ {
            "system": "http://terminology.hl7.org/CodeSystem/ex-diagnosistype",
            "code": "principal"
          } ]
        } ]
      } ],
      "insurance": [ {
        "sequence": 1,
        "focal": true,
        "coverage": {
          "reference": "Coverage/5fa041661c76ba66d9959367"
        }
      } ],
      "item": [ {
        "sequence": 1,
        "diagnosisSequence": [ 1 ],
        "productOrService": {
          "coding": [ {
            "system": "http://terminology.hl7.org/CodeSystem/ex-USCLS",
            "code": "99555"
          } ]
        },
        "encounter": [ {
          "reference": "Encounter/86f1250d-4db6-4386-869f-c5fbc101315e"
        } ]
      } ]
    },
    "request": {
      "method": "PUT",
      "url": "Claim/5ca62962b8484628b8de1ec5"
    }
  }, {
    "fullUrl": "https://madie.cms.gov/Coverage/9134b019-6c04-4d11-8b6f-a870d6302eb2",
    "resource": {
      "resourceType": "Coverage",
      "id": "9134b019-6c04-4d11-8b6f-a870d6302eb2",
      "meta": {
        "profile": [ "http://hl7.org/fhir/us/qicore/StructureDefinition/qicore-coverage" ]
      },
      "status": "active",
      "beneficiary": {
        "reference": "Patient/3f089430-0edb-485d-9844-b2c58fb715e2"
      },
      "payor": [ {
        "reference": "Organization/5ca6f3f1-7f10-4fcc-9ece-0d48234c4f51"
      } ]
    },
    "request": {
      "method": "PUT",
      "url": "Coverage/9134b019-6c04-4d11-8b6f-a870d6302eb2"
    }
  }, {
    "fullUrl": "https://madie.cms.gov/Organization/5ca6f3f1-7f10-4fcc-9ece-0d48234c4f51",
    "resource": {
      "resourceType": "Organization",
      "id": "5ca6f3f1-7f10-4fcc-9ece-0d48234c4f51",
      "meta": {
        "profile": [ "http://hl7.org/fhir/us/qicore/StructureDefinition/qicore-organization" ]
      },
      "identifier": [ {
        "use": "temp",
        "system": "urn:oid:2.16.840.1.113883.4.4",
        "value": "21-3259825"
      } ],
      "active": true,
      "type": [ {
        "coding": [ {
          "system": "http://terminology.hl7.org/CodeSystem/organization-type",
          "code": "pay",
          "display": "Payer"
        } ]
      } ],
      "name": "Blue Cross Blue Shield of Texas",
      "telecom": [ {
        "system": "phone",
        "value": "(+1) 972-766-6900"
      } ],
      "address": [ {
        "use": "billing",
        "type": "postal",
        "line": [ "P.O. Box 660044" ],
        "city": "Dallas",
        "state": "TX",
        "postalCode": "75266-0044",
        "country": "USA"
      } ]
    },
    "request": {
      "method": "PUT",
      "url": "Organization/5ca6f3f1-7f10-4fcc-9ece-0d48234c4f51"
    }
  }, {
    "fullUrl": "https://madie.cms.gov/MeasureReport/9bbd3008-3ee7-4f7b-b3bb-b40a47d81107",
    "resource": {
      "resourceType": "MeasureReport",
      "id": "9bbd3008-3ee7-4f7b-b3bb-b40a47d81107",
      "meta": {
        "profile": [ "http://hl7.org/fhir/us/cqfmeasures/StructureDefinition/test-case-cqfm" ]
      },
      "contained": [ {
        "resourceType": "Parameters",
        "id": "c3e745f1-9adb-4d2a-a681-a92006aea93a-parameters",
        "parameter": [ {
          "name": "subject",
          "valueString": "3f089430-0edb-485d-9844-b2c58fb715e2"
        } ]
      } ],
      "extension": [ {
        "url": "http://hl7.org/fhir/StructureDefinition/cqf-inputParameters",
        "valueReference": {
          "reference": "#c3e745f1-9adb-4d2a-a681-a92006aea93a-parameters"
        }
      }, {
        "url": "http://hl7.org/fhir/us/cqfmeasures/StructureDefinition/cqfm-testCaseDescription",
        "valueMarkdown": "Patient is 18 with Non-Elective Inpatient Encounter (LOS 120 days) with principal diagnosis of ischemic stroke ends during MP received antithrombotic 1 minute after encounter\n"
      } ],
      "modifierExtension": [ {
        "url": "http://hl7.org/fhir/us/cqfmeasures/StructureDefinition/cqfm-isTestCase",
        "valueBoolean": true
      } ],
      "status": "complete",
      "type": "individual",
      "measure": "https://madie.cms.gov/Measure/CMS104FHIRSTKDCAntithrombotic",
      "period": {
        "start": "2026-01-01",
        "end": "2026-12-31"
      },
      "group": [ {
        "id": "Group_1",
        "population": [ {
          "id": "InitialPopulation_1",
          "code": {
            "coding": [ {
              "system": "http://terminology.hl7.org/CodeSystem/measure-population",
              "code": "initial-population",
              "display": "Initial Population"
            } ]
          },
          "count": 1
        }, {
          "id": "Denominator_1",
          "code": {
            "coding": [ {
              "system": "http://terminology.hl7.org/CodeSystem/measure-population",
              "code": "denominator",
              "display": "Denominator"
            } ]
          },
          "count": 1
        }, {
          "id": "DenominatorExclusion_1",
          "code": {
            "coding": [ {
              "system": "http://terminology.hl7.org/CodeSystem/measure-population",
              "code": "denominator-exclusion",
              "display": "Denominator Exclusion"
            } ]
          },
          "count": 0
        }, {
          "id": "Numerator_1",
          "code": {
            "coding": [ {
              "system": "http://terminology.hl7.org/CodeSystem/measure-population",
              "code": "numerator",
              "display": "Numerator"
            } ]
          },
          "count": 0
        }, {
          "id": "DenominatorException_1",
          "code": {
            "coding": [ {
              "system": "http://terminology.hl7.org/CodeSystem/measure-population",
              "code": "denominator-exception",
              "display": "Denominator Exception"
            } ]
          },
          "count": 0
        } ],
        "measureScore": {
          "value": 0.0
        }
      } ],
      "evaluatedResource": [ {
        "reference": "Patient/3f089430-0edb-485d-9844-b2c58fb715e2"
      }, {
        "reference": "Encounter/86f1250d-4db6-4386-869f-c5fbc101315e"
      }, {
        "reference": "MedicationRequest/96c5c761-8183-4876-ac9d-7f3dd16e0b1d"
      }, {
        "reference": "Condition/814731e0-6006-4ccc-911f-dd21e9b5fdda"
      }, {
        "reference": "Claim/5ca62962b8484628b8de1ec5"
      }, {
        "reference": "Coverage/9134b019-6c04-4d11-8b6f-a870d6302eb2"
      }, {
        "reference": "Organization/5ca6f3f1-7f10-4fcc-9ece-0d48234c4f51"
      } ]
    },
    "request": {
      "method": "PUT",
      "url": "MeasureReport/9bbd3008-3ee7-4f7b-b3bb-b40a47d81107"
    }
  } ]
}