{
  "resourceType": "Bundle",
  "id": "6109658e98086b538055b9e2",
  "type": "collection",
  "entry": [ {
    "fullUrl": "https://madie.cms.gov/Patient/2cca67ad-d05c-4bd2-aa74-d5ba553b9afc",
    "resource": {
      "resourceType": "Patient",
      "id": "2cca67ad-d05c-4bd2-aa74-d5ba553b9afc",
      "meta": {
        "profile": [ "http://hl7.org/fhir/us/qicore/StructureDefinition/qicore-patient" ]
      },
      "extension": [ {
        "url": "http://hl7.org/fhir/us/core/StructureDefinition/us-core-race",
        "extension": [ {
          "url": "ombCategory",
          "valueCoding": {
            "system": "urn:oid:2.16.840.1.113883.6.238",
            "code": "2054-5",
            "display": "Black or African American",
            "userSelected": true
          }
        }, {
          "url": "text",
          "valueString": "Black or African American"
        } ]
      }, {
        "url": "http://hl7.org/fhir/us/core/StructureDefinition/us-core-ethnicity",
        "extension": [ {
          "url": "ombCategory",
          "valueCoding": {
            "system": "urn:oid:2.16.840.1.113883.6.238",
            "code": "2186-5",
            "display": "Not Hispanic or Latino",
            "userSelected": true
          }
        }, {
          "url": "text",
          "valueString": "Not Hispanic or Latino"
        } ]
      } ],
      "identifier": [ {
        "type": {
          "coding": [ {
            "system": "http://terminology.hl7.org/CodeSystem/v2-0203",
            "code": "MR"
          } ]
        },
        "system": "https://GoodHealthCare.com/",
        "value": "6109658e98086b538055b9e2"
      } ],
      "active": true,
      "name": [ {
        "use": "usual",
        "family": "NUMERFail",
        "given": [ "OpticDiscExamAfterEnc" ]
      } ],
      "gender": "female",
      "birthDate": "1971-07-12"
    }
  }, {
    "fullUrl": "https://madie.cms.gov/Condition/bfab8123-341c-43a1-bed2-4f7ed356d0cf",
    "resource": {
      "resourceType": "Condition",
      "id": "bfab8123-341c-43a1-bed2-4f7ed356d0cf",
      "meta": {
        "profile": [ "http://hl7.org/fhir/us/qicore/StructureDefinition/qicore-condition-problems-health-concerns" ]
      },
      "clinicalStatus": {
        "coding": [ {
          "system": "http://terminology.hl7.org/CodeSystem/condition-clinical",
          "code": "active",
          "display": "active",
          "userSelected": true
        } ]
      },
      "category": [ {
        "coding": [ {
          "system": "http://terminology.hl7.org/CodeSystem/condition-category",
          "code": "problem-list-item",
          "display": "Problem List Item",
          "userSelected": true
        } ]
      } ],
      "code": {
        "coding": [ {
          "system": "http://snomed.info/sct",
          "version": "http://snomed.info/sct/731000124108/version/20250301",
          "code": "1306287007",
          "display": "Primary open angle glaucoma of left eye (disorder)"
        } ]
      },
      "subject": {
        "reference": "Patient/2cca67ad-d05c-4bd2-aa74-d5ba553b9afc"
      },
      "onsetDateTime": "2023-07-27T10:30:00.000+00:00"
    }
  }, {
    "fullUrl": "https://madie.cms.gov/Observation/7333e3f5-4c40-4c43-93de-58783126e0c2",
    "resource": {
      "resourceType": "Observation",
      "id": "7333e3f5-4c40-4c43-93de-58783126e0c2",
      "meta": {
        "profile": [ "http://hl7.org/fhir/us/qicore/StructureDefinition/qicore-observation-clinical-result" ]
      },
      "status": "final",
      "category": [ {
        "coding": [ {
          "system": "http://terminology.hl7.org/CodeSystem/observation-category",
          "code": "laboratory",
          "display": "laboratory",
          "userSelected": true
        } ]
      }, {
        "coding": [ {
          "system": "http://terminology.hl7.org/CodeSystem/observation-category",
          "code": "survey"
        } ]
      } ],
      "code": {
        "coding": [ {
          "system": "http://loinc.org",
          "code": "71484-0"
        } ]
      },
      "subject": {
        "reference": "Patient/2cca67ad-d05c-4bd2-aa74-d5ba553b9afc"
      },
      "effectivePeriod": {
        "start": "2026-06-01T09:10:00.000+00:00",
        "end": "2026-06-01T09:20:00.000+00:00"
      },
      "valueQuantity": {
        "value": 0.7
      }
    }
  }, {
    "fullUrl": "https://madie.cms.gov/Observation/07d8c6ef-472e-4729-8635-022b1156b2e4",
    "resource": {
      "resourceType": "Observation",
      "id": "07d8c6ef-472e-4729-8635-022b1156b2e4",
      "meta": {
        "profile": [ "http://hl7.org/fhir/us/qicore/StructureDefinition/qicore-observation-clinical-result" ]
      },
      "status": "final",
      "category": [ {
        "coding": [ {
          "system": "http://terminology.hl7.org/CodeSystem/observation-category",
          "code": "laboratory",
          "display": "laboratory",
          "userSelected": true
        } ]
      }, {
        "coding": [ {
          "system": "http://terminology.hl7.org/CodeSystem/observation-category",
          "code": "survey"
        } ]
      } ],
      "code": {
        "coding": [ {
          "system": "http://loinc.org",
          "version": "2.73",
          "code": "71486-5"
        } ]
      },
      "subject": {
        "reference": "Patient/2cca67ad-d05c-4bd2-aa74-d5ba553b9afc"
      },
      "effectivePeriod": {
        "start": "2026-07-09T12:40:00.000+00:00",
        "end": "2026-07-09T13:40:00.000+00:00"
      },
      "valueCodeableConcept": {
        "coding": [ {
          "system": "http://loinc.org",
          "code": "71486-5",
          "display": "Left eye Optic disc or retinal nerve fiber layer structural abnormalities by Ophthalmoscopy"
        } ]
      }
    }
  }, {
    "fullUrl": "https://madie.cms.gov/Encounter/efc2ea16-e724-4e44-b7fa-c0036aecefd5",
    "resource": {
      "resourceType": "Encounter",
      "id": "efc2ea16-e724-4e44-b7fa-c0036aecefd5",
      "meta": {
        "profile": [ "http://hl7.org/fhir/us/qicore/StructureDefinition/qicore-encounter" ]
      },
      "status": "finished",
      "class": {
        "system": "http://terminology.hl7.org/CodeSystem/v3-ActCode",
        "code": "AMB",
        "display": "ambulatory",
        "userSelected": true
      },
      "type": [ {
        "coding": [ {
          "system": "http://snomed.info/sct",
          "version": "http://snomed.info/sct/731000124108/version/20230301",
          "code": "66902005",
          "display": "Ophthalmic examination and evaluation, follow-up (procedure)"
        } ]
      } ],
      "subject": {
        "reference": "Patient/2cca67ad-d05c-4bd2-aa74-d5ba553b9afc"
      },
      "period": {
        "start": "2026-06-01T09:00:00.000+00:00",
        "end": "2026-06-01T09:45:00.000+00:00"
      },
      "length": {
        "value": 0,
        "unit": "days"
      }
    }
  }, {
    "fullUrl": "https://madie.cms.gov/Coverage/2ca11bfb-8444-4788-a847-9b13513cb736",
    "resource": {
      "resourceType": "Coverage",
      "id": "2ca11bfb-8444-4788-a847-9b13513cb736",
      "meta": {
        "profile": [ "http://hl7.org/fhir/us/qicore/StructureDefinition/qicore-coverage" ]
      },
      "identifier": [ {
        "system": "http://benefitsinc.com/certificate",
        "value": "12345"
      } ],
      "status": "active",
      "type": {
        "coding": [ {
          "system": "https://nahdo.org/sopt",
          "version": "9.2",
          "code": "59",
          "display": "Other Private Insurance"
        } ]
      },
      "subscriberId": "123456",
      "beneficiary": {
        "reference": "Patient/2cca67ad-d05c-4bd2-aa74-d5ba553b9afc"
      },
      "dependent": "0",
      "relationship": {
        "coding": [ {
          "system": "http://terminology.hl7.org/CodeSystem/subscriber-relationship",
          "code": "self"
        } ]
      },
      "period": {
        "start": "2017-05-23",
        "end": "2027-05-23"
      },
      "payor": [ {
        "reference": "Organization/3568d4c8-920c-4a47-b040-72c2491293f1"
      } ],
      "order": 9
    }
  }, {
    "fullUrl": "https://madie.cms.gov/Organization/3568d4c8-920c-4a47-b040-72c2491293f1",
    "resource": {
      "resourceType": "Organization",
      "id": "3568d4c8-920c-4a47-b040-72c2491293f1",
      "meta": {
        "profile": [ "http://hl7.org/fhir/us/qicore/StructureDefinition/qicore-organization" ]
      },
      "identifier": [ {
        "use": "temp",
        "system": "http://terminology.hl7.org/NamingSystem/USEIN",
        "value": "48915164351354"
      } ],
      "active": true,
      "type": [ {
        "coding": [ {
          "system": "http://terminology.hl7.org/CodeSystem/organization-type",
          "code": "team",
          "display": "Organizational team"
        } ]
      } ],
      "name": "Good Healthcare, LLC",
      "telecom": [ {
        "system": "phone",
        "value": "(+1) 901-683-7777"
      }, {
        "system": "fax",
        "value": "(+1) 901-683-6622"
      }, {
        "system": "email",
        "value": "BetterYourHealth@GoodHealthcare.com"
      } ],
      "address": [ {
        "line": [ "3651 Wentrow Blvd, Suite 227" ],
        "city": "Germantown",
        "state": "TN",
        "postalCode": "38138",
        "country": "USA"
      } ]
    }
  }, {
    "fullUrl": "https://madie.cms.gov/MeasureReport/0f5d85e2-8b46-4d1f-a9da-83f70dd6ce16",
    "resource": {
      "resourceType": "MeasureReport",
      "id": "0f5d85e2-8b46-4d1f-a9da-83f70dd6ce16",
      "meta": {
        "profile": [ "http://hl7.org/fhir/us/cqfmeasures/StructureDefinition/test-case-cqfm" ]
      },
      "contained": [ {
        "resourceType": "Parameters",
        "id": "9f9b5fe1-11cc-44b4-86d2-407bd42449f0-parameters",
        "parameter": [ {
          "name": "subject",
          "valueString": "2cca67ad-d05c-4bd2-aa74-d5ba553b9afc"
        } ]
      } ],
      "extension": [ {
        "url": "http://hl7.org/fhir/StructureDefinition/cqf-inputParameters",
        "valueReference": {
          "reference": "#9f9b5fe1-11cc-44b4-86d2-407bd42449f0-parameters"
        }
      }, {
        "url": "http://hl7.org/fhir/us/cqfmeasures/StructureDefinition/cqfm-testCaseDescription",
        "valueMarkdown": "Patient with POAG dx, Ophthalmological Vist and with Cup to Disc Ratio and Optic Disc exam and Optic Disc exam performed outside of Encounter period."
      } ],
      "modifierExtension": [ {
        "url": "http://hl7.org/fhir/us/cqfmeasures/StructureDefinition/cqfm-isTestCase",
        "valueBoolean": true
      } ],
      "status": "complete",
      "type": "individual",
      "measure": "https://madie.cms.gov/Measure/CMS143FHIRPOAGOpticNerveEval",
      "period": {
        "start": "2026-01-01",
        "end": "2026-12-31"
      },
      "group": [ {
        "id": "Group_1",
        "population": [ {
          "id": "InitialPopulation_1",
          "code": {
            "coding": [ {
              "system": "http://terminology.hl7.org/CodeSystem/measure-population",
              "code": "initial-population",
              "display": "Initial Population"
            } ]
          },
          "count": 1
        }, {
          "id": "Denominator_1",
          "code": {
            "coding": [ {
              "system": "http://terminology.hl7.org/CodeSystem/measure-population",
              "code": "denominator",
              "display": "Denominator"
            } ]
          },
          "count": 1
        }, {
          "id": "Numerator_1",
          "code": {
            "coding": [ {
              "system": "http://terminology.hl7.org/CodeSystem/measure-population",
              "code": "numerator",
              "display": "Numerator"
            } ]
          },
          "count": 0
        }, {
          "id": "DenominatorException_1",
          "code": {
            "coding": [ {
              "system": "http://terminology.hl7.org/CodeSystem/measure-population",
              "code": "denominator-exception",
              "display": "Denominator Exception"
            } ]
          },
          "count": 0
        } ],
        "measureScore": {
          "value": 1.0
        }
      } ],
      "evaluatedResource": [ {
        "reference": "Patient/2cca67ad-d05c-4bd2-aa74-d5ba553b9afc"
      }, {
        "reference": "Condition/bfab8123-341c-43a1-bed2-4f7ed356d0cf"
      }, {
        "reference": "Observation/7333e3f5-4c40-4c43-93de-58783126e0c2"
      }, {
        "reference": "Observation/07d8c6ef-472e-4729-8635-022b1156b2e4"
      }, {
        "reference": "Encounter/efc2ea16-e724-4e44-b7fa-c0036aecefd5"
      }, {
        "reference": "Coverage/2ca11bfb-8444-4788-a847-9b13513cb736"
      }, {
        "reference": "Organization/3568d4c8-920c-4a47-b040-72c2491293f1"
      } ]
    }
  } ]
}