{
  "resourceType": "Bundle",
  "id": "641372004b11b147841ab8d1",
  "type": "transaction",
  "entry": [ {
    "fullUrl": "https://madie.cms.gov/Patient/61c9b47c-2223-4e45-b83b-eee21f031cad",
    "resource": {
      "resourceType": "Patient",
      "id": "61c9b47c-2223-4e45-b83b-eee21f031cad",
      "meta": {
        "profile": [ "http://hl7.org/fhir/us/qicore/StructureDefinition/qicore-patient" ]
      },
      "extension": [ {
        "url": "http://hl7.org/fhir/us/core/StructureDefinition/us-core-race",
        "extension": [ {
          "url": "ombCategory",
          "valueCoding": {
            "system": "urn:oid:2.16.840.1.113883.6.238",
            "code": "2106-3",
            "display": "White",
            "userSelected": true
          }
        }, {
          "url": "text",
          "valueString": "White"
        } ]
      }, {
        "url": "http://hl7.org/fhir/us/core/StructureDefinition/us-core-ethnicity",
        "extension": [ {
          "url": "ombCategory",
          "valueCoding": {
            "system": "urn:oid:2.16.840.1.113883.6.238",
            "code": "2135-2",
            "display": "Hispanic or Latino",
            "userSelected": true
          }
        }, {
          "url": "text",
          "valueString": "Hispanic or Latino"
        } ]
      } ],
      "identifier": [ {
        "type": {
          "coding": [ {
            "system": "http://terminology.hl7.org/CodeSystem/v2-0203",
            "code": "MR"
          } ]
        },
        "system": "https://bonnie-fhir.healthit.gov/",
        "value": "641372004b11b147841ab8d1"
      } ],
      "name": [ {
        "family": "DENEXPass",
        "given": [ "PerformHospCareMinDataSet" ]
      } ],
      "gender": "male",
      "birthDate": "1955-10-21"
    },
    "request": {
      "method": "PUT",
      "url": "Patient/61c9b47c-2223-4e45-b83b-eee21f031cad"
    }
  }, {
    "fullUrl": "https://madie.cms.gov/Condition/a180887d-b9c3-42af-9286-27151e634300",
    "resource": {
      "resourceType": "Condition",
      "id": "a180887d-b9c3-42af-9286-27151e634300",
      "meta": {
        "profile": [ "http://hl7.org/fhir/us/qicore/StructureDefinition/qicore-condition-problems-health-concerns" ]
      },
      "clinicalStatus": {
        "coding": [ {
          "system": "http://terminology.hl7.org/CodeSystem/condition-clinical",
          "code": "active",
          "display": "active",
          "userSelected": true
        } ]
      },
      "category": [ {
        "coding": [ {
          "system": "http://terminology.hl7.org/CodeSystem/condition-category",
          "code": "problem-list-item",
          "display": "Problem List Item",
          "userSelected": true
        } ]
      } ],
      "code": {
        "coding": [ {
          "system": "http://snomed.info/sct",
          "version": "2021-09",
          "code": "102781000119107",
          "display": "Sensory neuropathy due to type 1 diabetes mellitus (disorder)",
          "userSelected": true
        } ]
      },
      "subject": {
        "reference": "Patient/61c9b47c-2223-4e45-b83b-eee21f031cad"
      },
      "onsetDateTime": "2025-02-03T08:00:00.000+00:00"
    },
    "request": {
      "method": "PUT",
      "url": "Condition/a180887d-b9c3-42af-9286-27151e634300"
    }
  }, {
    "fullUrl": "https://madie.cms.gov/Encounter/2d56ccf7-a9cb-4c9f-824b-351b8fa2eb54",
    "resource": {
      "resourceType": "Encounter",
      "id": "2d56ccf7-a9cb-4c9f-824b-351b8fa2eb54",
      "meta": {
        "profile": [ "http://hl7.org/fhir/us/qicore/StructureDefinition/qicore-encounter" ]
      },
      "status": "finished",
      "class": {
        "system": "http://terminology.hl7.org/CodeSystem/v3-ActCode",
        "code": "AMB",
        "display": "ambulatory",
        "userSelected": true
      },
      "type": [ {
        "coding": [ {
          "system": "http://snomed.info/sct",
          "version": "2021-09",
          "code": "185463005",
          "display": "Visit out of hours (procedure)",
          "userSelected": true
        } ]
      } ],
      "subject": {
        "reference": "Patient/61c9b47c-2223-4e45-b83b-eee21f031cad"
      },
      "period": {
        "start": "2026-03-01T08:00:00.000+00:00",
        "end": "2026-03-01T08:15:00.000+00:00"
      }
    },
    "request": {
      "method": "PUT",
      "url": "Encounter/2d56ccf7-a9cb-4c9f-824b-351b8fa2eb54"
    }
  }, {
    "fullUrl": "https://madie.cms.gov/Observation/57c94cd0-f143-467d-b978-9ef1ee086910",
    "resource": {
      "resourceType": "Observation",
      "id": "57c94cd0-f143-467d-b978-9ef1ee086910",
      "meta": {
        "profile": [ "http://hl7.org/fhir/us/qicore/StructureDefinition/qicore-observation-lab" ]
      },
      "status": "final",
      "category": [ {
        "coding": [ {
          "system": "http://terminology.hl7.org/CodeSystem/observation-category",
          "code": "laboratory",
          "display": "Laboratory",
          "userSelected": true
        } ]
      } ],
      "code": {
        "coding": [ {
          "system": "http://loinc.org",
          "version": "2.71",
          "code": "48642-3",
          "display": "Glomerular filtration rate [Volume Rate/Area] in Serum, Plasma or Blood by Creatinine-based formula (MDRD)/1.73 sq M among non black population",
          "userSelected": true
        } ]
      },
      "subject": {
        "reference": "Patient/61c9b47c-2223-4e45-b83b-eee21f031cad"
      },
      "issued": "2026-03-01T08:00:00.000+00:00",
      "valueBoolean": true
    },
    "request": {
      "method": "PUT",
      "url": "Observation/57c94cd0-f143-467d-b978-9ef1ee086910"
    }
  }, {
    "fullUrl": "https://madie.cms.gov/Observation/199b7235-8a7d-4415-94a6-53e2eba82c4e",
    "resource": {
      "resourceType": "Observation",
      "id": "199b7235-8a7d-4415-94a6-53e2eba82c4e",
      "meta": {
        "profile": [ "http://hl7.org/fhir/us/qicore/StructureDefinition/qicore-observation-lab" ]
      },
      "status": "final",
      "category": [ {
        "coding": [ {
          "system": "http://terminology.hl7.org/CodeSystem/observation-category",
          "code": "laboratory",
          "display": "Laboratory",
          "userSelected": true
        } ]
      } ],
      "code": {
        "coding": [ {
          "system": "http://loinc.org",
          "version": "2.71",
          "code": "13705-9",
          "display": "Albumin/Creatinine [Mass Ratio] in 24 hour Urine",
          "userSelected": true
        } ]
      },
      "subject": {
        "reference": "Patient/61c9b47c-2223-4e45-b83b-eee21f031cad"
      },
      "issued": "2026-03-01T08:00:00.000+00:00",
      "valueBoolean": true
    },
    "request": {
      "method": "PUT",
      "url": "Observation/199b7235-8a7d-4415-94a6-53e2eba82c4e"
    }
  }, {
    "fullUrl": "https://madie.cms.gov/Observation/70c5e854-1be3-4ce1-ae6a-298fa5010edd",
    "resource": {
      "resourceType": "Observation",
      "id": "70c5e854-1be3-4ce1-ae6a-298fa5010edd",
      "meta": {
        "profile": [ "http://hl7.org/fhir/us/qicore/StructureDefinition/qicore-observation-screening-assessment" ]
      },
      "status": "final",
      "category": [ {
        "coding": [ {
          "system": "http://terminology.hl7.org/CodeSystem/observation-category",
          "code": "survey",
          "display": "survey",
          "userSelected": true
        } ]
      } ],
      "code": {
        "coding": [ {
          "system": "http://loinc.org",
          "code": "45755-6",
          "display": "Hospice care [Minimum Data Set]",
          "userSelected": true
        } ]
      },
      "subject": {
        "reference": "Patient/61c9b47c-2223-4e45-b83b-eee21f031cad"
      },
      "effectiveDateTime": "2026-03-01T08:00:00.000+00:00",
      "valueCodeableConcept": {
        "coding": [ {
          "system": "http://snomed.info/sct",
          "code": "373066001",
          "display": "Yes (qualifier value)",
          "userSelected": true
        } ]
      }
    },
    "request": {
      "method": "PUT",
      "url": "Observation/70c5e854-1be3-4ce1-ae6a-298fa5010edd"
    }
  }, {
    "fullUrl": "https://madie.cms.gov/MeasureReport/63253648-5413-4930-8270-ae38d5542c41",
    "resource": {
      "resourceType": "MeasureReport",
      "id": "63253648-5413-4930-8270-ae38d5542c41",
      "meta": {
        "profile": [ "http://hl7.org/fhir/us/cqfmeasures/StructureDefinition/test-case-cqfm" ]
      },
      "contained": [ {
        "resourceType": "Parameters",
        "id": "d7ae3250-7c85-4d3f-b309-70d288e91c88-parameters",
        "parameter": [ {
          "name": "subject",
          "valueString": "61c9b47c-2223-4e45-b83b-eee21f031cad"
        } ]
      } ],
      "extension": [ {
        "url": "http://hl7.org/fhir/StructureDefinition/cqf-inputParameters",
        "valueReference": {
          "reference": "#d7ae3250-7c85-4d3f-b309-70d288e91c88-parameters"
        }
      }, {
        "url": "http://hl7.org/fhir/us/cqfmeasures/StructureDefinition/cqfm-testCaseDescription",
        "valueMarkdown": "This patient is 70 years old with a qualifying encounter and active diabetes diagnosis, two qualifying lab tests, as well as Hospice care Minimum Data Set performed. This case tests the denominator exclusion criteria."
      } ],
      "modifierExtension": [ {
        "url": "http://hl7.org/fhir/us/cqfmeasures/StructureDefinition/cqfm-isTestCase",
        "valueBoolean": true
      } ],
      "status": "complete",
      "type": "individual",
      "measure": "https://madie.cms.gov/Measure/CMS951FHIRKidneyHealthEval",
      "period": {
        "start": "2026-01-01",
        "end": "2026-12-31"
      },
      "group": [ {
        "id": "Group_1",
        "population": [ {
          "id": "InitialPopulation_1",
          "code": {
            "coding": [ {
              "system": "http://terminology.hl7.org/CodeSystem/measure-population",
              "code": "initial-population",
              "display": "Initial Population"
            } ]
          },
          "count": 1
        }, {
          "id": "Denominator_1",
          "code": {
            "coding": [ {
              "system": "http://terminology.hl7.org/CodeSystem/measure-population",
              "code": "denominator",
              "display": "Denominator"
            } ]
          },
          "count": 1
        }, {
          "id": "DenominatorExclusion_1",
          "code": {
            "coding": [ {
              "system": "http://terminology.hl7.org/CodeSystem/measure-population",
              "code": "denominator-exclusion",
              "display": "Denominator Exclusion"
            } ]
          },
          "count": 1
        }, {
          "id": "Numerator_1",
          "code": {
            "coding": [ {
              "system": "http://terminology.hl7.org/CodeSystem/measure-population",
              "code": "numerator",
              "display": "Numerator"
            } ]
          },
          "count": 0
        } ],
        "measureScore": {
          "value": 1.0
        }
      } ],
      "evaluatedResource": [ {
        "reference": "Patient/61c9b47c-2223-4e45-b83b-eee21f031cad"
      }, {
        "reference": "Condition/a180887d-b9c3-42af-9286-27151e634300"
      }, {
        "reference": "Encounter/2d56ccf7-a9cb-4c9f-824b-351b8fa2eb54"
      }, {
        "reference": "Observation/57c94cd0-f143-467d-b978-9ef1ee086910"
      }, {
        "reference": "Observation/199b7235-8a7d-4415-94a6-53e2eba82c4e"
      }, {
        "reference": "Observation/70c5e854-1be3-4ce1-ae6a-298fa5010edd"
      } ]
    },
    "request": {
      "method": "PUT",
      "url": "MeasureReport/63253648-5413-4930-8270-ae38d5542c41"
    }
  } ]
}