{
  "resourceType": "Bundle",
  "id": "612e6b8402c62a011f2ee1d9",
  "type": "transaction",
  "entry": [ {
    "fullUrl": "https://madie.cms.gov/Patient/f859dd94-f201-4517-a368-32b98dd486c9",
    "resource": {
      "resourceType": "Patient",
      "id": "f859dd94-f201-4517-a368-32b98dd486c9",
      "meta": {
        "profile": [ "http://hl7.org/fhir/us/qicore/StructureDefinition/qicore-patient" ]
      },
      "text": {
        "status": "generated",
        "div": "<div xmlns=\"http://www.w3.org/1999/xhtml\"><div class=\"hapiHeaderText\">MedRsnMAWarfDAIPCDrgEDGT1hrSameDayAdm <b>NUMERPASS </b></div><table class=\"hapiPropertyTable\"><tbody><tr><td>Identifier</td><td>d5661b6a7ac7a6b9f13847d23af8475a</td></tr><tr><td>Date of birth</td><td><span>02 January 1974</span></td></tr></tbody></table></div>"
      },
      "extension": [ {
        "url": "http://hl7.org/fhir/us/core/StructureDefinition/us-core-race",
        "extension": [ {
          "url": "ombCategory",
          "valueCoding": {
            "system": "urn:oid:2.16.840.1.113883.6.238",
            "code": "1002-5",
            "display": "American Indian or Alaska Native",
            "userSelected": true
          }
        }, {
          "url": "text",
          "valueString": "American Indian or Alaska Native"
        } ]
      }, {
        "url": "http://hl7.org/fhir/us/core/StructureDefinition/us-core-ethnicity",
        "extension": [ {
          "url": "ombCategory",
          "valueCoding": {
            "system": "urn:oid:2.16.840.1.113883.6.238",
            "code": "2135-2",
            "display": "Hispanic or Latino",
            "userSelected": true
          }
        }, {
          "url": "text",
          "valueString": "Hispanic or Latino"
        } ]
      } ],
      "identifier": [ {
        "type": {
          "coding": [ {
            "system": "http://terminology.hl7.org/CodeSystem/v2-0203",
            "code": "MR"
          } ]
        },
        "system": "https://bonnie-fhir.healthit.gov/",
        "value": "612e6b8402c62a011f2ee1d9"
      } ],
      "active": true,
      "name": [ {
        "use": "usual",
        "family": "NUMERPass",
        "given": [ "MedRsnMAWarfDAIPCDrgEDGT1hrSameDayAdm" ]
      } ],
      "gender": "male",
      "birthDate": "1975-01-02"
    },
    "request": {
      "method": "PUT",
      "url": "Patient/f859dd94-f201-4517-a368-32b98dd486c9"
    }
  }, {
    "fullUrl": "https://madie.cms.gov/Encounter/6c17ae85-1db2-43e7-9980-87fae1ea0ee4",
    "resource": {
      "resourceType": "Encounter",
      "id": "6c17ae85-1db2-43e7-9980-87fae1ea0ee4",
      "meta": {
        "profile": [ "http://hl7.org/fhir/us/qicore/StructureDefinition/qicore-encounter" ]
      },
      "status": "finished",
      "class": {
        "system": "http://terminology.hl7.org/CodeSystem/v3-ActCode",
        "code": "EMER",
        "display": "emergency"
      },
      "type": [ {
        "coding": [ {
          "system": "http://snomed.info/sct",
          "code": "4525004"
        } ]
      } ],
      "subject": {
        "reference": "Patient/f859dd94-f201-4517-a368-32b98dd486c9"
      },
      "period": {
        "start": "2026-10-31T04:00:00.000+00:00",
        "end": "2026-11-01T07:15:00.000+00:00"
      },
      "length": {
        "value": 1,
        "unit": "days"
      }
    },
    "request": {
      "method": "PUT",
      "url": "Encounter/6c17ae85-1db2-43e7-9980-87fae1ea0ee4"
    }
  }, {
    "fullUrl": "https://madie.cms.gov/Encounter/11bf092f-237e-4b25-a5aa-168b8168016c",
    "resource": {
      "resourceType": "Encounter",
      "id": "11bf092f-237e-4b25-a5aa-168b8168016c",
      "meta": {
        "profile": [ "http://hl7.org/fhir/us/qicore/StructureDefinition/qicore-encounter" ]
      },
      "status": "finished",
      "class": {
        "system": "http://terminology.hl7.org/CodeSystem/v3-ActCode",
        "code": "IMP",
        "display": "inpatient encounter"
      },
      "type": [ {
        "coding": [ {
          "system": "http://snomed.info/sct",
          "code": "8715000"
        } ]
      } ],
      "subject": {
        "reference": "Patient/f859dd94-f201-4517-a368-32b98dd486c9"
      },
      "period": {
        "start": "2026-11-01T10:00:00.000+00:00",
        "end": "2026-11-04T05:00:00.000+00:00"
      },
      "length": {
        "value": 25,
        "unit": "days"
      },
      "location": [ {
        "location": {
          "reference": "Location/b06bce23-100c-4df6-b270-d63a1122cdf6"
        },
        "period": {
          "start": "2026-11-01T10:30:00.000+00:00",
          "end": "2026-11-02T08:15:00.000+00:00"
        }
      } ]
    },
    "request": {
      "method": "PUT",
      "url": "Encounter/11bf092f-237e-4b25-a5aa-168b8168016c"
    }
  }, {
    "fullUrl": "https://madie.cms.gov/Coverage/430d4db8-d74a-43ec-be45-d2c8ea497c9c",
    "resource": {
      "resourceType": "Coverage",
      "id": "430d4db8-d74a-43ec-be45-d2c8ea497c9c",
      "status": "active",
      "beneficiary": {
        "reference": "Patient/f859dd94-f201-4517-a368-32b98dd486c9"
      },
      "period": {
        "start": "1975-01-02T08:00:00.000+00:00"
      },
      "payor": [ {
        "reference": "Organization/3015fb91-728c-4875-8508-f22f2539a13a"
      } ]
    },
    "request": {
      "method": "PUT",
      "url": "Coverage/430d4db8-d74a-43ec-be45-d2c8ea497c9c"
    }
  }, {
    "fullUrl": "https://madie.cms.gov/Location/b06bce23-100c-4df6-b270-d63a1122cdf6",
    "resource": {
      "resourceType": "Location",
      "id": "b06bce23-100c-4df6-b270-d63a1122cdf6",
      "meta": {
        "profile": [ "http://hl7.org/fhir/us/qicore/StructureDefinition/qicore-location" ]
      },
      "identifier": [ {
        "use": "usual",
        "system": "http://exampleoflocation.com",
        "value": "B1-S.F2"
      } ],
      "name": "Medical Surgical East, first floor",
      "type": [ {
        "coding": [ {
          "system": "https://www.cdc.gov/nhsn/cdaportal/terminology/codesystem/hsloc.html",
          "code": "1025-6",
          "display": "Trauma Critical Care",
          "userSelected": true
        } ]
      } ]
    },
    "request": {
      "method": "PUT",
      "url": "Location/b06bce23-100c-4df6-b270-d63a1122cdf6"
    }
  }, {
    "fullUrl": "https://madie.cms.gov/Procedure/fe6d7d7c-64e0-4c62-b695-f8707af836f3",
    "resource": {
      "resourceType": "Procedure",
      "id": "fe6d7d7c-64e0-4c62-b695-f8707af836f3",
      "meta": {
        "profile": [ "http://hl7.org/fhir/us/qicore/StructureDefinition/qicore-procedurenotdone" ]
      },
      "extension": [ {
        "url": "http://hl7.org/fhir/us/qicore/StructureDefinition/qicore-recorded",
        "valueDateTime": "2026-11-01T10:35:00.000+00:00"
      } ],
      "status": "not-done",
      "statusReason": {
        "coding": [ {
          "system": "http://snomed.info/sct",
          "code": "183932001",
          "display": "Procedure contraindicated (situation)",
          "userSelected": true
        } ]
      },
      "code": {
        "coding": [ {
          "system": "http://snomed.info/sct",
          "code": "443448006",
          "display": "Application of intermittent pneumatic compression device (procedure)",
          "userSelected": true
        } ]
      },
      "subject": {
        "reference": "Patient/f859dd94-f201-4517-a368-32b98dd486c9"
      },
      "_performedDateTime": {
        "extension": [ {
          "url": "http://hl7.org/fhir/StructureDefinition/data-absent-reason",
          "valueCode": "not-performed"
        } ]
      }
    },
    "request": {
      "method": "PUT",
      "url": "Procedure/fe6d7d7c-64e0-4c62-b695-f8707af836f3"
    }
  }, {
    "fullUrl": "https://madie.cms.gov/MedicationAdministration/78c3ab7a-665c-40e6-b10c-73b4356041d9",
    "resource": {
      "resourceType": "MedicationAdministration",
      "id": "78c3ab7a-665c-40e6-b10c-73b4356041d9",
      "meta": {
        "profile": [ "http://hl7.org/fhir/us/qicore/StructureDefinition/qicore-medicationadministrationnotdone" ]
      },
      "extension": [ {
        "url": "http://hl7.org/fhir/us/qicore/StructureDefinition/qicore-recorded",
        "valueDateTime": "2026-11-01T06:00:00.000+00:00"
      } ],
      "status": "not-done",
      "statusReason": [ {
        "coding": [ {
          "system": "http://snomed.info/sct",
          "code": "183932001",
          "display": "Procedure contraindicated (situation)",
          "userSelected": true
        } ]
      } ],
      "medicationCodeableConcept": {
        "coding": [ {
          "system": "http://www.nlm.nih.gov/research/umls/rxnorm",
          "code": "855288"
        } ]
      },
      "subject": {
        "reference": "Patient/f859dd94-f201-4517-a368-32b98dd486c9"
      },
      "effectivePeriod": {
        "start": "2026-11-01T07:00:00.000+00:00"
      }
    },
    "request": {
      "method": "PUT",
      "url": "MedicationAdministration/78c3ab7a-665c-40e6-b10c-73b4356041d9"
    }
  }, {
    "fullUrl": "https://madie.cms.gov/Organization/3015fb91-728c-4875-8508-f22f2539a13a",
    "resource": {
      "resourceType": "Organization",
      "id": "3015fb91-728c-4875-8508-f22f2539a13a",
      "meta": {
        "profile": [ "http://hl7.org/fhir/us/qicore/StructureDefinition/qicore-organization" ]
      },
      "identifier": [ {
        "use": "temp",
        "system": "urn:oid:2.16.840.1.113883.4.4",
        "value": "21-3259825"
      } ],
      "active": true,
      "type": [ {
        "coding": [ {
          "system": "http://terminology.hl7.org/CodeSystem/organization-type",
          "code": "pay",
          "display": "Payer"
        } ]
      } ],
      "name": "Blue Cross Blue Shield of Texas",
      "telecom": [ {
        "system": "phone",
        "value": "(+1) 972-766-6900"
      } ],
      "address": [ {
        "use": "billing",
        "type": "postal",
        "line": [ "P.O. Box 660044" ],
        "city": "Dallas",
        "state": "TX",
        "postalCode": "75266-0044",
        "country": "USA"
      } ]
    },
    "request": {
      "method": "PUT",
      "url": "Organization/3015fb91-728c-4875-8508-f22f2539a13a"
    }
  }, {
    "fullUrl": "https://madie.cms.gov/Practitioner/84f548de-bed0-416c-8867-9780b0c8622d",
    "resource": {
      "resourceType": "Practitioner",
      "id": "84f548de-bed0-416c-8867-9780b0c8622d",
      "identifier": [ {
        "system": "http://hl7.org/fhir/sid/us-npi",
        "value": "123456"
      } ],
      "name": [ {
        "family": "Evil",
        "prefix": [ "Dr" ]
      } ]
    },
    "request": {
      "method": "PUT",
      "url": "Practitioner/84f548de-bed0-416c-8867-9780b0c8622d"
    }
  }, {
    "fullUrl": "https://madie.cms.gov/MeasureReport/da236e59-3d0a-46c4-a352-3eec5846dbe6",
    "resource": {
      "resourceType": "MeasureReport",
      "id": "da236e59-3d0a-46c4-a352-3eec5846dbe6",
      "meta": {
        "profile": [ "http://hl7.org/fhir/us/cqfmeasures/StructureDefinition/test-case-cqfm" ]
      },
      "contained": [ {
        "resourceType": "Parameters",
        "id": "544cb16c-2ea2-4fd5-9ede-a3f5e9789c96-parameters",
        "parameter": [ {
          "name": "subject",
          "valueString": "f859dd94-f201-4517-a368-32b98dd486c9"
        } ]
      } ],
      "extension": [ {
        "url": "http://hl7.org/fhir/StructureDefinition/cqf-inputParameters",
        "valueReference": {
          "reference": "#544cb16c-2ea2-4fd5-9ede-a3f5e9789c96-parameters"
        }
      }, {
        "url": "http://hl7.org/fhir/us/cqfmeasures/StructureDefinition/cqfm-testCaseDescription",
        "valueMarkdown": "meets IPP, meets Denominator, IPC applied not done MedRsn and Warfarin admin not done PatRfsl - during ED but ED > 1 hr before adm time, but it is on the same day as Adm date\n\"\n"
      } ],
      "modifierExtension": [ {
        "url": "http://hl7.org/fhir/us/cqfmeasures/StructureDefinition/cqfm-isTestCase",
        "valueBoolean": true
      } ],
      "status": "complete",
      "type": "individual",
      "measure": "https://madie.cms.gov/Measure/CMS190FHIRVTEProphylaxisICU",
      "period": {
        "start": "2026-01-01",
        "end": "2026-12-31"
      },
      "group": [ {
        "id": "Group_1",
        "population": [ {
          "id": "InitialPopulation_1",
          "code": {
            "coding": [ {
              "system": "http://terminology.hl7.org/CodeSystem/measure-population",
              "code": "initial-population",
              "display": "Initial Population"
            } ]
          },
          "count": 1
        }, {
          "id": "Denominator_1",
          "code": {
            "coding": [ {
              "system": "http://terminology.hl7.org/CodeSystem/measure-population",
              "code": "denominator",
              "display": "Denominator"
            } ]
          },
          "count": 1
        }, {
          "id": "DenominatorExclusion_1",
          "code": {
            "coding": [ {
              "system": "http://terminology.hl7.org/CodeSystem/measure-population",
              "code": "denominator-exclusion",
              "display": "Denominator Exclusion"
            } ]
          },
          "count": 0
        }, {
          "id": "Numerator_1",
          "code": {
            "coding": [ {
              "system": "http://terminology.hl7.org/CodeSystem/measure-population",
              "code": "numerator",
              "display": "Numerator"
            } ]
          },
          "count": 1
        }, {
          "id": "DenominatorException_1",
          "code": {
            "coding": [ {
              "system": "http://terminology.hl7.org/CodeSystem/measure-population",
              "code": "denominator-exception",
              "display": "Denominator Exception"
            } ]
          },
          "count": 0
        } ],
        "measureScore": {
          "value": 0.0
        }
      } ],
      "evaluatedResource": [ {
        "reference": "Patient/f859dd94-f201-4517-a368-32b98dd486c9"
      }, {
        "reference": "Encounter/6c17ae85-1db2-43e7-9980-87fae1ea0ee4"
      }, {
        "reference": "Encounter/11bf092f-237e-4b25-a5aa-168b8168016c"
      }, {
        "reference": "Coverage/430d4db8-d74a-43ec-be45-d2c8ea497c9c"
      }, {
        "reference": "Location/b06bce23-100c-4df6-b270-d63a1122cdf6"
      }, {
        "reference": "Procedure/fe6d7d7c-64e0-4c62-b695-f8707af836f3"
      }, {
        "reference": "MedicationAdministration/78c3ab7a-665c-40e6-b10c-73b4356041d9"
      }, {
        "reference": "Organization/3015fb91-728c-4875-8508-f22f2539a13a"
      }, {
        "reference": "Practitioner/84f548de-bed0-416c-8867-9780b0c8622d"
      } ]
    },
    "request": {
      "method": "PUT",
      "url": "MeasureReport/da236e59-3d0a-46c4-a352-3eec5846dbe6"
    }
  } ]
}