{
  "resourceType": "Bundle",
  "id": "612e6f1402c62a011f2f0ad8",
  "type": "transaction",
  "entry": [ {
    "fullUrl": "https://madie.cms.gov/Patient/3d5a301e-9a14-41d1-8d09-dda738cc761e",
    "resource": {
      "resourceType": "Patient",
      "id": "3d5a301e-9a14-41d1-8d09-dda738cc761e",
      "meta": {
        "profile": [ "http://hl7.org/fhir/us/qicore/StructureDefinition/qicore-patient" ]
      },
      "text": {
        "status": "generated",
        "div": "<div xmlns=\"http://www.w3.org/1999/xhtml\"><div class=\"hapiHeaderText\">EncDxObstetrics <b>IPFAIL </b></div><table class=\"hapiPropertyTable\"><tbody><tr><td>Identifier</td><td>73dfd43c47660281c0a5408728e85897</td></tr><tr><td>Date of birth</td><td><span>03 March 1974</span></td></tr></tbody></table></div>"
      },
      "extension": [ {
        "url": "http://hl7.org/fhir/us/core/StructureDefinition/us-core-race",
        "extension": [ {
          "url": "ombCategory",
          "valueCoding": {
            "system": "urn:oid:2.16.840.1.113883.6.238",
            "code": "1002-5",
            "display": "American Indian or Alaska Native",
            "userSelected": true
          }
        }, {
          "url": "text",
          "valueString": "American Indian or Alaska Native"
        } ]
      }, {
        "url": "http://hl7.org/fhir/us/core/StructureDefinition/us-core-ethnicity",
        "extension": [ {
          "url": "ombCategory",
          "valueCoding": {
            "system": "urn:oid:2.16.840.1.113883.6.238",
            "code": "2186-5",
            "display": "Not Hispanic or Latino",
            "userSelected": true
          }
        }, {
          "url": "text",
          "valueString": "Not Hispanic or Latino"
        } ]
      } ],
      "identifier": [ {
        "type": {
          "coding": [ {
            "system": "http://terminology.hl7.org/CodeSystem/v2-0203",
            "code": "MR"
          } ]
        },
        "system": "https://bonnie-fhir.healthit.gov/",
        "value": "612e6f1402c62a011f2f0ad8"
      } ],
      "active": true,
      "name": [ {
        "use": "usual",
        "family": "IPFail",
        "given": [ "EncDxObstetrics" ]
      } ],
      "gender": "female",
      "birthDate": "1975-03-03"
    },
    "request": {
      "method": "PUT",
      "url": "Patient/3d5a301e-9a14-41d1-8d09-dda738cc761e"
    }
  }, {
    "fullUrl": "https://madie.cms.gov/Encounter/c72f613a-46f8-4070-bc2a-ebf948832881",
    "resource": {
      "resourceType": "Encounter",
      "id": "c72f613a-46f8-4070-bc2a-ebf948832881",
      "meta": {
        "profile": [ "http://hl7.org/fhir/us/qicore/StructureDefinition/qicore-encounter" ]
      },
      "status": "finished",
      "class": {
        "system": "http://terminology.hl7.org/CodeSystem/v3-ActCode",
        "code": "IMP",
        "display": "inpatient encounter"
      },
      "type": [ {
        "coding": [ {
          "system": "http://snomed.info/sct",
          "code": "8715000"
        } ]
      } ],
      "subject": {
        "reference": "Patient/3d5a301e-9a14-41d1-8d09-dda738cc761e"
      },
      "period": {
        "start": "2026-12-04T08:00:00.000+00:00",
        "end": "2026-12-30T08:15:00.000+00:00"
      },
      "length": {
        "value": 26,
        "unit": "days"
      },
      "reasonReference": [ {
        "reference": "Condition/a1e9ad26-1b68-475c-9575-5592f92b80fd"
      } ],
      "location": [ {
        "location": {
          "reference": "Location/daea1700-c397-4a1c-8869-33ba861232b8"
        },
        "period": {
          "start": "2026-12-06T08:00:00.000+00:00",
          "end": "2026-12-08T08:15:00.000+00:00"
        }
      } ]
    },
    "request": {
      "method": "PUT",
      "url": "Encounter/c72f613a-46f8-4070-bc2a-ebf948832881"
    }
  }, {
    "fullUrl": "https://madie.cms.gov/Coverage/133379b8-f044-4053-9a62-f31267cf3f1f",
    "resource": {
      "resourceType": "Coverage",
      "id": "133379b8-f044-4053-9a62-f31267cf3f1f",
      "status": "active",
      "beneficiary": {
        "reference": "Patient/3d5a301e-9a14-41d1-8d09-dda738cc761e"
      },
      "period": {
        "start": "1975-03-03T08:00:00.000+00:00"
      },
      "payor": [ {
        "reference": "Organization/9ce8176b-7d41-4970-90de-4f51be8c01ac"
      } ]
    },
    "request": {
      "method": "PUT",
      "url": "Coverage/133379b8-f044-4053-9a62-f31267cf3f1f"
    }
  }, {
    "fullUrl": "https://madie.cms.gov/Condition/a1e9ad26-1b68-475c-9575-5592f92b80fd",
    "resource": {
      "resourceType": "Condition",
      "id": "a1e9ad26-1b68-475c-9575-5592f92b80fd",
      "meta": {
        "profile": [ "http://hl7.org/fhir/us/qicore/StructureDefinition/qicore-condition-encounter-diagnosis" ]
      },
      "category": [ {
        "coding": [ {
          "system": "http://terminology.hl7.org/CodeSystem/condition-category",
          "code": "encounter-diagnosis",
          "display": "Encounter Diagnosis"
        } ]
      } ],
      "code": {
        "coding": [ {
          "system": "http://snomed.info/sct",
          "code": "1001000119102",
          "display": "Pulmonary embolism with pulmonary infarction (disorder)",
          "userSelected": true
        } ]
      },
      "subject": {
        "reference": "Patient/3d5a301e-9a14-41d1-8d09-dda738cc761e"
      },
      "recordedDate": "2026-09-09T08:00:00.000+00:00"
    },
    "request": {
      "method": "PUT",
      "url": "Condition/a1e9ad26-1b68-475c-9575-5592f92b80fd"
    }
  }, {
    "fullUrl": "https://madie.cms.gov/Location/daea1700-c397-4a1c-8869-33ba861232b8",
    "resource": {
      "resourceType": "Location",
      "id": "daea1700-c397-4a1c-8869-33ba861232b8",
      "meta": {
        "profile": [ "http://hl7.org/fhir/us/qicore/StructureDefinition/qicore-location" ]
      },
      "identifier": [ {
        "use": "usual",
        "system": "http://exampleoflocation.com",
        "value": "B1-S.F2"
      } ],
      "name": "Medical Surgical East, first floor",
      "type": [ {
        "coding": [ {
          "system": "https://www.cdc.gov/nhsn/cdaportal/terminology/codesystem/hsloc.html",
          "code": "1025-6",
          "display": "Trauma Critical Care",
          "userSelected": true
        } ]
      } ]
    },
    "request": {
      "method": "PUT",
      "url": "Location/daea1700-c397-4a1c-8869-33ba861232b8"
    }
  }, {
    "fullUrl": "https://madie.cms.gov/Organization/9ce8176b-7d41-4970-90de-4f51be8c01ac",
    "resource": {
      "resourceType": "Organization",
      "id": "9ce8176b-7d41-4970-90de-4f51be8c01ac",
      "meta": {
        "profile": [ "http://hl7.org/fhir/us/qicore/StructureDefinition/qicore-organization" ]
      },
      "identifier": [ {
        "use": "temp",
        "system": "urn:oid:2.16.840.1.113883.4.4",
        "value": "21-3259825"
      } ],
      "active": true,
      "type": [ {
        "coding": [ {
          "system": "http://terminology.hl7.org/CodeSystem/organization-type",
          "code": "pay",
          "display": "Payer"
        } ]
      } ],
      "name": "Blue Cross Blue Shield of Texas",
      "telecom": [ {
        "system": "phone",
        "value": "(+1) 972-766-6900"
      } ],
      "address": [ {
        "use": "billing",
        "type": "postal",
        "line": [ "P.O. Box 660044" ],
        "city": "Dallas",
        "state": "TX",
        "postalCode": "75266-0044",
        "country": "USA"
      } ]
    },
    "request": {
      "method": "PUT",
      "url": "Organization/9ce8176b-7d41-4970-90de-4f51be8c01ac"
    }
  }, {
    "fullUrl": "https://madie.cms.gov/Practitioner/f1b3b24f-b3ec-4fd3-b1a6-a77f96f557a1",
    "resource": {
      "resourceType": "Practitioner",
      "id": "f1b3b24f-b3ec-4fd3-b1a6-a77f96f557a1",
      "identifier": [ {
        "system": "http://hl7.org/fhir/sid/us-npi",
        "value": "123456"
      } ],
      "name": [ {
        "family": "Evil",
        "prefix": [ "Dr" ]
      } ]
    },
    "request": {
      "method": "PUT",
      "url": "Practitioner/f1b3b24f-b3ec-4fd3-b1a6-a77f96f557a1"
    }
  }, {
    "fullUrl": "https://madie.cms.gov/MeasureReport/00ed5a93-c3af-4170-9da1-c23824431e57",
    "resource": {
      "resourceType": "MeasureReport",
      "id": "00ed5a93-c3af-4170-9da1-c23824431e57",
      "meta": {
        "profile": [ "http://hl7.org/fhir/us/cqfmeasures/StructureDefinition/test-case-cqfm" ]
      },
      "contained": [ {
        "resourceType": "Parameters",
        "id": "d134ccf5-75d3-4997-ae66-8fe66d781500-parameters",
        "parameter": [ {
          "name": "subject",
          "valueString": "3d5a301e-9a14-41d1-8d09-dda738cc761e"
        } ]
      } ],
      "extension": [ {
        "url": "http://hl7.org/fhir/StructureDefinition/cqf-inputParameters",
        "valueReference": {
          "reference": "#d134ccf5-75d3-4997-ae66-8fe66d781500-parameters"
        }
      }, {
        "url": "http://hl7.org/fhir/us/cqfmeasures/StructureDefinition/cqfm-testCaseDescription",
        "valueMarkdown": "Encounter Dx of VTE\n"
      } ],
      "modifierExtension": [ {
        "url": "http://hl7.org/fhir/us/cqfmeasures/StructureDefinition/cqfm-isTestCase",
        "valueBoolean": true
      } ],
      "status": "complete",
      "type": "individual",
      "measure": "https://madie.cms.gov/Measure/CMS190FHIRVTEProphylaxisICU",
      "period": {
        "start": "2026-01-01",
        "end": "2026-12-31"
      },
      "group": [ {
        "id": "Group_1",
        "population": [ {
          "id": "InitialPopulation_1",
          "code": {
            "coding": [ {
              "system": "http://terminology.hl7.org/CodeSystem/measure-population",
              "code": "initial-population",
              "display": "Initial Population"
            } ]
          },
          "count": 0
        }, {
          "id": "Denominator_1",
          "code": {
            "coding": [ {
              "system": "http://terminology.hl7.org/CodeSystem/measure-population",
              "code": "denominator",
              "display": "Denominator"
            } ]
          },
          "count": 0
        }, {
          "id": "DenominatorExclusion_1",
          "code": {
            "coding": [ {
              "system": "http://terminology.hl7.org/CodeSystem/measure-population",
              "code": "denominator-exclusion",
              "display": "Denominator Exclusion"
            } ]
          },
          "count": 0
        }, {
          "id": "Numerator_1",
          "code": {
            "coding": [ {
              "system": "http://terminology.hl7.org/CodeSystem/measure-population",
              "code": "numerator",
              "display": "Numerator"
            } ]
          },
          "count": 0
        }, {
          "id": "DenominatorException_1",
          "code": {
            "coding": [ {
              "system": "http://terminology.hl7.org/CodeSystem/measure-population",
              "code": "denominator-exception",
              "display": "Denominator Exception"
            } ]
          },
          "count": 0
        } ],
        "measureScore": {
          "value": 0.0
        }
      } ],
      "evaluatedResource": [ {
        "reference": "Patient/3d5a301e-9a14-41d1-8d09-dda738cc761e"
      }, {
        "reference": "Encounter/c72f613a-46f8-4070-bc2a-ebf948832881"
      }, {
        "reference": "Coverage/133379b8-f044-4053-9a62-f31267cf3f1f"
      }, {
        "reference": "Condition/a1e9ad26-1b68-475c-9575-5592f92b80fd"
      }, {
        "reference": "Location/daea1700-c397-4a1c-8869-33ba861232b8"
      }, {
        "reference": "Organization/9ce8176b-7d41-4970-90de-4f51be8c01ac"
      }, {
        "reference": "Practitioner/f1b3b24f-b3ec-4fd3-b1a6-a77f96f557a1"
      } ]
    },
    "request": {
      "method": "PUT",
      "url": "MeasureReport/00ed5a93-c3af-4170-9da1-c23824431e57"
    }
  } ]
}