{
  "resourceType": "Bundle",
  "id": "DENEXPass-SevereCombinedImmunodeficiencyCondEncDx",
  "type": "transaction",
  "entry": [ {
    "fullUrl": "https://madie.cms.gov/Patient/8a6a1b3e-8145-4043-9a8c-b50603ef0269",
    "resource": {
      "resourceType": "Patient",
      "id": "8a6a1b3e-8145-4043-9a8c-b50603ef0269",
      "meta": {
        "profile": [ "http://hl7.org/fhir/us/qicore/StructureDefinition/qicore-patient" ]
      },
      "extension": [ {
        "url": "http://hl7.org/fhir/us/core/StructureDefinition/us-core-race",
        "extension": [ {
          "url": "ombCategory",
          "valueCoding": {
            "system": "urn:oid:2.16.840.1.113883.6.238",
            "code": "2028-9",
            "display": "Asian"
          }
        }, {
          "url": "text",
          "valueString": "Asian"
        } ]
      }, {
        "url": "http://hl7.org/fhir/us/core/StructureDefinition/us-core-ethnicity",
        "extension": [ {
          "url": "ombCategory",
          "valueCoding": {
            "system": "urn:oid:2.16.840.1.113883.6.238",
            "code": "2135-2",
            "display": "Hispanic or Latino"
          }
        }, {
          "url": "text",
          "valueString": "Hispanic or Latino"
        } ]
      } ],
      "identifier": [ {
        "system": "http://hospital.smarthealthit.org",
        "value": "999999995"
      } ],
      "name": [ {
        "family": "Bertha",
        "given": [ "Betty" ]
      } ],
      "gender": "female",
      "birthDate": "2024-01-01"
    },
    "request": {
      "method": "PUT",
      "url": "Patient/8a6a1b3e-8145-4043-9a8c-b50603ef0269"
    }
  }, {
    "fullUrl": "https://madie.cms.gov/Encounter/a9485766-088e-4d31-a20d-9131745e7a81",
    "resource": {
      "resourceType": "Encounter",
      "id": "a9485766-088e-4d31-a20d-9131745e7a81",
      "meta": {
        "profile": [ "http://hl7.org/fhir/us/qicore/StructureDefinition/qicore-encounter" ]
      },
      "status": "finished",
      "class": {
        "system": "http://terminology.hl7.org/CodeSystem/v3-ActCode",
        "code": "AMB",
        "display": "ambulatory"
      },
      "type": [ {
        "coding": [ {
          "system": "http://snomed.info/sct",
          "code": "185317003",
          "display": "Telephone encounter (procedure)"
        } ]
      } ],
      "subject": {
        "reference": "Patient/8a6a1b3e-8145-4043-9a8c-b50603ef0269"
      },
      "period": {
        "start": "2026-01-01T01:00:00.000+00:00",
        "end": "2026-01-01T01:15:00.000+00:00"
      }
    },
    "request": {
      "method": "PUT",
      "url": "Encounter/a9485766-088e-4d31-a20d-9131745e7a81"
    }
  }, {
    "fullUrl": "https://madie.cms.gov/Condition/8762b041-862a-489b-96ca-d7e58fb8dbf8",
    "resource": {
      "resourceType": "Condition",
      "id": "8762b041-862a-489b-96ca-d7e58fb8dbf8",
      "meta": {
        "profile": [ "http://hl7.org/fhir/us/qicore/StructureDefinition/qicore-condition-encounter-diagnosis" ]
      },
      "clinicalStatus": {
        "coding": [ {
          "system": "http://terminology.hl7.org/CodeSystem/condition-clinical",
          "code": "active"
        } ]
      },
      "category": [ {
        "coding": [ {
          "system": "http://terminology.hl7.org/CodeSystem/condition-category",
          "code": "encounter-diagnosis",
          "display": "Encounter Diagnosis"
        } ]
      } ],
      "code": {
        "coding": [ {
          "system": "http://snomed.info/sct",
          "code": "3439009",
          "display": "Severe combined immunodeficiency due to absent peripheral T cell maturation (disorder)"
        } ]
      },
      "subject": {
        "reference": "Patient/8a6a1b3e-8145-4043-9a8c-b50603ef0269"
      },
      "onsetDateTime": "2025-01-02T00:00:00.000+00:00"
    },
    "request": {
      "method": "PUT",
      "url": "Condition/8762b041-862a-489b-96ca-d7e58fb8dbf8"
    }
  }, {
    "fullUrl": "https://madie.cms.gov/Immunization/945ea186-5ed9-4a24-8c5f-d0497df06914",
    "resource": {
      "resourceType": "Immunization",
      "id": "945ea186-5ed9-4a24-8c5f-d0497df06914",
      "meta": {
        "profile": [ "http://hl7.org/fhir/us/qicore/StructureDefinition/qicore-immunization" ]
      },
      "status": "completed",
      "vaccineCode": {
        "coding": [ {
          "system": "http://hl7.org/fhir/sid/cvx",
          "code": "146",
          "display": "DTaP,IPV,Hib,HepB"
        } ]
      },
      "patient": {
        "reference": "Patient/8a6a1b3e-8145-4043-9a8c-b50603ef0269"
      },
      "occurrenceDateTime": "2025-01-02T00:00:00.000+00:00",
      "recorded": "2025-01-02T00:00:00.000+00:00",
      "primarySource": true
    },
    "request": {
      "method": "PUT",
      "url": "Immunization/945ea186-5ed9-4a24-8c5f-d0497df06914"
    }
  }, {
    "fullUrl": "https://madie.cms.gov/Immunization/fa20e751-90c2-4ef8-aff5-b7a112aeca98",
    "resource": {
      "resourceType": "Immunization",
      "id": "fa20e751-90c2-4ef8-aff5-b7a112aeca98",
      "meta": {
        "profile": [ "http://hl7.org/fhir/us/qicore/StructureDefinition/qicore-immunization" ]
      },
      "status": "completed",
      "vaccineCode": {
        "coding": [ {
          "system": "http://hl7.org/fhir/sid/cvx",
          "code": "146",
          "display": "DTaP,IPV,Hib,HepB"
        } ]
      },
      "patient": {
        "reference": "Patient/8a6a1b3e-8145-4043-9a8c-b50603ef0269"
      },
      "occurrenceDateTime": "2025-01-05T00:00:00.000+00:00",
      "recorded": "2025-01-02T00:00:00.000+00:00",
      "primarySource": true
    },
    "request": {
      "method": "PUT",
      "url": "Immunization/fa20e751-90c2-4ef8-aff5-b7a112aeca98"
    }
  }, {
    "fullUrl": "https://madie.cms.gov/Immunization/fa81dfab-f40f-435b-bbc2-cd5f47c435ac",
    "resource": {
      "resourceType": "Immunization",
      "id": "fa81dfab-f40f-435b-bbc2-cd5f47c435ac",
      "meta": {
        "profile": [ "http://hl7.org/fhir/us/qicore/StructureDefinition/qicore-immunization" ]
      },
      "status": "completed",
      "vaccineCode": {
        "coding": [ {
          "system": "http://hl7.org/fhir/sid/cvx",
          "code": "146",
          "display": "DTaP,IPV,Hib,HepB"
        } ]
      },
      "patient": {
        "reference": "Patient/8a6a1b3e-8145-4043-9a8c-b50603ef0269"
      },
      "occurrenceDateTime": "2025-01-07T00:00:00.000+00:00",
      "recorded": "2025-01-02T00:00:00.000+00:00",
      "primarySource": true
    },
    "request": {
      "method": "PUT",
      "url": "Immunization/fa81dfab-f40f-435b-bbc2-cd5f47c435ac"
    }
  }, {
    "fullUrl": "https://madie.cms.gov/Immunization/3d963ffb-e99b-45ee-b8ef-97264b27a9f9",
    "resource": {
      "resourceType": "Immunization",
      "id": "3d963ffb-e99b-45ee-b8ef-97264b27a9f9",
      "meta": {
        "profile": [ "http://hl7.org/fhir/us/qicore/StructureDefinition/qicore-immunization" ]
      },
      "status": "completed",
      "vaccineCode": {
        "coding": [ {
          "system": "http://hl7.org/fhir/sid/cvx",
          "code": "146",
          "display": "DTaP,IPV,Hib,HepB"
        } ]
      },
      "patient": {
        "reference": "Patient/8a6a1b3e-8145-4043-9a8c-b50603ef0269"
      },
      "occurrenceDateTime": "2025-01-10T00:00:00.000+00:00",
      "recorded": "2025-01-02T00:00:00.000+00:00",
      "primarySource": true
    },
    "request": {
      "method": "PUT",
      "url": "Immunization/3d963ffb-e99b-45ee-b8ef-97264b27a9f9"
    }
  }, {
    "fullUrl": "https://madie.cms.gov/Immunization/a81c68c2-d00c-4e91-9aeb-38c3fa0e3fad",
    "resource": {
      "resourceType": "Immunization",
      "id": "a81c68c2-d00c-4e91-9aeb-38c3fa0e3fad",
      "meta": {
        "profile": [ "http://hl7.org/fhir/us/qicore/StructureDefinition/qicore-immunization" ]
      },
      "status": "completed",
      "vaccineCode": {
        "coding": [ {
          "system": "http://hl7.org/fhir/sid/cvx",
          "code": "146",
          "display": "DTaP,IPV,Hib,HepB"
        } ]
      },
      "patient": {
        "reference": "Patient/8a6a1b3e-8145-4043-9a8c-b50603ef0269"
      },
      "occurrenceDateTime": "2025-01-02T00:00:00.000+00:00",
      "recorded": "2025-01-02T00:00:00.000+00:00",
      "primarySource": true
    },
    "request": {
      "method": "PUT",
      "url": "Immunization/a81c68c2-d00c-4e91-9aeb-38c3fa0e3fad"
    }
  }, {
    "fullUrl": "https://madie.cms.gov/Immunization/1c81533d-3c70-4b5f-8a71-0f273b6ef0e4",
    "resource": {
      "resourceType": "Immunization",
      "id": "1c81533d-3c70-4b5f-8a71-0f273b6ef0e4",
      "meta": {
        "profile": [ "http://hl7.org/fhir/us/qicore/StructureDefinition/qicore-immunization" ]
      },
      "status": "completed",
      "vaccineCode": {
        "coding": [ {
          "system": "http://hl7.org/fhir/sid/cvx",
          "code": "146",
          "display": "DTaP,IPV,Hib,HepB"
        } ]
      },
      "patient": {
        "reference": "Patient/8a6a1b3e-8145-4043-9a8c-b50603ef0269"
      },
      "occurrenceDateTime": "2025-01-06T00:00:00.000+00:00",
      "recorded": "2025-01-02T00:00:00.000+00:00",
      "primarySource": true
    },
    "request": {
      "method": "PUT",
      "url": "Immunization/1c81533d-3c70-4b5f-8a71-0f273b6ef0e4"
    }
  }, {
    "fullUrl": "https://madie.cms.gov/Immunization/f6a3df22-b6ed-42c0-bb0a-03ab96074914",
    "resource": {
      "resourceType": "Immunization",
      "id": "f6a3df22-b6ed-42c0-bb0a-03ab96074914",
      "meta": {
        "profile": [ "http://hl7.org/fhir/us/qicore/StructureDefinition/qicore-immunization" ]
      },
      "status": "completed",
      "vaccineCode": {
        "coding": [ {
          "system": "http://hl7.org/fhir/sid/cvx",
          "code": "146",
          "display": "DTaP,IPV,Hib,HepB"
        } ]
      },
      "patient": {
        "reference": "Patient/8a6a1b3e-8145-4043-9a8c-b50603ef0269"
      },
      "occurrenceDateTime": "2025-01-09T00:00:00.000+00:00",
      "recorded": "2025-01-02T00:00:00.000+00:00",
      "primarySource": true
    },
    "request": {
      "method": "PUT",
      "url": "Immunization/f6a3df22-b6ed-42c0-bb0a-03ab96074914"
    }
  }, {
    "fullUrl": "https://madie.cms.gov/Immunization/ca9963d5-6eed-403e-8d2d-0f1b6763ef05",
    "resource": {
      "resourceType": "Immunization",
      "id": "ca9963d5-6eed-403e-8d2d-0f1b6763ef05",
      "meta": {
        "profile": [ "http://hl7.org/fhir/us/qicore/StructureDefinition/qicore-immunization" ]
      },
      "status": "completed",
      "vaccineCode": {
        "coding": [ {
          "system": "http://hl7.org/fhir/sid/cvx",
          "code": "94",
          "display": "measles, mumps, rubella, and varicella virus vaccine"
        } ]
      },
      "patient": {
        "reference": "Patient/8a6a1b3e-8145-4043-9a8c-b50603ef0269"
      },
      "occurrenceDateTime": "2025-01-02T00:00:00.000+00:00",
      "recorded": "2025-01-02T00:00:00.000+00:00",
      "primarySource": true
    },
    "request": {
      "method": "PUT",
      "url": "Immunization/ca9963d5-6eed-403e-8d2d-0f1b6763ef05"
    }
  }, {
    "fullUrl": "https://madie.cms.gov/Immunization/d083e23d-9527-40e0-8709-224296f87b56",
    "resource": {
      "resourceType": "Immunization",
      "id": "d083e23d-9527-40e0-8709-224296f87b56",
      "meta": {
        "profile": [ "http://hl7.org/fhir/us/qicore/StructureDefinition/qicore-immunization" ]
      },
      "status": "completed",
      "vaccineCode": {
        "coding": [ {
          "system": "http://hl7.org/fhir/sid/cvx",
          "code": "49",
          "display": "Haemophilus influenzae type b vaccine, PRP-OMP conjugate"
        } ]
      },
      "patient": {
        "reference": "Patient/8a6a1b3e-8145-4043-9a8c-b50603ef0269"
      },
      "occurrenceDateTime": "2025-01-02T00:00:00.000+00:00",
      "recorded": "2025-01-02T00:00:00.000+00:00",
      "primarySource": true
    },
    "request": {
      "method": "PUT",
      "url": "Immunization/d083e23d-9527-40e0-8709-224296f87b56"
    }
  }, {
    "fullUrl": "https://madie.cms.gov/Immunization/53ccee57-92ec-4ce8-81c4-688dcfcc30e3",
    "resource": {
      "resourceType": "Immunization",
      "id": "53ccee57-92ec-4ce8-81c4-688dcfcc30e3",
      "meta": {
        "profile": [ "http://hl7.org/fhir/us/qicore/StructureDefinition/qicore-immunization" ]
      },
      "status": "completed",
      "vaccineCode": {
        "coding": [ {
          "system": "http://hl7.org/fhir/sid/cvx",
          "code": "49",
          "display": "Haemophilus influenzae type b vaccine, PRP-OMP conjugate"
        } ]
      },
      "patient": {
        "reference": "Patient/8a6a1b3e-8145-4043-9a8c-b50603ef0269"
      },
      "occurrenceDateTime": "2025-01-02T00:00:00.000+00:00",
      "recorded": "2025-01-02T00:00:00.000+00:00",
      "primarySource": true
    },
    "request": {
      "method": "PUT",
      "url": "Immunization/53ccee57-92ec-4ce8-81c4-688dcfcc30e3"
    }
  }, {
    "fullUrl": "https://madie.cms.gov/Immunization/c5151588-d555-4d15-8bfc-f4a58353aa7f",
    "resource": {
      "resourceType": "Immunization",
      "id": "c5151588-d555-4d15-8bfc-f4a58353aa7f",
      "meta": {
        "profile": [ "http://hl7.org/fhir/us/qicore/StructureDefinition/qicore-immunization" ]
      },
      "status": "completed",
      "vaccineCode": {
        "coding": [ {
          "system": "http://hl7.org/fhir/sid/cvx",
          "code": "49",
          "display": "Haemophilus influenzae type b vaccine, PRP-OMP conjugate"
        } ]
      },
      "patient": {
        "reference": "Patient/8a6a1b3e-8145-4043-9a8c-b50603ef0269"
      },
      "occurrenceDateTime": "2025-01-02T00:00:00.000+00:00",
      "recorded": "2025-01-02T00:00:00.000+00:00",
      "primarySource": true
    },
    "request": {
      "method": "PUT",
      "url": "Immunization/c5151588-d555-4d15-8bfc-f4a58353aa7f"
    }
  }, {
    "fullUrl": "https://madie.cms.gov/Immunization/0f35e542-42d1-464d-aecb-1955eb20ef1d",
    "resource": {
      "resourceType": "Immunization",
      "id": "0f35e542-42d1-464d-aecb-1955eb20ef1d",
      "meta": {
        "profile": [ "http://hl7.org/fhir/us/qicore/StructureDefinition/qicore-immunization" ]
      },
      "status": "completed",
      "vaccineCode": {
        "coding": [ {
          "system": "http://hl7.org/fhir/sid/cvx",
          "code": "51",
          "display": "Haemophilus influenzae type b conjugate and Hepatitis B vaccine"
        } ]
      },
      "patient": {
        "reference": "Patient/8a6a1b3e-8145-4043-9a8c-b50603ef0269"
      },
      "occurrenceDateTime": "2025-01-02T00:00:00.000+00:00",
      "recorded": "2025-01-02T00:00:00.000+00:00",
      "primarySource": true
    },
    "request": {
      "method": "PUT",
      "url": "Immunization/0f35e542-42d1-464d-aecb-1955eb20ef1d"
    }
  }, {
    "fullUrl": "https://madie.cms.gov/Immunization/91cae91f-9ab5-4c86-a6dd-514887bd73c9",
    "resource": {
      "resourceType": "Immunization",
      "id": "91cae91f-9ab5-4c86-a6dd-514887bd73c9",
      "meta": {
        "profile": [ "http://hl7.org/fhir/us/qicore/StructureDefinition/qicore-immunization" ]
      },
      "status": "completed",
      "vaccineCode": {
        "coding": [ {
          "system": "http://hl7.org/fhir/sid/cvx",
          "code": "51",
          "display": "Haemophilus influenzae type b conjugate and Hepatitis B vaccine"
        } ]
      },
      "patient": {
        "reference": "Patient/8a6a1b3e-8145-4043-9a8c-b50603ef0269"
      },
      "occurrenceDateTime": "2025-01-10T00:00:00.000+00:00",
      "recorded": "2025-01-02T00:00:00.000+00:00",
      "primarySource": true
    },
    "request": {
      "method": "PUT",
      "url": "Immunization/91cae91f-9ab5-4c86-a6dd-514887bd73c9"
    }
  }, {
    "fullUrl": "https://madie.cms.gov/Immunization/ac217123-a40c-4861-a184-70db78d302c8",
    "resource": {
      "resourceType": "Immunization",
      "id": "ac217123-a40c-4861-a184-70db78d302c8",
      "meta": {
        "profile": [ "http://hl7.org/fhir/us/qicore/StructureDefinition/qicore-immunization" ]
      },
      "status": "completed",
      "vaccineCode": {
        "coding": [ {
          "system": "http://hl7.org/fhir/sid/cvx",
          "code": "51",
          "display": "Haemophilus influenzae type b conjugate and Hepatitis B vaccine"
        } ]
      },
      "patient": {
        "reference": "Patient/8a6a1b3e-8145-4043-9a8c-b50603ef0269"
      },
      "occurrenceDateTime": "2025-01-12T00:00:00.000+00:00",
      "recorded": "2025-01-02T00:00:00.000+00:00",
      "primarySource": true
    },
    "request": {
      "method": "PUT",
      "url": "Immunization/ac217123-a40c-4861-a184-70db78d302c8"
    }
  }, {
    "fullUrl": "https://madie.cms.gov/Immunization/e38c6763-e7da-48da-a7e4-907389230f15",
    "resource": {
      "resourceType": "Immunization",
      "id": "e38c6763-e7da-48da-a7e4-907389230f15",
      "meta": {
        "profile": [ "http://hl7.org/fhir/us/qicore/StructureDefinition/qicore-immunization" ]
      },
      "status": "completed",
      "vaccineCode": {
        "coding": [ {
          "system": "http://hl7.org/fhir/sid/cvx",
          "code": "94",
          "display": "measles, mumps, rubella, and varicella virus vaccine"
        } ]
      },
      "patient": {
        "reference": "Patient/8a6a1b3e-8145-4043-9a8c-b50603ef0269"
      },
      "occurrenceDateTime": "2025-01-02T00:00:00.000+00:00",
      "recorded": "2025-01-02T00:00:00.000+00:00",
      "primarySource": true
    },
    "request": {
      "method": "PUT",
      "url": "Immunization/e38c6763-e7da-48da-a7e4-907389230f15"
    }
  }, {
    "fullUrl": "https://madie.cms.gov/Immunization/0398ec2c-9df7-496b-8d52-354412bfb3de",
    "resource": {
      "resourceType": "Immunization",
      "id": "0398ec2c-9df7-496b-8d52-354412bfb3de",
      "meta": {
        "profile": [ "http://hl7.org/fhir/us/qicore/StructureDefinition/qicore-immunization" ]
      },
      "status": "completed",
      "vaccineCode": {
        "coding": [ {
          "system": "http://hl7.org/fhir/sid/cvx",
          "code": "215",
          "display": "Pneumococcal conjugate vaccine 15-valent (PCV15), polysaccharide CRM197 conjugate, adjuvant, preservative free"
        } ]
      },
      "patient": {
        "reference": "Patient/8a6a1b3e-8145-4043-9a8c-b50603ef0269"
      },
      "occurrenceDateTime": "2025-01-12T00:00:00.000+00:00",
      "recorded": "2025-01-02T00:00:00.000+00:00",
      "primarySource": true
    },
    "request": {
      "method": "PUT",
      "url": "Immunization/0398ec2c-9df7-496b-8d52-354412bfb3de"
    }
  }, {
    "fullUrl": "https://madie.cms.gov/Immunization/f64f6dec-c559-4c1a-9802-dcb4b458fa34",
    "resource": {
      "resourceType": "Immunization",
      "id": "f64f6dec-c559-4c1a-9802-dcb4b458fa34",
      "meta": {
        "profile": [ "http://hl7.org/fhir/us/qicore/StructureDefinition/qicore-immunization" ]
      },
      "status": "completed",
      "vaccineCode": {
        "coding": [ {
          "system": "http://hl7.org/fhir/sid/cvx",
          "code": "215",
          "display": "Pneumococcal conjugate vaccine 15-valent (PCV15), polysaccharide CRM197 conjugate, adjuvant, preservative free"
        } ]
      },
      "patient": {
        "reference": "Patient/8a6a1b3e-8145-4043-9a8c-b50603ef0269"
      },
      "occurrenceDateTime": "2025-01-14T00:00:00.000+00:00",
      "recorded": "2025-01-02T00:00:00.000+00:00",
      "primarySource": true
    },
    "request": {
      "method": "PUT",
      "url": "Immunization/f64f6dec-c559-4c1a-9802-dcb4b458fa34"
    }
  }, {
    "fullUrl": "https://madie.cms.gov/Immunization/503f704c-bbb5-498b-8b69-37c2fd116161",
    "resource": {
      "resourceType": "Immunization",
      "id": "503f704c-bbb5-498b-8b69-37c2fd116161",
      "meta": {
        "profile": [ "http://hl7.org/fhir/us/qicore/StructureDefinition/qicore-immunization" ]
      },
      "status": "completed",
      "vaccineCode": {
        "coding": [ {
          "system": "http://hl7.org/fhir/sid/cvx",
          "code": "215",
          "display": "Pneumococcal conjugate vaccine 15-valent (PCV15), polysaccharide CRM197 conjugate, adjuvant, preservative free"
        } ]
      },
      "patient": {
        "reference": "Patient/8a6a1b3e-8145-4043-9a8c-b50603ef0269"
      },
      "occurrenceDateTime": "2025-01-20T00:00:00.000+00:00",
      "recorded": "2025-01-02T00:00:00.000+00:00",
      "primarySource": true
    },
    "request": {
      "method": "PUT",
      "url": "Immunization/503f704c-bbb5-498b-8b69-37c2fd116161"
    }
  }, {
    "fullUrl": "https://madie.cms.gov/Immunization/cb324a51-b02e-4261-8d92-46aeea91aad4",
    "resource": {
      "resourceType": "Immunization",
      "id": "cb324a51-b02e-4261-8d92-46aeea91aad4",
      "meta": {
        "profile": [ "http://hl7.org/fhir/us/qicore/StructureDefinition/qicore-immunization" ]
      },
      "status": "completed",
      "vaccineCode": {
        "coding": [ {
          "system": "http://hl7.org/fhir/sid/cvx",
          "code": "215",
          "display": "Pneumococcal conjugate vaccine 15-valent (PCV15), polysaccharide CRM197 conjugate, adjuvant, preservative free"
        } ]
      },
      "patient": {
        "reference": "Patient/8a6a1b3e-8145-4043-9a8c-b50603ef0269"
      },
      "occurrenceDateTime": "2025-01-22T00:00:00.000+00:00",
      "recorded": "2025-01-02T00:00:00.000+00:00",
      "primarySource": true
    },
    "request": {
      "method": "PUT",
      "url": "Immunization/cb324a51-b02e-4261-8d92-46aeea91aad4"
    }
  }, {
    "fullUrl": "https://madie.cms.gov/Immunization/85ba02c2-05cd-412b-8d09-729eddaf662e",
    "resource": {
      "resourceType": "Immunization",
      "id": "85ba02c2-05cd-412b-8d09-729eddaf662e",
      "meta": {
        "profile": [ "http://hl7.org/fhir/us/qicore/StructureDefinition/qicore-immunization" ]
      },
      "status": "completed",
      "vaccineCode": {
        "coding": [ {
          "system": "http://hl7.org/fhir/sid/cvx",
          "code": "85",
          "display": "hepatitis A vaccine, unspecified formulation"
        } ]
      },
      "patient": {
        "reference": "Patient/8a6a1b3e-8145-4043-9a8c-b50603ef0269"
      },
      "occurrenceDateTime": "2025-01-02T00:00:00.000+00:00",
      "recorded": "2025-01-02T00:00:00.000+00:00",
      "primarySource": true
    },
    "request": {
      "method": "PUT",
      "url": "Immunization/85ba02c2-05cd-412b-8d09-729eddaf662e"
    }
  }, {
    "fullUrl": "https://madie.cms.gov/Immunization/4841d5ae-68ac-428d-beaf-577642fe108f",
    "resource": {
      "resourceType": "Immunization",
      "id": "4841d5ae-68ac-428d-beaf-577642fe108f",
      "meta": {
        "profile": [ "http://hl7.org/fhir/us/qicore/StructureDefinition/qicore-immunization" ]
      },
      "status": "completed",
      "vaccineCode": {
        "coding": [ {
          "system": "http://hl7.org/fhir/sid/cvx",
          "code": "119",
          "display": "rotavirus, live, monovalent vaccine"
        } ]
      },
      "patient": {
        "reference": "Patient/8a6a1b3e-8145-4043-9a8c-b50603ef0269"
      },
      "occurrenceDateTime": "2025-01-02T00:00:00.000+00:00",
      "recorded": "2025-01-02T00:00:00.000+00:00",
      "primarySource": true
    },
    "request": {
      "method": "PUT",
      "url": "Immunization/4841d5ae-68ac-428d-beaf-577642fe108f"
    }
  }, {
    "fullUrl": "https://madie.cms.gov/Immunization/e6d7b125-f142-453a-a9cb-2fa49cf3de29",
    "resource": {
      "resourceType": "Immunization",
      "id": "e6d7b125-f142-453a-a9cb-2fa49cf3de29",
      "meta": {
        "profile": [ "http://hl7.org/fhir/us/qicore/StructureDefinition/qicore-immunization" ]
      },
      "status": "completed",
      "vaccineCode": {
        "coding": [ {
          "system": "http://hl7.org/fhir/sid/cvx",
          "code": "119",
          "display": "rotavirus, live, monovalent vaccine"
        } ]
      },
      "patient": {
        "reference": "Patient/8a6a1b3e-8145-4043-9a8c-b50603ef0269"
      },
      "occurrenceDateTime": "2025-01-07T00:00:00.000+00:00",
      "recorded": "2025-01-02T00:00:00.000+00:00",
      "primarySource": true
    },
    "request": {
      "method": "PUT",
      "url": "Immunization/e6d7b125-f142-453a-a9cb-2fa49cf3de29"
    }
  }, {
    "fullUrl": "https://madie.cms.gov/Immunization/ef88a016-f9b2-4c8b-a90b-290105423251",
    "resource": {
      "resourceType": "Immunization",
      "id": "ef88a016-f9b2-4c8b-a90b-290105423251",
      "meta": {
        "profile": [ "http://hl7.org/fhir/us/qicore/StructureDefinition/qicore-immunization" ]
      },
      "status": "completed",
      "vaccineCode": {
        "coding": [ {
          "system": "http://hl7.org/fhir/sid/cvx",
          "code": "153",
          "display": "Influenza, injectable, MDCK, preservative free"
        } ]
      },
      "patient": {
        "reference": "Patient/8a6a1b3e-8145-4043-9a8c-b50603ef0269"
      },
      "occurrenceDateTime": "2025-01-02T00:00:00.000+00:00",
      "recorded": "2025-01-02T00:00:00.000+00:00",
      "primarySource": true
    },
    "request": {
      "method": "PUT",
      "url": "Immunization/ef88a016-f9b2-4c8b-a90b-290105423251"
    }
  }, {
    "fullUrl": "https://madie.cms.gov/Immunization/3ce43b4f-d1df-4d65-982c-308b5484f0bd",
    "resource": {
      "resourceType": "Immunization",
      "id": "3ce43b4f-d1df-4d65-982c-308b5484f0bd",
      "meta": {
        "profile": [ "http://hl7.org/fhir/us/qicore/StructureDefinition/qicore-immunization" ]
      },
      "status": "completed",
      "vaccineCode": {
        "coding": [ {
          "system": "http://hl7.org/fhir/sid/cvx",
          "code": "153",
          "display": "Influenza, injectable, MDCK, preservative free"
        } ]
      },
      "patient": {
        "reference": "Patient/8a6a1b3e-8145-4043-9a8c-b50603ef0269"
      },
      "occurrenceDateTime": "2025-01-10T00:00:00.000+00:00",
      "recorded": "2025-01-02T00:00:00.000+00:00",
      "primarySource": true
    },
    "request": {
      "method": "PUT",
      "url": "Immunization/3ce43b4f-d1df-4d65-982c-308b5484f0bd"
    }
  }, {
    "fullUrl": "https://madie.cms.gov/MeasureReport/495e2b97-0f1c-47db-b7b6-54016007573e",
    "resource": {
      "resourceType": "MeasureReport",
      "id": "495e2b97-0f1c-47db-b7b6-54016007573e",
      "meta": {
        "profile": [ "http://hl7.org/fhir/us/cqfmeasures/StructureDefinition/test-case-cqfm" ]
      },
      "contained": [ {
        "resourceType": "Parameters",
        "id": "43b5426a-e622-4bbe-afba-c9c69a2f3466-parameters",
        "parameter": [ {
          "name": "subject",
          "valueString": "8a6a1b3e-8145-4043-9a8c-b50603ef0269"
        } ]
      } ],
      "extension": [ {
        "url": "http://hl7.org/fhir/StructureDefinition/cqf-inputParameters",
        "valueReference": {
          "reference": "#43b5426a-e622-4bbe-afba-c9c69a2f3466-parameters"
        }
      }, {
        "url": "http://hl7.org/fhir/us/cqfmeasures/StructureDefinition/cqfm-testCaseDescription",
        "valueMarkdown": "Patient has severe combined immunodeficiency. Testing the condition encounter diagnosis profile to meet 100% coverage."
      } ],
      "modifierExtension": [ {
        "url": "http://hl7.org/fhir/us/cqfmeasures/StructureDefinition/cqfm-isTestCase",
        "valueBoolean": true
      } ],
      "status": "complete",
      "type": "individual",
      "measure": "https://madie.cms.gov/Measure/CMS117FHIRChildImmunStatus",
      "period": {
        "start": "2026-01-01",
        "end": "2026-12-31"
      },
      "group": [ {
        "id": "Group_1",
        "population": [ {
          "id": "InitialPopulation_1",
          "code": {
            "coding": [ {
              "system": "http://terminology.hl7.org/CodeSystem/measure-population",
              "code": "initial-population",
              "display": "Initial Population"
            } ]
          },
          "count": 1
        }, {
          "id": "Denominator_1",
          "code": {
            "coding": [ {
              "system": "http://terminology.hl7.org/CodeSystem/measure-population",
              "code": "denominator",
              "display": "Denominator"
            } ]
          },
          "count": 1
        }, {
          "id": "DenominatorExclusion_1",
          "code": {
            "coding": [ {
              "system": "http://terminology.hl7.org/CodeSystem/measure-population",
              "code": "denominator-exclusion",
              "display": "Denominator Exclusion"
            } ]
          },
          "count": 1
        }, {
          "id": "Numerator_1",
          "code": {
            "coding": [ {
              "system": "http://terminology.hl7.org/CodeSystem/measure-population",
              "code": "numerator",
              "display": "Numerator"
            } ]
          },
          "count": 0
        } ],
        "measureScore": {
          "value": 1.0
        }
      } ],
      "evaluatedResource": [ {
        "reference": "Patient/8a6a1b3e-8145-4043-9a8c-b50603ef0269"
      }, {
        "reference": "Encounter/a9485766-088e-4d31-a20d-9131745e7a81"
      }, {
        "reference": "Condition/8762b041-862a-489b-96ca-d7e58fb8dbf8"
      }, {
        "reference": "Immunization/945ea186-5ed9-4a24-8c5f-d0497df06914"
      }, {
        "reference": "Immunization/fa20e751-90c2-4ef8-aff5-b7a112aeca98"
      }, {
        "reference": "Immunization/fa81dfab-f40f-435b-bbc2-cd5f47c435ac"
      }, {
        "reference": "Immunization/3d963ffb-e99b-45ee-b8ef-97264b27a9f9"
      }, {
        "reference": "Immunization/a81c68c2-d00c-4e91-9aeb-38c3fa0e3fad"
      }, {
        "reference": "Immunization/1c81533d-3c70-4b5f-8a71-0f273b6ef0e4"
      }, {
        "reference": "Immunization/f6a3df22-b6ed-42c0-bb0a-03ab96074914"
      }, {
        "reference": "Immunization/ca9963d5-6eed-403e-8d2d-0f1b6763ef05"
      }, {
        "reference": "Immunization/d083e23d-9527-40e0-8709-224296f87b56"
      }, {
        "reference": "Immunization/53ccee57-92ec-4ce8-81c4-688dcfcc30e3"
      }, {
        "reference": "Immunization/c5151588-d555-4d15-8bfc-f4a58353aa7f"
      }, {
        "reference": "Immunization/0f35e542-42d1-464d-aecb-1955eb20ef1d"
      }, {
        "reference": "Immunization/91cae91f-9ab5-4c86-a6dd-514887bd73c9"
      }, {
        "reference": "Immunization/ac217123-a40c-4861-a184-70db78d302c8"
      }, {
        "reference": "Immunization/e38c6763-e7da-48da-a7e4-907389230f15"
      }, {
        "reference": "Immunization/0398ec2c-9df7-496b-8d52-354412bfb3de"
      }, {
        "reference": "Immunization/f64f6dec-c559-4c1a-9802-dcb4b458fa34"
      }, {
        "reference": "Immunization/503f704c-bbb5-498b-8b69-37c2fd116161"
      }, {
        "reference": "Immunization/cb324a51-b02e-4261-8d92-46aeea91aad4"
      }, {
        "reference": "Immunization/85ba02c2-05cd-412b-8d09-729eddaf662e"
      }, {
        "reference": "Immunization/4841d5ae-68ac-428d-beaf-577642fe108f"
      }, {
        "reference": "Immunization/e6d7b125-f142-453a-a9cb-2fa49cf3de29"
      }, {
        "reference": "Immunization/ef88a016-f9b2-4c8b-a90b-290105423251"
      }, {
        "reference": "Immunization/3ce43b4f-d1df-4d65-982c-308b5484f0bd"
      } ]
    },
    "request": {
      "method": "PUT",
      "url": "MeasureReport/495e2b97-0f1c-47db-b7b6-54016007573e"
    }
  } ]
}