{
  "resourceType": "Bundle",
  "id": "63487c300968f801225401ce",
  "type": "transaction",
  "entry": [ {
    "fullUrl": "https://madie.cms.gov/Patient/c24efa29-0d0b-42d0-b07e-3c0ed4fcc873",
    "resource": {
      "resourceType": "Patient",
      "id": "c24efa29-0d0b-42d0-b07e-3c0ed4fcc873",
      "meta": {
        "profile": [ "http://hl7.org/fhir/us/qicore/StructureDefinition/qicore-patient" ]
      },
      "text": {
        "status": "generated",
        "div": "<div xmlns=\"http://www.w3.org/1999/xhtml\"><div class=\"hapiHeaderText\">AssessPerfAbnPresRelvtPeriodB4TimeOfDelivDuringEnc<b>DENEXPASS</b></div><table class=\"hapiPropertyTable\"><tbody><tr><td>Identifier</td><td>db09244543fe550232b604cb7d87decbeb851047882e641e3fe736fdce398a0a</td></tr><tr><td>Date of birth</td><td><span>14 February 1985</span></td></tr></tbody></table></div>"
      },
      "extension": [ {
        "url": "http://hl7.org/fhir/us/core/StructureDefinition/us-core-race",
        "extension": [ {
          "url": "ombCategory",
          "valueCoding": {
            "system": "urn:oid:2.16.840.1.113883.6.238",
            "code": "1002-5",
            "display": "American Indian or Alaska Native",
            "userSelected": true
          }
        }, {
          "url": "text",
          "valueString": "American Indian or Alaska Native"
        } ]
      }, {
        "url": "http://hl7.org/fhir/us/core/StructureDefinition/us-core-ethnicity",
        "extension": [ {
          "url": "ombCategory",
          "valueCoding": {
            "system": "urn:oid:2.16.840.1.113883.6.238",
            "code": "2135-2",
            "display": "Hispanic or Latino",
            "userSelected": true
          }
        }, {
          "url": "text",
          "valueString": "Hispanic or Latino"
        } ]
      } ],
      "identifier": [ {
        "type": {
          "coding": [ {
            "system": "http://terminology.hl7.org/CodeSystem/v2-0203",
            "code": "MR"
          } ]
        },
        "system": "https://bonnie-fhir.healthit.gov/",
        "value": "63487c300968f801225401ce"
      } ],
      "active": true,
      "name": [ {
        "use": "usual",
        "family": "DENEXPass",
        "given": [ "AssessPerfAbnPresRelvtPeriodB4TimeOfDelivDuringEnc" ]
      } ],
      "gender": "female",
      "birthDate": "1998-02-14"
    },
    "request": {
      "method": "PUT",
      "url": "Patient/c24efa29-0d0b-42d0-b07e-3c0ed4fcc873"
    }
  }, {
    "fullUrl": "https://madie.cms.gov/Observation/b277ab40-57d2-4796-a186-57bec01bf16c",
    "resource": {
      "resourceType": "Observation",
      "id": "b277ab40-57d2-4796-a186-57bec01bf16c",
      "meta": {
        "profile": [ "http://hl7.org/fhir/us/qicore/StructureDefinition/qicore-simple-observation" ]
      },
      "status": "final",
      "category": [ {
        "coding": [ {
          "system": "http://terminology.hl7.org/CodeSystem/observation-category",
          "code": "exam",
          "display": "exam",
          "userSelected": true
        } ]
      } ],
      "code": {
        "coding": [ {
          "system": "http://loinc.org",
          "code": "11996-6"
        } ]
      },
      "subject": {
        "reference": "Patient/c24efa29-0d0b-42d0-b07e-3c0ed4fcc873"
      },
      "effectiveDateTime": "2026-06-08T08:00:00.000+00:00",
      "performer": [ {
        "reference": "Organization/example1",
        "display": "Hendricks Country Hospital"
      } ],
      "valueInteger": 1
    },
    "request": {
      "method": "PUT",
      "url": "Observation/b277ab40-57d2-4796-a186-57bec01bf16c"
    }
  }, {
    "fullUrl": "https://madie.cms.gov/Observation/5d737947-db1c-472b-836e-6f31d27f078e",
    "resource": {
      "resourceType": "Observation",
      "id": "5d737947-db1c-472b-836e-6f31d27f078e",
      "meta": {
        "profile": [ "http://hl7.org/fhir/us/qicore/StructureDefinition/qicore-simple-observation" ]
      },
      "status": "final",
      "category": [ {
        "coding": [ {
          "system": "http://terminology.hl7.org/CodeSystem/observation-category",
          "code": "exam",
          "display": "exam",
          "userSelected": true
        } ]
      } ],
      "code": {
        "coding": [ {
          "system": "http://loinc.org",
          "code": "11884-4"
        } ]
      },
      "subject": {
        "reference": "Patient/c24efa29-0d0b-42d0-b07e-3c0ed4fcc873"
      },
      "effectiveDateTime": "2026-06-08T08:00:00.000+00:00",
      "performer": [ {
        "reference": "Organization/example1",
        "display": "Hendricks Country Hospital"
      } ],
      "valueQuantity": {
        "value": 43,
        "system": "http://unitsofmeasure.org",
        "code": "wk"
      }
    },
    "request": {
      "method": "PUT",
      "url": "Observation/5d737947-db1c-472b-836e-6f31d27f078e"
    }
  }, {
    "fullUrl": "https://madie.cms.gov/Observation/5bdee9a3-9f71-46ae-99ee-4f142ca00799",
    "resource": {
      "resourceType": "Observation",
      "id": "5bdee9a3-9f71-46ae-99ee-4f142ca00799",
      "meta": {
        "profile": [ "http://hl7.org/fhir/us/qicore/StructureDefinition/qicore-simple-observation" ]
      },
      "status": "final",
      "category": [ {
        "coding": [ {
          "system": "http://terminology.hl7.org/CodeSystem/observation-category",
          "code": "exam",
          "display": "exam",
          "userSelected": true
        } ]
      } ],
      "code": {
        "coding": [ {
          "system": "http://loinc.org",
          "code": "93857-1"
        } ]
      },
      "subject": {
        "reference": "Patient/c24efa29-0d0b-42d0-b07e-3c0ed4fcc873"
      },
      "effectiveDateTime": "2026-06-08T20:30:00.000+00:00",
      "performer": [ {
        "reference": "Organization/example1",
        "display": "Hendricks Country Hospital"
      } ],
      "valueDateTime": "2026-06-08T08:30:00.000+00:00"
    },
    "request": {
      "method": "PUT",
      "url": "Observation/5bdee9a3-9f71-46ae-99ee-4f142ca00799"
    }
  }, {
    "fullUrl": "https://madie.cms.gov/Observation/070c98d9-d190-4f31-97a5-790c21990bb2",
    "resource": {
      "resourceType": "Observation",
      "id": "070c98d9-d190-4f31-97a5-790c21990bb2",
      "meta": {
        "profile": [ "http://hl7.org/fhir/us/qicore/StructureDefinition/qicore-simple-observation" ]
      },
      "status": "final",
      "category": [ {
        "coding": [ {
          "system": "http://terminology.hl7.org/CodeSystem/observation-category",
          "code": "exam",
          "display": "exam",
          "userSelected": true
        } ]
      } ],
      "code": {
        "coding": [ {
          "system": "http://snomed.info/sct",
          "code": "18559007"
        } ]
      },
      "subject": {
        "reference": "Patient/c24efa29-0d0b-42d0-b07e-3c0ed4fcc873"
      },
      "effectiveDateTime": "2026-06-08T08:29:00.000+00:00",
      "performer": [ {
        "reference": "Organization/example1",
        "display": "Hendricks Country Hospital"
      } ]
    },
    "request": {
      "method": "PUT",
      "url": "Observation/070c98d9-d190-4f31-97a5-790c21990bb2"
    }
  }, {
    "fullUrl": "https://madie.cms.gov/Encounter/f1a3da1a-c685-46c4-9e1e-952cb846b495",
    "resource": {
      "resourceType": "Encounter",
      "id": "f1a3da1a-c685-46c4-9e1e-952cb846b495",
      "meta": {
        "profile": [ "http://hl7.org/fhir/us/qicore/StructureDefinition/qicore-encounter" ]
      },
      "status": "finished",
      "class": {
        "system": "http://terminology.hl7.org/CodeSystem/v3-ActCode",
        "code": "IMP",
        "display": "inpatient encounter"
      },
      "type": [ {
        "coding": [ {
          "system": "http://snomed.info/sct",
          "code": "8715000"
        } ]
      } ],
      "subject": {
        "reference": "Patient/c24efa29-0d0b-42d0-b07e-3c0ed4fcc873"
      },
      "period": {
        "start": "2026-06-08T08:00:00.000+00:00",
        "end": "2026-06-10T08:15:00.000+00:00"
      },
      "reasonReference": [ {
        "reference": "Condition/30b9d6bb-dd74-4c9a-b4ce-9f060150cded"
      } ]
    },
    "request": {
      "method": "PUT",
      "url": "Encounter/f1a3da1a-c685-46c4-9e1e-952cb846b495"
    }
  }, {
    "fullUrl": "https://madie.cms.gov/Procedure/a6be7341-fadd-4426-b18d-dad99c5b0bb8",
    "resource": {
      "resourceType": "Procedure",
      "id": "a6be7341-fadd-4426-b18d-dad99c5b0bb8",
      "meta": {
        "profile": [ "http://hl7.org/fhir/us/qicore/StructureDefinition/qicore-procedure" ]
      },
      "extension": [ {
        "url": "http://hl7.org/fhir/us/qicore/StructureDefinition/qicore-recorded",
        "valueDateTime": "2014-04-05T13:35:00.000+00:00"
      } ],
      "status": "completed",
      "code": {
        "coding": [ {
          "system": "http://snomed.info/sct",
          "code": "4504004"
        } ]
      },
      "subject": {
        "reference": "Patient/c24efa29-0d0b-42d0-b07e-3c0ed4fcc873"
      },
      "performedPeriod": {
        "start": "2026-06-08T20:00:00.000+00:00",
        "end": "2026-06-18T20:00:00.000+00:00"
      }
    },
    "request": {
      "method": "PUT",
      "url": "Procedure/a6be7341-fadd-4426-b18d-dad99c5b0bb8"
    }
  }, {
    "fullUrl": "https://madie.cms.gov/Condition/30b9d6bb-dd74-4c9a-b4ce-9f060150cded",
    "resource": {
      "resourceType": "Condition",
      "id": "30b9d6bb-dd74-4c9a-b4ce-9f060150cded",
      "meta": {
        "profile": [ "http://hl7.org/fhir/us/qicore/StructureDefinition/qicore-condition-encounter-diagnosis" ]
      },
      "category": [ {
        "coding": [ {
          "system": "http://terminology.hl7.org/CodeSystem/condition-category",
          "code": "encounter-diagnosis",
          "display": "Encounter Diagnosis"
        } ]
      } ],
      "code": {
        "coding": [ {
          "system": "http://snomed.info/sct",
          "version": "2022-09",
          "code": "169826009",
          "display": "Single live birth (finding)",
          "userSelected": true
        } ]
      },
      "subject": {
        "reference": "Patient/c24efa29-0d0b-42d0-b07e-3c0ed4fcc873"
      },
      "encounter": {
        "reference": "Encounter/f1a3da1a-c685-46c4-9e1e-952cb846b495"
      },
      "recordedDate": "2026-10-17T08:00:00.000+00:00"
    },
    "request": {
      "method": "PUT",
      "url": "Condition/30b9d6bb-dd74-4c9a-b4ce-9f060150cded"
    }
  }, {
    "fullUrl": "https://madie.cms.gov/Coverage/91f726be-14f2-4007-8587-5ce7e2770c0f",
    "resource": {
      "resourceType": "Coverage",
      "id": "91f726be-14f2-4007-8587-5ce7e2770c0f",
      "meta": {
        "profile": [ "http://hl7.org/fhir/us/qicore/StructureDefinition/qicore-coverage" ]
      },
      "status": "active",
      "subscriberId": "523435",
      "beneficiary": {
        "reference": "Patient/c24efa29-0d0b-42d0-b07e-3c0ed4fcc873"
      },
      "relationship": {
        "coding": [ {
          "system": "http://terminology.hl7.org/CodeSystem/subscriber-relationship",
          "code": "self"
        } ]
      },
      "payor": [ {
        "reference": "Organization/566af8e1-8791-4cac-8cd7-3f058fe45e21"
      } ]
    },
    "request": {
      "method": "PUT",
      "url": "Coverage/91f726be-14f2-4007-8587-5ce7e2770c0f"
    }
  }, {
    "fullUrl": "https://madie.cms.gov/Organization/566af8e1-8791-4cac-8cd7-3f058fe45e21",
    "resource": {
      "resourceType": "Organization",
      "id": "566af8e1-8791-4cac-8cd7-3f058fe45e21",
      "meta": {
        "profile": [ "http://hl7.org/fhir/us/qicore/StructureDefinition/qicore-organization" ]
      },
      "identifier": [ {
        "use": "temp",
        "system": "urn:oid:2.16.840.1.113883.4.4",
        "value": "21-3259825"
      } ],
      "active": true,
      "type": [ {
        "coding": [ {
          "system": "http://terminology.hl7.org/CodeSystem/organization-type",
          "code": "pay",
          "display": "Payer"
        } ]
      } ],
      "name": "Blue Cross Blue Shield of Texas",
      "telecom": [ {
        "system": "phone",
        "value": "(+1) 972-766-6900"
      } ],
      "address": [ {
        "use": "billing",
        "type": "postal",
        "line": [ "P.O. Box 660044" ],
        "city": "Dallas",
        "state": "TX",
        "postalCode": "75266-0044",
        "country": "USA"
      } ]
    },
    "request": {
      "method": "PUT",
      "url": "Organization/566af8e1-8791-4cac-8cd7-3f058fe45e21"
    }
  }, {
    "fullUrl": "https://madie.cms.gov/Practitioner/171d6ca5-0cca-4195-ac26-2dcdd76a1dd3",
    "resource": {
      "resourceType": "Practitioner",
      "id": "171d6ca5-0cca-4195-ac26-2dcdd76a1dd3",
      "meta": {
        "profile": [ "http://hl7.org/fhir/us/qicore/StructureDefinition/qicore-practitioner" ]
      },
      "identifier": [ {
        "system": "http://hl7.org/fhir/sid/us-npi",
        "value": "1234567890"
      } ],
      "name": [ {
        "family": "Evil",
        "prefix": [ "Dr" ]
      } ]
    },
    "request": {
      "method": "PUT",
      "url": "Practitioner/171d6ca5-0cca-4195-ac26-2dcdd76a1dd3"
    }
  }, {
    "fullUrl": "https://madie.cms.gov/MeasureReport/1e77d017-ebbe-45d9-8007-e6b0388c1763",
    "resource": {
      "resourceType": "MeasureReport",
      "id": "1e77d017-ebbe-45d9-8007-e6b0388c1763",
      "meta": {
        "profile": [ "http://hl7.org/fhir/us/cqfmeasures/StructureDefinition/test-case-cqfm" ]
      },
      "contained": [ {
        "resourceType": "Parameters",
        "id": "90f163b8-a9a7-46c8-9184-81a876686b48-parameters",
        "parameter": [ {
          "name": "subject",
          "valueString": "c24efa29-0d0b-42d0-b07e-3c0ed4fcc873"
        } ]
      } ],
      "extension": [ {
        "url": "http://hl7.org/fhir/StructureDefinition/cqf-inputParameters",
        "valueReference": {
          "reference": "#90f163b8-a9a7-46c8-9184-81a876686b48-parameters"
        }
      }, {
        "url": "http://hl7.org/fhir/us/cqfmeasures/StructureDefinition/cqfm-testCaseDescription",
        "valueMarkdown": "EGA 43 weeks; Assessment performed Abnormal presentation relevant Period  before time of delivery and during Enc \n"
      } ],
      "modifierExtension": [ {
        "url": "http://hl7.org/fhir/us/cqfmeasures/StructureDefinition/cqfm-isTestCase",
        "valueBoolean": true
      } ],
      "status": "complete",
      "type": "individual",
      "measure": "https://madie.cms.gov/Measure/CMS0334FHIRPCCesareanBirth",
      "period": {
        "start": "2026-01-01",
        "end": "2026-12-31"
      },
      "group": [ {
        "id": "Group_1",
        "population": [ {
          "id": "InitialPopulation_1",
          "code": {
            "coding": [ {
              "system": "http://terminology.hl7.org/CodeSystem/measure-population",
              "code": "initial-population",
              "display": "Initial Population"
            } ]
          },
          "count": 1
        }, {
          "id": "Denominator_1",
          "code": {
            "coding": [ {
              "system": "http://terminology.hl7.org/CodeSystem/measure-population",
              "code": "denominator",
              "display": "Denominator"
            } ]
          },
          "count": 1
        }, {
          "id": "DenominatorExclusion_1",
          "code": {
            "coding": [ {
              "system": "http://terminology.hl7.org/CodeSystem/measure-population",
              "code": "denominator-exclusion",
              "display": "Denominator Exclusion"
            } ]
          },
          "count": 1
        }, {
          "id": "Numerator_1",
          "code": {
            "coding": [ {
              "system": "http://terminology.hl7.org/CodeSystem/measure-population",
              "code": "numerator",
              "display": "Numerator"
            } ]
          },
          "count": 0
        } ],
        "measureScore": {
          "value": 0.0
        }
      } ],
      "evaluatedResource": [ {
        "reference": "Patient/c24efa29-0d0b-42d0-b07e-3c0ed4fcc873"
      }, {
        "reference": "Observation/b277ab40-57d2-4796-a186-57bec01bf16c"
      }, {
        "reference": "Observation/5d737947-db1c-472b-836e-6f31d27f078e"
      }, {
        "reference": "Observation/5bdee9a3-9f71-46ae-99ee-4f142ca00799"
      }, {
        "reference": "Observation/070c98d9-d190-4f31-97a5-790c21990bb2"
      }, {
        "reference": "Encounter/f1a3da1a-c685-46c4-9e1e-952cb846b495"
      }, {
        "reference": "Procedure/a6be7341-fadd-4426-b18d-dad99c5b0bb8"
      }, {
        "reference": "Condition/30b9d6bb-dd74-4c9a-b4ce-9f060150cded"
      }, {
        "reference": "Coverage/91f726be-14f2-4007-8587-5ce7e2770c0f"
      }, {
        "reference": "Organization/566af8e1-8791-4cac-8cd7-3f058fe45e21"
      }, {
        "reference": "Practitioner/171d6ca5-0cca-4195-ac26-2dcdd76a1dd3"
      } ]
    },
    "request": {
      "method": "PUT",
      "url": "MeasureReport/1e77d017-ebbe-45d9-8007-e6b0388c1763"
    }
  } ]
}