{
  "resourceType": "Bundle",
  "id": "63487c2e0968f80122540177",
  "type": "transaction",
  "entry": [ {
    "fullUrl": "https://madie.cms.gov/Patient/f2b2fe3f-ad3c-42ae-b262-73345ec66e07",
    "resource": {
      "resourceType": "Patient",
      "id": "f2b2fe3f-ad3c-42ae-b262-73345ec66e07",
      "meta": {
        "profile": [ "http://hl7.org/fhir/us/qicore/StructureDefinition/qicore-patient" ]
      },
      "text": {
        "status": "generated",
        "div": "<div xmlns=\"http://www.w3.org/1999/xhtml\"><div class=\"hapiHeaderText\">ParityIsNull<b>DENOMFail</b></div><table class=\"hapiPropertyTable\"><tbody><tr><td>Identifier</td><td>6ececc78b054b42e74f2c884abc3eae32b6222330de6218ca3ca8a067bf56447</td></tr><tr><td>Date of birth</td><td><span>14 February 1985</span></td></tr></tbody></table></div>"
      },
      "extension": [ {
        "url": "http://hl7.org/fhir/us/core/StructureDefinition/us-core-race",
        "extension": [ {
          "url": "ombCategory",
          "valueCoding": {
            "system": "urn:oid:2.16.840.1.113883.6.238",
            "code": "1002-5",
            "display": "American Indian or Alaska Native",
            "userSelected": true
          }
        }, {
          "url": "text",
          "valueString": "American Indian or Alaska Native"
        } ]
      }, {
        "url": "http://hl7.org/fhir/us/core/StructureDefinition/us-core-ethnicity",
        "extension": [ {
          "url": "ombCategory",
          "valueCoding": {
            "system": "urn:oid:2.16.840.1.113883.6.238",
            "code": "2135-2",
            "display": "Hispanic or Latino",
            "userSelected": true
          }
        }, {
          "url": "text",
          "valueString": "Hispanic or Latino"
        } ]
      } ],
      "identifier": [ {
        "type": {
          "coding": [ {
            "system": "http://terminology.hl7.org/CodeSystem/v2-0203",
            "code": "MR"
          } ]
        },
        "system": "https://bonnie-fhir.healthit.gov/",
        "value": "63487c2e0968f80122540177"
      } ],
      "active": true,
      "name": [ {
        "use": "usual",
        "family": "DENOMFail",
        "given": [ "ParityIsNull" ]
      } ],
      "gender": "female",
      "birthDate": "1998-02-14"
    },
    "request": {
      "method": "PUT",
      "url": "Patient/f2b2fe3f-ad3c-42ae-b262-73345ec66e07"
    }
  }, {
    "fullUrl": "https://madie.cms.gov/Observation/a6a8a0cb-0a17-402a-b0b7-873a395ed5fd",
    "resource": {
      "resourceType": "Observation",
      "id": "a6a8a0cb-0a17-402a-b0b7-873a395ed5fd",
      "meta": {
        "profile": [ "http://hl7.org/fhir/us/qicore/StructureDefinition/qicore-simple-observation" ]
      },
      "status": "final",
      "category": [ {
        "coding": [ {
          "system": "http://terminology.hl7.org/CodeSystem/observation-category",
          "code": "exam",
          "display": "exam",
          "userSelected": true
        } ]
      } ],
      "code": {
        "coding": [ {
          "system": "http://loinc.org",
          "code": "11977-6"
        } ]
      },
      "subject": {
        "reference": "Patient/f2b2fe3f-ad3c-42ae-b262-73345ec66e07"
      },
      "effectiveDateTime": "2026-03-08T09:00:00.000+00:00",
      "performer": [ {
        "reference": "Organization/example1",
        "display": "Hendricks Country Hospital"
      } ]
    },
    "request": {
      "method": "PUT",
      "url": "Observation/a6a8a0cb-0a17-402a-b0b7-873a395ed5fd"
    }
  }, {
    "fullUrl": "https://madie.cms.gov/Observation/25320f3b-4d16-465d-8355-1da7c3ba848a",
    "resource": {
      "resourceType": "Observation",
      "id": "25320f3b-4d16-465d-8355-1da7c3ba848a",
      "meta": {
        "profile": [ "http://hl7.org/fhir/us/qicore/StructureDefinition/qicore-simple-observation" ]
      },
      "status": "final",
      "category": [ {
        "coding": [ {
          "system": "http://terminology.hl7.org/CodeSystem/observation-category",
          "code": "exam",
          "display": "exam",
          "userSelected": true
        } ]
      } ],
      "code": {
        "coding": [ {
          "system": "http://loinc.org",
          "code": "11884-4"
        } ]
      },
      "subject": {
        "reference": "Patient/f2b2fe3f-ad3c-42ae-b262-73345ec66e07"
      },
      "effectiveDateTime": "2026-06-08T08:00:00.000+00:00",
      "performer": [ {
        "reference": "Organization/example1",
        "display": "Hendricks Country Hospital"
      } ],
      "valueQuantity": {
        "value": 37,
        "system": "http://unitsofmeasure.org",
        "code": "wk"
      }
    },
    "request": {
      "method": "PUT",
      "url": "Observation/25320f3b-4d16-465d-8355-1da7c3ba848a"
    }
  }, {
    "fullUrl": "https://madie.cms.gov/Observation/8bb847e7-c87d-423e-b20e-dafc2e120627",
    "resource": {
      "resourceType": "Observation",
      "id": "8bb847e7-c87d-423e-b20e-dafc2e120627",
      "meta": {
        "profile": [ "http://hl7.org/fhir/us/qicore/StructureDefinition/qicore-simple-observation" ]
      },
      "status": "final",
      "category": [ {
        "coding": [ {
          "system": "http://terminology.hl7.org/CodeSystem/observation-category",
          "code": "exam",
          "display": "exam",
          "userSelected": true
        } ]
      } ],
      "code": {
        "coding": [ {
          "system": "http://loinc.org",
          "code": "93857-1"
        } ]
      },
      "subject": {
        "reference": "Patient/f2b2fe3f-ad3c-42ae-b262-73345ec66e07"
      },
      "effectiveDateTime": "2026-06-08T20:00:00.000+00:00",
      "performer": [ {
        "reference": "Organization/example1",
        "display": "Hendricks Country Hospital"
      } ],
      "valueDateTime": "2026-06-08T20:00:00.000+00:00"
    },
    "request": {
      "method": "PUT",
      "url": "Observation/8bb847e7-c87d-423e-b20e-dafc2e120627"
    }
  }, {
    "fullUrl": "https://madie.cms.gov/Encounter/6cec8c0c-a770-4d6a-90ba-5a1cd509f280",
    "resource": {
      "resourceType": "Encounter",
      "id": "6cec8c0c-a770-4d6a-90ba-5a1cd509f280",
      "meta": {
        "profile": [ "http://hl7.org/fhir/us/qicore/StructureDefinition/qicore-encounter" ]
      },
      "status": "finished",
      "class": {
        "system": "http://terminology.hl7.org/CodeSystem/v3-ActCode",
        "code": "IMP",
        "display": "inpatient encounter"
      },
      "type": [ {
        "coding": [ {
          "system": "http://snomed.info/sct",
          "code": "8715000"
        } ]
      } ],
      "subject": {
        "reference": "Patient/f2b2fe3f-ad3c-42ae-b262-73345ec66e07"
      },
      "period": {
        "start": "2026-06-08T08:00:00.000+00:00",
        "end": "2026-06-10T08:15:00.000+00:00"
      },
      "length": {
        "value": 2,
        "unit": "days"
      },
      "reasonCode": [ {
        "coding": [ {
          "system": "http://snomed.info/sct",
          "code": "169826009",
          "display": "Single live birth from singleton pregnancy (finding)"
        } ]
      } ]
    },
    "request": {
      "method": "PUT",
      "url": "Encounter/6cec8c0c-a770-4d6a-90ba-5a1cd509f280"
    }
  }, {
    "fullUrl": "https://madie.cms.gov/Procedure/678bfe22-7cf5-474e-a7bf-a01c78d5ea0c",
    "resource": {
      "resourceType": "Procedure",
      "id": "678bfe22-7cf5-474e-a7bf-a01c78d5ea0c",
      "meta": {
        "profile": [ "http://hl7.org/fhir/us/qicore/StructureDefinition/qicore-procedure" ]
      },
      "extension": [ {
        "url": "http://hl7.org/fhir/us/qicore/StructureDefinition/qicore-recorded",
        "valueDateTime": "2014-04-05T13:35:00.000+00:00"
      } ],
      "status": "completed",
      "code": {
        "coding": [ {
          "system": "http://www.cms.gov/Medicare/Coding/ICD10",
          "code": "10D00Z0"
        }, {
          "system": "http://snomed.info/sct",
          "code": "4504004"
        } ]
      },
      "subject": {
        "reference": "Patient/f2b2fe3f-ad3c-42ae-b262-73345ec66e07"
      },
      "performedPeriod": {
        "start": "2026-06-08T20:00:00.000+00:00",
        "end": "2026-06-08T20:15:00.000+00:00"
      }
    },
    "request": {
      "method": "PUT",
      "url": "Procedure/678bfe22-7cf5-474e-a7bf-a01c78d5ea0c"
    }
  }, {
    "fullUrl": "https://madie.cms.gov/Condition/a8385356-e6cb-45af-9190-a826ac44a97a",
    "resource": {
      "resourceType": "Condition",
      "id": "a8385356-e6cb-45af-9190-a826ac44a97a",
      "meta": {
        "profile": [ "http://hl7.org/fhir/us/qicore/StructureDefinition/qicore-condition" ]
      },
      "category": [ {
        "coding": [ {
          "system": "http://terminology.hl7.org/CodeSystem/condition-category",
          "code": "encounter-diagnosis",
          "display": "Encounter Diagnosis"
        } ]
      } ],
      "code": {
        "coding": [ {
          "system": "http://snomed.info/sct",
          "version": "2022-09",
          "code": "169826009",
          "display": "Single live birth (finding)",
          "userSelected": true
        } ]
      },
      "subject": {
        "reference": "Patient/f2b2fe3f-ad3c-42ae-b262-73345ec66e07"
      },
      "recordedDate": "2026-10-21T08:00:00.000+00:00"
    },
    "request": {
      "method": "PUT",
      "url": "Condition/a8385356-e6cb-45af-9190-a826ac44a97a"
    }
  }, {
    "fullUrl": "https://madie.cms.gov/Coverage/654c1c22-9d62-4c0d-90f7-c6928a4a6ddb",
    "resource": {
      "resourceType": "Coverage",
      "id": "654c1c22-9d62-4c0d-90f7-c6928a4a6ddb",
      "meta": {
        "profile": [ "http://hl7.org/fhir/us/qicore/StructureDefinition/qicore-coverage" ]
      },
      "status": "active",
      "subscriberId": "523435",
      "beneficiary": {
        "reference": "Patient/f2b2fe3f-ad3c-42ae-b262-73345ec66e07"
      },
      "relationship": {
        "coding": [ {
          "system": "http://terminology.hl7.org/CodeSystem/subscriber-relationship",
          "code": "self"
        } ]
      },
      "payor": [ {
        "reference": "Organization/858c31db-64c3-418e-96b6-5fbb8bd154b3"
      } ]
    },
    "request": {
      "method": "PUT",
      "url": "Coverage/654c1c22-9d62-4c0d-90f7-c6928a4a6ddb"
    }
  }, {
    "fullUrl": "https://madie.cms.gov/Organization/858c31db-64c3-418e-96b6-5fbb8bd154b3",
    "resource": {
      "resourceType": "Organization",
      "id": "858c31db-64c3-418e-96b6-5fbb8bd154b3",
      "meta": {
        "profile": [ "http://hl7.org/fhir/us/qicore/StructureDefinition/qicore-organization" ]
      },
      "identifier": [ {
        "use": "temp",
        "system": "urn:oid:2.16.840.1.113883.4.4",
        "value": "21-3259825"
      } ],
      "active": true,
      "type": [ {
        "coding": [ {
          "system": "http://terminology.hl7.org/CodeSystem/organization-type",
          "code": "pay",
          "display": "Payer"
        } ]
      } ],
      "name": "Blue Cross Blue Shield of Texas",
      "telecom": [ {
        "system": "phone",
        "value": "(+1) 972-766-6900"
      } ],
      "address": [ {
        "use": "billing",
        "type": "postal",
        "line": [ "P.O. Box 660044" ],
        "city": "Dallas",
        "state": "TX",
        "postalCode": "75266-0044",
        "country": "USA"
      } ]
    },
    "request": {
      "method": "PUT",
      "url": "Organization/858c31db-64c3-418e-96b6-5fbb8bd154b3"
    }
  }, {
    "fullUrl": "https://madie.cms.gov/Practitioner/2f636f0e-6071-429d-b8b3-afca3c65523a",
    "resource": {
      "resourceType": "Practitioner",
      "id": "2f636f0e-6071-429d-b8b3-afca3c65523a",
      "meta": {
        "profile": [ "http://hl7.org/fhir/us/qicore/StructureDefinition/qicore-practitioner" ]
      },
      "identifier": [ {
        "system": "http://hl7.org/fhir/sid/us-npi",
        "value": "1234567890"
      } ],
      "name": [ {
        "family": "Evil",
        "prefix": [ "Dr" ]
      } ]
    },
    "request": {
      "method": "PUT",
      "url": "Practitioner/2f636f0e-6071-429d-b8b3-afca3c65523a"
    }
  }, {
    "fullUrl": "https://madie.cms.gov/MeasureReport/472296fc-a227-4cde-9f14-05c90c77a5d0",
    "resource": {
      "resourceType": "MeasureReport",
      "id": "472296fc-a227-4cde-9f14-05c90c77a5d0",
      "meta": {
        "profile": [ "http://hl7.org/fhir/us/cqfmeasures/StructureDefinition/test-case-cqfm" ]
      },
      "contained": [ {
        "resourceType": "Parameters",
        "id": "c73f0948-210f-4358-9b66-306c3b0ee971-parameters",
        "parameter": [ {
          "name": "subject",
          "valueString": "f2b2fe3f-ad3c-42ae-b262-73345ec66e07"
        } ]
      } ],
      "extension": [ {
        "url": "http://hl7.org/fhir/StructureDefinition/cqf-inputParameters",
        "valueReference": {
          "reference": "#c73f0948-210f-4358-9b66-306c3b0ee971-parameters"
        }
      }, {
        "url": "http://hl7.org/fhir/us/cqfmeasures/StructureDefinition/cqfm-testCaseDescription",
        "valueMarkdown": "Passes IP,   Parity is Null, Gravida, Preterm/Term Births are not populated\n"
      } ],
      "modifierExtension": [ {
        "url": "http://hl7.org/fhir/us/cqfmeasures/StructureDefinition/cqfm-isTestCase",
        "valueBoolean": true
      } ],
      "status": "complete",
      "type": "individual",
      "measure": "https://madie.cms.gov/Measure/CMS0334FHIRPCCesareanBirth",
      "period": {
        "start": "2026-01-01",
        "end": "2026-12-31"
      },
      "group": [ {
        "id": "Group_1",
        "population": [ {
          "id": "InitialPopulation_1",
          "code": {
            "coding": [ {
              "system": "http://terminology.hl7.org/CodeSystem/measure-population",
              "code": "initial-population",
              "display": "Initial Population"
            } ]
          },
          "count": 1
        }, {
          "id": "Denominator_1",
          "code": {
            "coding": [ {
              "system": "http://terminology.hl7.org/CodeSystem/measure-population",
              "code": "denominator",
              "display": "Denominator"
            } ]
          },
          "count": 0
        }, {
          "id": "DenominatorExclusion_1",
          "code": {
            "coding": [ {
              "system": "http://terminology.hl7.org/CodeSystem/measure-population",
              "code": "denominator-exclusion",
              "display": "Denominator Exclusion"
            } ]
          },
          "count": 0
        }, {
          "id": "Numerator_1",
          "code": {
            "coding": [ {
              "system": "http://terminology.hl7.org/CodeSystem/measure-population",
              "code": "numerator",
              "display": "Numerator"
            } ]
          },
          "count": 0
        } ],
        "measureScore": {
          "value": 0.0
        }
      } ],
      "evaluatedResource": [ {
        "reference": "Patient/f2b2fe3f-ad3c-42ae-b262-73345ec66e07"
      }, {
        "reference": "Observation/a6a8a0cb-0a17-402a-b0b7-873a395ed5fd"
      }, {
        "reference": "Observation/25320f3b-4d16-465d-8355-1da7c3ba848a"
      }, {
        "reference": "Observation/8bb847e7-c87d-423e-b20e-dafc2e120627"
      }, {
        "reference": "Encounter/6cec8c0c-a770-4d6a-90ba-5a1cd509f280"
      }, {
        "reference": "Procedure/678bfe22-7cf5-474e-a7bf-a01c78d5ea0c"
      }, {
        "reference": "Condition/a8385356-e6cb-45af-9190-a826ac44a97a"
      }, {
        "reference": "Coverage/654c1c22-9d62-4c0d-90f7-c6928a4a6ddb"
      }, {
        "reference": "Organization/858c31db-64c3-418e-96b6-5fbb8bd154b3"
      }, {
        "reference": "Practitioner/2f636f0e-6071-429d-b8b3-afca3c65523a"
      } ]
    },
    "request": {
      "method": "PUT",
      "url": "MeasureReport/472296fc-a227-4cde-9f14-05c90c77a5d0"
    }
  } ]
}