{
  "resourceType": "Bundle",
  "id": "62c880ec0111a60120dc220c",
  "type": "transaction",
  "entry": [ {
    "fullUrl": "https://madie.cms.gov/Patient/64e6ec83-91f3-49be-8a32-cce1f3468a2e",
    "resource": {
      "resourceType": "Patient",
      "id": "64e6ec83-91f3-49be-8a32-cce1f3468a2e",
      "meta": {
        "profile": [ "http://hl7.org/fhir/us/qicore/StructureDefinition/qicore-patient" ]
      },
      "extension": [ {
        "url": "http://hl7.org/fhir/us/core/StructureDefinition/us-core-race",
        "extension": [ {
          "url": "ombCategory",
          "valueCoding": {
            "system": "urn:oid:2.16.840.1.113883.6.238",
            "code": "1002-5",
            "display": "American Indian or Alaska Native",
            "userSelected": true
          }
        }, {
          "url": "text",
          "valueString": "American Indian or Alaska Native"
        } ]
      }, {
        "url": "http://hl7.org/fhir/us/core/StructureDefinition/us-core-ethnicity",
        "extension": [ {
          "url": "ombCategory",
          "valueCoding": {
            "system": "urn:oid:2.16.840.1.113883.6.238",
            "code": "2135-2",
            "display": "Hispanic or Latino",
            "userSelected": true
          }
        }, {
          "url": "text",
          "valueString": "Hispanic or Latino"
        } ]
      } ],
      "identifier": [ {
        "type": {
          "coding": [ {
            "system": "http://terminology.hl7.org/CodeSystem/v2-0203",
            "code": "MR"
          } ]
        },
        "system": "https://bonnie-fhir.healthit.gov/",
        "value": "62c880ec0111a60120dc220c"
      } ],
      "active": true,
      "name": [ {
        "use": "usual",
        "family": "DENOMPassPop2",
        "given": [ "MultCancerDx" ]
      } ],
      "gender": "female",
      "birthDate": "1979-03-04"
    },
    "request": {
      "method": "PUT",
      "url": "Patient/64e6ec83-91f3-49be-8a32-cce1f3468a2e"
    }
  }, {
    "fullUrl": "https://madie.cms.gov/Condition/47026332-c12a-47d5-9c10-f6712b2623ad",
    "resource": {
      "resourceType": "Condition",
      "id": "47026332-c12a-47d5-9c10-f6712b2623ad",
      "meta": {
        "profile": [ "http://hl7.org/fhir/us/qicore/StructureDefinition/qicore-condition-problems-health-concerns" ]
      },
      "clinicalStatus": {
        "coding": [ {
          "system": "http://terminology.hl7.org/CodeSystem/condition-clinical",
          "code": "active",
          "display": "active",
          "userSelected": true
        } ]
      },
      "verificationStatus": {
        "coding": [ {
          "system": "http://terminology.hl7.org/CodeSystem/condition-ver-status",
          "code": "confirmed",
          "display": "Confirmed"
        } ]
      },
      "category": [ {
        "coding": [ {
          "system": "http://terminology.hl7.org/CodeSystem/condition-category",
          "code": "problem-list-item",
          "display": "Problem List Item"
        } ]
      } ],
      "code": {
        "coding": [ {
          "system": "http://snomed.info/sct",
          "code": "107691000119101"
        } ]
      },
      "subject": {
        "reference": "Patient/64e6ec83-91f3-49be-8a32-cce1f3468a2e"
      },
      "onsetDateTime": "2026-01-10T08:00:00.000+00:00"
    },
    "request": {
      "method": "PUT",
      "url": "Condition/47026332-c12a-47d5-9c10-f6712b2623ad"
    }
  }, {
    "fullUrl": "https://madie.cms.gov/Condition/b410dd23-4582-43a2-b113-9dd5a023a245",
    "resource": {
      "resourceType": "Condition",
      "id": "b410dd23-4582-43a2-b113-9dd5a023a245",
      "meta": {
        "profile": [ "http://hl7.org/fhir/us/qicore/StructureDefinition/qicore-condition-problems-health-concerns" ]
      },
      "clinicalStatus": {
        "coding": [ {
          "system": "http://terminology.hl7.org/CodeSystem/condition-clinical",
          "code": "remission",
          "display": "remission",
          "userSelected": true
        } ]
      },
      "verificationStatus": {
        "coding": [ {
          "system": "http://terminology.hl7.org/CodeSystem/condition-ver-status",
          "code": "confirmed",
          "display": "Confirmed"
        } ]
      },
      "category": [ {
        "coding": [ {
          "system": "http://terminology.hl7.org/CodeSystem/condition-category",
          "code": "problem-list-item",
          "display": "Problem List Item"
        } ]
      } ],
      "code": {
        "coding": [ {
          "system": "http://hl7.org/fhir/sid/icd-10-cm",
          "code": "C02.3"
        } ]
      },
      "subject": {
        "reference": "Patient/64e6ec83-91f3-49be-8a32-cce1f3468a2e"
      },
      "onsetDateTime": "2026-03-10T08:00:00.000+00:00",
      "abatementDateTime": "2026-03-10T08:15:00.000+00:00"
    },
    "request": {
      "method": "PUT",
      "url": "Condition/b410dd23-4582-43a2-b113-9dd5a023a245"
    }
  }, {
    "fullUrl": "https://madie.cms.gov/Coverage/c9e3eea6-8ae2-4025-8357-1c0dd10ef594",
    "resource": {
      "resourceType": "Coverage",
      "id": "c9e3eea6-8ae2-4025-8357-1c0dd10ef594",
      "meta": {
        "profile": [ "http://hl7.org/fhir/us/qicore/StructureDefinition/qicore-coverage" ]
      },
      "status": "active",
      "beneficiary": {
        "reference": "Patient/64e6ec83-91f3-49be-8a32-cce1f3468a2e"
      },
      "period": {
        "start": "1979-03-04T08:00:00.000+00:00"
      },
      "payor": [ {
        "reference": "Organization/14f73fa5-4a12-40b9-be6b-c049dda11af9"
      } ]
    },
    "request": {
      "method": "PUT",
      "url": "Coverage/c9e3eea6-8ae2-4025-8357-1c0dd10ef594"
    }
  }, {
    "fullUrl": "https://madie.cms.gov/Encounter/1fc221e8-3047-4493-8739-cf7829403f5b",
    "resource": {
      "resourceType": "Encounter",
      "id": "1fc221e8-3047-4493-8739-cf7829403f5b",
      "meta": {
        "profile": [ "http://hl7.org/fhir/us/qicore/StructureDefinition/qicore-encounter" ]
      },
      "status": "finished",
      "class": {
        "system": "http://terminology.hl7.org/CodeSystem/v3-ActCode",
        "code": "AMB",
        "display": "ambulatory",
        "userSelected": true
      },
      "type": [ {
        "coding": [ {
          "system": "http://www.ama-assn.org/go/cpt",
          "version": "2023",
          "code": "77427",
          "display": "Radiation treatment management, 5 treatments",
          "userSelected": true
        } ]
      } ],
      "subject": {
        "reference": "Patient/64e6ec83-91f3-49be-8a32-cce1f3468a2e"
      },
      "period": {
        "start": "2026-02-10T08:00:00.000+00:00",
        "end": "2026-02-10T08:15:00.000+00:00"
      }
    },
    "request": {
      "method": "PUT",
      "url": "Encounter/1fc221e8-3047-4493-8739-cf7829403f5b"
    }
  }, {
    "fullUrl": "https://madie.cms.gov/Organization/14f73fa5-4a12-40b9-be6b-c049dda11af9",
    "resource": {
      "resourceType": "Organization",
      "id": "14f73fa5-4a12-40b9-be6b-c049dda11af9",
      "meta": {
        "profile": [ "http://hl7.org/fhir/us/qicore/StructureDefinition/qicore-organization" ]
      },
      "identifier": [ {
        "use": "temp",
        "system": "urn:oid:2.16.840.1.113883.4.4",
        "value": "21-3259825"
      } ],
      "active": true,
      "type": [ {
        "coding": [ {
          "system": "http://terminology.hl7.org/CodeSystem/organization-type",
          "code": "pay",
          "display": "Payer"
        } ]
      } ],
      "name": "Blue Cross Blue Shield of Texas",
      "telecom": [ {
        "system": "phone",
        "value": "(+1) 972-766-6900"
      } ],
      "address": [ {
        "use": "billing",
        "type": "postal",
        "line": [ "P.O. Box 660044" ],
        "city": "Dallas",
        "state": "TX",
        "postalCode": "75266-0044",
        "country": "USA"
      } ]
    },
    "request": {
      "method": "PUT",
      "url": "Organization/14f73fa5-4a12-40b9-be6b-c049dda11af9"
    }
  }, {
    "fullUrl": "https://madie.cms.gov/Practitioner/87f91140-7c86-4071-af64-f4fd3deab164",
    "resource": {
      "resourceType": "Practitioner",
      "id": "87f91140-7c86-4071-af64-f4fd3deab164",
      "meta": {
        "profile": [ "http://hl7.org/fhir/us/qicore/StructureDefinition/qicore-practitioner" ]
      },
      "identifier": [ {
        "system": "http://hl7.org/fhir/sid/us-npi",
        "value": "1234567890"
      } ],
      "name": [ {
        "family": "Evil",
        "prefix": [ "Dr" ]
      } ]
    },
    "request": {
      "method": "PUT",
      "url": "Practitioner/87f91140-7c86-4071-af64-f4fd3deab164"
    }
  }, {
    "fullUrl": "https://madie.cms.gov/MeasureReport/b2384167-9f07-4969-bb8d-179f4a2995ea",
    "resource": {
      "resourceType": "MeasureReport",
      "id": "b2384167-9f07-4969-bb8d-179f4a2995ea",
      "meta": {
        "profile": [ "http://hl7.org/fhir/us/cqfmeasures/StructureDefinition/test-case-cqfm" ]
      },
      "contained": [ {
        "resourceType": "Parameters",
        "id": "b5b28160-4bc2-499c-a964-014398d4292b-parameters",
        "parameter": [ {
          "name": "subject",
          "valueString": "64e6ec83-91f3-49be-8a32-cce1f3468a2e"
        } ]
      } ],
      "extension": [ {
        "url": "http://hl7.org/fhir/StructureDefinition/cqf-inputParameters",
        "valueReference": {
          "reference": "#b5b28160-4bc2-499c-a964-014398d4292b-parameters"
        }
      }, {
        "url": "http://hl7.org/fhir/us/cqfmeasures/StructureDefinition/cqfm-testCaseDescription",
        "valueMarkdown": "Patient with multiple cancer diagnoses on different dates that overlap a radiation treatment management during measurement period.\n"
      } ],
      "modifierExtension": [ {
        "url": "http://hl7.org/fhir/us/cqfmeasures/StructureDefinition/cqfm-isTestCase",
        "valueBoolean": true
      } ],
      "status": "complete",
      "type": "individual",
      "measure": "https://madie.cms.gov/Measure/CMS157FHIRPainIntensityQuantified",
      "period": {
        "start": "2026-01-01",
        "end": "2026-12-31"
      },
      "group": [ {
        "id": "Group_1",
        "population": [ {
          "id": "InitialPopulation_1",
          "code": {
            "coding": [ {
              "system": "http://terminology.hl7.org/CodeSystem/measure-population",
              "code": "initial-population",
              "display": "Initial Population"
            } ]
          },
          "count": 0
        }, {
          "id": "Denominator_1",
          "code": {
            "coding": [ {
              "system": "http://terminology.hl7.org/CodeSystem/measure-population",
              "code": "denominator",
              "display": "Denominator"
            } ]
          },
          "count": 0
        }, {
          "id": "Numerator_1",
          "code": {
            "coding": [ {
              "system": "http://terminology.hl7.org/CodeSystem/measure-population",
              "code": "numerator",
              "display": "Numerator"
            } ]
          },
          "count": 0
        } ],
        "measureScore": {
          "value": 0.0
        }
      }, {
        "id": "Group_2",
        "population": [ {
          "id": "InitialPopulation_2",
          "code": {
            "coding": [ {
              "system": "http://terminology.hl7.org/CodeSystem/measure-population",
              "code": "initial-population",
              "display": "Initial Population"
            } ]
          },
          "count": 1
        }, {
          "id": "Denominator_2",
          "code": {
            "coding": [ {
              "system": "http://terminology.hl7.org/CodeSystem/measure-population",
              "code": "denominator",
              "display": "Denominator"
            } ]
          },
          "count": 1
        }, {
          "id": "Numerator_2",
          "code": {
            "coding": [ {
              "system": "http://terminology.hl7.org/CodeSystem/measure-population",
              "code": "numerator",
              "display": "Numerator"
            } ]
          },
          "count": 0
        } ],
        "measureScore": {
          "value": 0.0
        }
      } ],
      "evaluatedResource": [ {
        "reference": "Patient/64e6ec83-91f3-49be-8a32-cce1f3468a2e"
      }, {
        "reference": "Condition/47026332-c12a-47d5-9c10-f6712b2623ad"
      }, {
        "reference": "Condition/b410dd23-4582-43a2-b113-9dd5a023a245"
      }, {
        "reference": "Coverage/c9e3eea6-8ae2-4025-8357-1c0dd10ef594"
      }, {
        "reference": "Encounter/1fc221e8-3047-4493-8739-cf7829403f5b"
      }, {
        "reference": "Organization/14f73fa5-4a12-40b9-be6b-c049dda11af9"
      }, {
        "reference": "Practitioner/87f91140-7c86-4071-af64-f4fd3deab164"
      } ]
    },
    "request": {
      "method": "PUT",
      "url": "MeasureReport/b2384167-9f07-4969-bb8d-179f4a2995ea"
    }
  } ]
}