{
  "resourceType": "Bundle",
  "id": "SDEPass-SDECoverage",
  "type": "transaction",
  "entry": [ {
    "fullUrl": "https://madie.cms.gov/Patient/8bc317cf-4ee1-4560-a9e2-b3e862bd112e",
    "resource": {
      "resourceType": "Patient",
      "id": "8bc317cf-4ee1-4560-a9e2-b3e862bd112e",
      "meta": {
        "profile": [ "http://hl7.org/fhir/us/qicore/StructureDefinition/qicore-patient" ]
      },
      "extension": [ {
        "url": "http://hl7.org/fhir/us/core/StructureDefinition/us-core-race",
        "extension": [ {
          "url": "ombCategory",
          "valueCoding": {
            "system": "urn:oid:2.16.840.1.113883.6.238",
            "code": "2028-9",
            "display": "Asian",
            "userSelected": true
          }
        }, {
          "url": "text",
          "valueString": "Asian"
        }, {
          "url": "detailed",
          "valueCoding": {
            "system": "urn:oid:2.16.840.1.113883.6.238",
            "code": "1653-5",
            "display": "Tohono O'Odham"
          }
        } ]
      }, {
        "url": "http://hl7.org/fhir/us/core/StructureDefinition/us-core-ethnicity",
        "extension": [ {
          "url": "ombCategory",
          "valueCoding": {
            "system": "urn:oid:2.16.840.1.113883.6.238",
            "code": "2135-2",
            "display": "Hispanic or Latino",
            "userSelected": true
          }
        }, {
          "url": "text",
          "valueString": "Hispanic or Latino"
        }, {
          "url": "detailed",
          "valueCoding": {
            "system": "urn:oid:2.16.840.1.113883.6.238",
            "code": "2180-8",
            "display": "Puerto Rican"
          }
        } ]
      }, {
        "url": "http://hl7.org/fhir/us/core/StructureDefinition/us-core-sex",
        "valueCode": "248153007"
      } ],
      "identifier": [ {
        "system": "http://hospital.smarthealthit.org",
        "value": "999999995"
      } ],
      "name": [ {
        "family": "SDE",
        "given": [ "SDECoverage" ]
      } ],
      "gender": "male",
      "birthDate": "1961-01-01"
    },
    "request": {
      "method": "PUT",
      "url": "Patient/8bc317cf-4ee1-4560-a9e2-b3e862bd112e"
    }
  }, {
    "fullUrl": "https://madie.cms.gov/Encounter/3c0b9f38-3ae1-40df-b23c-5561683fd428",
    "resource": {
      "resourceType": "Encounter",
      "id": "3c0b9f38-3ae1-40df-b23c-5561683fd428",
      "meta": {
        "profile": [ "http://hl7.org/fhir/us/qicore/StructureDefinition/qicore-encounter" ]
      },
      "status": "finished",
      "class": {
        "system": "http://terminology.hl7.org/CodeSystem/v3-ActCode",
        "code": "AMB",
        "display": "ambulatory"
      },
      "type": [ {
        "coding": [ {
          "system": "http://snomed.info/sct",
          "code": "185465003",
          "display": "Weekend visit (procedure)"
        } ]
      } ],
      "subject": {
        "reference": "Patient/8bc317cf-4ee1-4560-a9e2-b3e862bd112e"
      },
      "period": {
        "start": "2026-01-01T00:00:00.000+00:00",
        "end": "2026-01-01T00:15:00.000+00:00"
      }
    },
    "request": {
      "method": "PUT",
      "url": "Encounter/3c0b9f38-3ae1-40df-b23c-5561683fd428"
    }
  }, {
    "fullUrl": "https://madie.cms.gov/Coverage/14d4adc3-618d-429e-bbd4-200feb46cf91",
    "resource": {
      "resourceType": "Coverage",
      "id": "14d4adc3-618d-429e-bbd4-200feb46cf91",
      "meta": {
        "profile": [ "http://hl7.org/fhir/us/qicore/StructureDefinition/qicore-coverage" ]
      },
      "identifier": [ {
        "system": "http://benefitsinc.com/certificate",
        "value": "12345"
      } ],
      "status": "active",
      "type": {
        "coding": [ {
          "system": "https://nahdo.org/sopt",
          "code": "59",
          "display": "Other Private Insurance"
        } ]
      },
      "policyHolder": {
        "reference": "Patient/8bc317cf-4ee1-4560-a9e2-b3e862bd112e"
      },
      "subscriber": {
        "reference": "Patient/8bc317cf-4ee1-4560-a9e2-b3e862bd112e"
      },
      "subscriberId": "12191",
      "beneficiary": {
        "reference": "Patient/8bc317cf-4ee1-4560-a9e2-b3e862bd112e"
      },
      "dependent": "0",
      "relationship": {
        "coding": [ {
          "system": "http://terminology.hl7.org/CodeSystem/subscriber-relationship",
          "code": "self"
        } ]
      },
      "period": {
        "start": "2023-01-01T06:00:00.000+00:00",
        "end": "2023-01-01T11:06:01.000+00:00"
      },
      "payor": [ {
        "reference": "Patient/8bc317cf-4ee1-4560-a9e2-b3e862bd112e"
      } ],
      "order": 9
    },
    "request": {
      "method": "PUT",
      "url": "Coverage/14d4adc3-618d-429e-bbd4-200feb46cf91"
    }
  }, {
    "fullUrl": "https://madie.cms.gov/MeasureReport/129cc61d-982a-4e92-b290-2ab40613575f",
    "resource": {
      "resourceType": "MeasureReport",
      "id": "129cc61d-982a-4e92-b290-2ab40613575f",
      "meta": {
        "profile": [ "http://hl7.org/fhir/us/cqfmeasures/StructureDefinition/test-case-cqfm" ]
      },
      "contained": [ {
        "resourceType": "Parameters",
        "id": "aac88b06-7a06-4ec0-88af-51faab367a4c-parameters",
        "parameter": [ {
          "name": "subject",
          "valueString": "8bc317cf-4ee1-4560-a9e2-b3e862bd112e"
        } ]
      } ],
      "extension": [ {
        "url": "http://hl7.org/fhir/StructureDefinition/cqf-inputParameters",
        "valueReference": {
          "reference": "#aac88b06-7a06-4ec0-88af-51faab367a4c-parameters"
        }
      }, {
        "url": "http://hl7.org/fhir/us/cqfmeasures/StructureDefinition/cqfm-testCaseDescription",
        "valueMarkdown": "For meeting SDE 100% coverage - patient gender male, sde payer coverage, ethnicity detailed, race detailed"
      } ],
      "modifierExtension": [ {
        "url": "http://hl7.org/fhir/us/cqfmeasures/StructureDefinition/cqfm-isTestCase",
        "valueBoolean": true
      } ],
      "status": "complete",
      "type": "individual",
      "measure": "https://madie.cms.gov/Measure/CMS139FHIRFallRiskScreening",
      "period": {
        "start": "2026-01-01",
        "end": "2026-12-31"
      },
      "group": [ {
        "id": "Group_1",
        "population": [ {
          "id": "InitialPopulation_1",
          "code": {
            "coding": [ {
              "system": "http://terminology.hl7.org/CodeSystem/measure-population",
              "code": "initial-population",
              "display": "Initial Population"
            } ]
          },
          "count": 1
        }, {
          "id": "Denominator_1",
          "code": {
            "coding": [ {
              "system": "http://terminology.hl7.org/CodeSystem/measure-population",
              "code": "denominator",
              "display": "Denominator"
            } ]
          },
          "count": 1
        }, {
          "id": "DenominatorExclusion_1",
          "code": {
            "coding": [ {
              "system": "http://terminology.hl7.org/CodeSystem/measure-population",
              "code": "denominator-exclusion",
              "display": "Denominator Exclusion"
            } ]
          },
          "count": 0
        }, {
          "id": "Numerator_1",
          "code": {
            "coding": [ {
              "system": "http://terminology.hl7.org/CodeSystem/measure-population",
              "code": "numerator",
              "display": "Numerator"
            } ]
          },
          "count": 0
        } ],
        "measureScore": {
          "value": 1.0
        }
      } ],
      "evaluatedResource": [ {
        "reference": "Patient/8bc317cf-4ee1-4560-a9e2-b3e862bd112e"
      }, {
        "reference": "Encounter/3c0b9f38-3ae1-40df-b23c-5561683fd428"
      }, {
        "reference": "Coverage/14d4adc3-618d-429e-bbd4-200feb46cf91"
      } ]
    },
    "request": {
      "method": "PUT",
      "url": "MeasureReport/129cc61d-982a-4e92-b290-2ab40613575f"
    }
  } ]
}