{
  "resourceType": "Bundle",
  "id": "62d061a9f924c8924458d151",
  "type": "collection",
  "entry": [ {
    "fullUrl": "https://madie.cms.gov/Patient/0278fdf0-f067-46e8-aeb1-fb96dff3c947",
    "resource": {
      "resourceType": "Patient",
      "id": "0278fdf0-f067-46e8-aeb1-fb96dff3c947",
      "meta": {
        "profile": [ "http://hl7.org/fhir/us/qicore/StructureDefinition/qicore-patient" ]
      },
      "extension": [ {
        "url": "http://hl7.org/fhir/us/core/StructureDefinition/us-core-race",
        "extension": [ {
          "url": "ombCategory",
          "valueCoding": {
            "system": "urn:oid:2.16.840.1.113883.6.238",
            "code": "2054-5",
            "display": "Black or African American",
            "userSelected": true
          }
        }, {
          "url": "text",
          "valueString": "Black or African American"
        } ]
      }, {
        "url": "http://hl7.org/fhir/us/core/StructureDefinition/us-core-ethnicity",
        "extension": [ {
          "url": "ombCategory",
          "valueCoding": {
            "system": "urn:oid:2.16.840.1.113883.6.238",
            "code": "2135-2",
            "display": "Hispanic or Latino",
            "userSelected": true
          }
        }, {
          "url": "text",
          "valueString": "Hispanic or Latino"
        } ]
      } ],
      "identifier": [ {
        "type": {
          "coding": [ {
            "system": "http://terminology.hl7.org/CodeSystem/v2-0203",
            "code": "MR"
          } ]
        },
        "system": "https://bonnie-fhir.healthit.gov/",
        "value": "62d061a9f924c8924458d151"
      } ],
      "name": [ {
        "family": "DENEXCEPPass",
        "given": [ "HTN130DeclinedNonPharm" ]
      } ],
      "gender": "male",
      "birthDate": "2006-01-31"
    }
  }, {
    "fullUrl": "https://madie.cms.gov/Encounter/b2979a40-4733-411f-8cf1-1fb54927cbff",
    "resource": {
      "resourceType": "Encounter",
      "id": "b2979a40-4733-411f-8cf1-1fb54927cbff",
      "meta": {
        "profile": [ "http://hl7.org/fhir/us/qicore/StructureDefinition/qicore-encounter" ]
      },
      "status": "finished",
      "class": {
        "system": "http://terminology.hl7.org/CodeSystem/v3-ActCode",
        "code": "AMB",
        "display": "ambulatory"
      },
      "type": [ {
        "coding": [ {
          "system": "http://snomed.info/sct",
          "version": "2022-03",
          "code": "103705002",
          "display": "Patient status observation (procedure)",
          "userSelected": true
        } ]
      } ],
      "subject": {
        "reference": "Patient/0278fdf0-f067-46e8-aeb1-fb96dff3c947"
      },
      "period": {
        "start": "2026-01-01T08:00:00.000Z",
        "end": "2026-01-01T08:30:00.000Z"
      }
    }
  }, {
    "fullUrl": "https://madie.cms.gov/Observation/05a0a9aa-cdda-41b3-a326-85501dc46f90",
    "resource": {
      "resourceType": "Observation",
      "id": "05a0a9aa-cdda-41b3-a326-85501dc46f90",
      "meta": {
        "profile": [ "http://hl7.org/fhir/us/core/StructureDefinition/us-core-blood-pressure" ]
      },
      "status": "final",
      "category": [ {
        "coding": [ {
          "system": "http://terminology.hl7.org/CodeSystem/observation-category",
          "code": "vital-signs",
          "display": "Vital Signs"
        } ],
        "text": "Vital Signs"
      } ],
      "code": {
        "coding": [ {
          "system": "http://loinc.org",
          "code": "85354-9",
          "display": "Blood pressure panel with all children optional"
        } ]
      },
      "subject": {
        "reference": "Patient/0278fdf0-f067-46e8-aeb1-fb96dff3c947"
      },
      "effectiveDateTime": "2026-01-01T08:29:00.000Z",
      "component": [ {
        "code": {
          "coding": [ {
            "system": "http://loinc.org",
            "code": "8480-6",
            "display": "Systolic blood pressure"
          } ]
        },
        "valueQuantity": {
          "value": 130,
          "unit": "mmHg",
          "system": "http://unitsofmeasure.org",
          "code": "mm[Hg]"
        }
      }, {
        "code": {
          "coding": [ {
            "system": "http://loinc.org",
            "code": "8462-4",
            "display": "Diastolic blood pressure"
          } ]
        },
        "valueQuantity": {
          "value": 79,
          "unit": "mmHg",
          "system": "http://unitsofmeasure.org",
          "code": "mm[Hg]"
        }
      } ]
    }
  }, {
    "fullUrl": "https://madie.cms.gov/ServiceRequest/bf1a86d0-65f3-4325-884f-627eaf9930a9",
    "resource": {
      "resourceType": "ServiceRequest",
      "id": "bf1a86d0-65f3-4325-884f-627eaf9930a9",
      "meta": {
        "profile": [ "http://hl7.org/fhir/us/qicore/StructureDefinition/qicore-servicenotrequested" ]
      },
      "extension": [ {
        "url": "http://hl7.org/fhir/us/qicore/StructureDefinition/qicore-doNotPerformReason",
        "valueCodeableConcept": {
          "coding": [ {
            "system": "http://snomed.info/sct",
            "code": "1296859006",
            "display": "Procedure declined (situation)",
            "userSelected": true
          } ]
        }
      } ],
      "status": "completed",
      "intent": "order",
      "doNotPerform": true,
      "code": {
        "coding": [ {
          "system": "http://snomed.info/sct",
          "version": "2022-03",
          "code": "281090004",
          "display": "Recommendation to exercise (procedure)",
          "userSelected": true
        } ]
      },
      "subject": {
        "reference": "Patient/0278fdf0-f067-46e8-aeb1-fb96dff3c947"
      },
      "authoredOn": "2026-01-01T08:01:00.000Z"
    }
  }, {
    "fullUrl": "https://madie.cms.gov/Coverage/de802726-99bd-4ffe-b41b-ab3c0587a6da",
    "resource": {
      "resourceType": "Coverage",
      "id": "de802726-99bd-4ffe-b41b-ab3c0587a6da",
      "meta": {
        "profile": [ "http://hl7.org/fhir/us/qicore/StructureDefinition/qicore-coverage" ]
      },
      "status": "active",
      "subscriberId": "8473",
      "beneficiary": {
        "reference": "Patient/0278fdf0-f067-46e8-aeb1-fb96dff3c947"
      },
      "relationship": {
        "coding": [ {
          "system": "http://terminology.hl7.org/CodeSystem/subscriber-relationship",
          "code": "self",
          "display": "Self"
        } ]
      },
      "payor": [ {
        "reference": "Organization/8d6fae2f-3e04-450d-a61c-8da46f72f423"
      } ]
    }
  }, {
    "fullUrl": "https://madie.cms.gov/Organization/8d6fae2f-3e04-450d-a61c-8da46f72f423",
    "resource": {
      "resourceType": "Organization",
      "id": "8d6fae2f-3e04-450d-a61c-8da46f72f423",
      "meta": {
        "profile": [ "http://hl7.org/fhir/us/qicore/StructureDefinition/qicore-organization" ]
      },
      "identifier": [ {
        "use": "temp",
        "system": "urn:oid:2.16.840.1.113883.4.4",
        "value": "21-3259825"
      } ],
      "active": true,
      "type": [ {
        "coding": [ {
          "system": "http://terminology.hl7.org/CodeSystem/organization-type",
          "code": "pay",
          "display": "Payer"
        } ]
      } ],
      "name": "Blue Cross Blue Shield of Texas",
      "telecom": [ {
        "system": "phone",
        "value": "(+1) 972-766-6900"
      } ],
      "address": [ {
        "use": "billing",
        "type": "postal",
        "line": [ "P.O. Box 660044" ],
        "city": "Dallas",
        "state": "TX",
        "postalCode": "75266-0044",
        "country": "USA"
      } ]
    }
  }, {
    "fullUrl": "https://madie.cms.gov/Practitioner/20559908-3a3f-4558-9fa7-327784fbe53a",
    "resource": {
      "resourceType": "Practitioner",
      "id": "20559908-3a3f-4558-9fa7-327784fbe53a",
      "meta": {
        "profile": [ "http://hl7.org/fhir/us/qicore/StructureDefinition/qicore-practitioner" ]
      },
      "identifier": [ {
        "system": "http://hl7.org/fhir/sid/us-npi",
        "value": "1003864232"
      } ],
      "name": [ {
        "family": "Evil",
        "prefix": [ "Dr" ]
      } ]
    }
  }, {
    "fullUrl": "https://madie.cms.gov/MeasureReport/064f5dc2-d804-4a03-a0c8-d0c25ae3b8fb",
    "resource": {
      "resourceType": "MeasureReport",
      "id": "064f5dc2-d804-4a03-a0c8-d0c25ae3b8fb",
      "meta": {
        "profile": [ "http://hl7.org/fhir/us/cqfmeasures/StructureDefinition/test-case-cqfm" ]
      },
      "contained": [ {
        "resourceType": "Parameters",
        "id": "bac16a27-0369-42c1-b973-22f7b5048069-parameters",
        "parameter": [ {
          "name": "subject",
          "valueString": "0278fdf0-f067-46e8-aeb1-fb96dff3c947"
        } ]
      } ],
      "extension": [ {
        "url": "http://hl7.org/fhir/StructureDefinition/cqf-inputParameters",
        "valueReference": {
          "reference": "#bac16a27-0369-42c1-b973-22f7b5048069-parameters"
        }
      }, {
        "url": "http://hl7.org/fhir/us/cqfmeasures/StructureDefinition/cqfm-testCaseDescription",
        "valueMarkdown": "Enc. 01/01 0800-0830 during MP, age 20, BP 130/79 at 0829, declined recommendation to exercise."
      } ],
      "modifierExtension": [ {
        "url": "http://hl7.org/fhir/us/cqfmeasures/StructureDefinition/cqfm-isTestCase",
        "valueBoolean": true
      } ],
      "status": "complete",
      "type": "individual",
      "measure": "https://madie.cms.gov/Measure/CMS22FHIRPCSBPScreeningFollowUp",
      "period": {
        "start": "2026-01-01",
        "end": "2026-12-31"
      },
      "group": [ {
        "id": "Group_1",
        "population": [ {
          "id": "InitialPopulation_1",
          "code": {
            "coding": [ {
              "system": "http://terminology.hl7.org/CodeSystem/measure-population",
              "code": "initial-population",
              "display": "Initial Population"
            } ]
          },
          "count": 1
        }, {
          "id": "Denominator_1",
          "code": {
            "coding": [ {
              "system": "http://terminology.hl7.org/CodeSystem/measure-population",
              "code": "denominator",
              "display": "Denominator"
            } ]
          },
          "count": 1
        }, {
          "id": "DenominatorExclusion_1",
          "code": {
            "coding": [ {
              "system": "http://terminology.hl7.org/CodeSystem/measure-population",
              "code": "denominator-exclusion",
              "display": "Denominator Exclusion"
            } ]
          },
          "count": 0
        }, {
          "id": "Numerator_1",
          "code": {
            "coding": [ {
              "system": "http://terminology.hl7.org/CodeSystem/measure-population",
              "code": "numerator",
              "display": "Numerator"
            } ]
          },
          "count": 0
        }, {
          "id": "DenominatorException_1",
          "code": {
            "coding": [ {
              "system": "http://terminology.hl7.org/CodeSystem/measure-population",
              "code": "denominator-exception",
              "display": "Denominator Exception"
            } ]
          },
          "count": 1
        } ],
        "measureScore": {
          "value": 0.0
        }
      } ],
      "evaluatedResource": [ {
        "reference": "Patient/0278fdf0-f067-46e8-aeb1-fb96dff3c947"
      }, {
        "reference": "Encounter/b2979a40-4733-411f-8cf1-1fb54927cbff"
      }, {
        "reference": "Observation/05a0a9aa-cdda-41b3-a326-85501dc46f90"
      }, {
        "reference": "ServiceRequest/bf1a86d0-65f3-4325-884f-627eaf9930a9"
      }, {
        "reference": "Coverage/de802726-99bd-4ffe-b41b-ab3c0587a6da"
      }, {
        "reference": "Organization/8d6fae2f-3e04-450d-a61c-8da46f72f423"
      }, {
        "reference": "Practitioner/20559908-3a3f-4558-9fa7-327784fbe53a"
      } ]
    }
  } ]
}